src_subject_id,session_id,run_id,param_counterbalance_ver,param_block_num,param_trial_num,param_cond_type_num,param_cond_type_string,param_normative_response,param_ques_type_string,param_image_num,param_image_filename,param_trigger_onset,param_start_biopac,event01_fixation,event01_fixation_dur,event01_blockquestion_onset,event01_block_isi_blacksreen,event01_blockquestion_dur,event02_image_onset,event02_image_dur,event03_response_onset,event03_response_key,event03_response_keyname,event03_RT,event04_shortquestion_onset,param_end_instruct_onset,param_experiment_duration,RAW_e1_fixation,RAW_e1_fixation_biopac,RAW_e1_blockquestion_onset,RAW_e1_blockquestion_onset_biopac,RAW_e1_block_isi_blacksreen,RAW_e2_image_onset,RAW_e2_image_onset_biopac,RAW_e3_response_onset,RAW_e4_shortquestion_onset,RAW_param_end_instruct_onset,accuracy
122,4,2,3,1,1,4,c4_HowHand,1,reaching?,107,H_007.jpg,1652394331.80879,1652394331.81125,0.0211443805694578,0.038306713104248,0.071163167953491,2.10525392532349,2.03409075737,2.25531076431274,0.566877365112305,2.82443808555603,1,left,0.526716947555542,2.82218812942505,604.47989200592,607.23989200592,1652394334.58993,1652394334.59513,1652394334.63995,1652394334.64129,1652394336.67404,1652394336.8241,1652394336.83539,1652394337.39323,1652394337.39098,1652394939.04868,1
122,4,2,3,1,2,4,c4_HowHand,2,reaching?,108,H_532.jpg,1652394331.80879,1652394331.81125,0.0211443805694578,0.038306713104248,0.071163167953491,2.10525392532349,0.3,3.13897274971008,0.0166733264923096,3.16617893218994,1,left,0.000661134719848633,3.15564607620239,604.47989200592,607.23989200592,1652394334.58993,1652394334.59513,1652394334.63995,1652394334.64129,1652394336.67404,1652394337.70776,1652394337.7097,1652394337.73497,1652394337.72444,1652394939.04868,0
122,4,2,3,1,3,4,c4_HowHand,1,reaching?,109,H_474.jpg,1652394331.80879,1652394331.81125,0.0211443805694578,0.038306713104248,0.071163167953491,2.10525392532349,0.3,3.47243093490601,1.7173068523407,5.34423803329468,3,right,1.84992189407349,5.1897377872467,604.47989200592,607.23989200592,1652394334.58993,1652394334.59513,1652394334.63995,1652394334.64129,1652394336.67404,1652394338.04122,1652394338.0434,1652394339.91303,1652394339.75853,1652394939.04868,0
122,4,2,3,1,4,4,c4_HowHand,2,reaching?,105,H_438.jpg,1652394331.80879,1652394331.81125,0.0211443805694578,0.038306713104248,0.071163167953491,2.10525392532349,0.3,5.50652312278748,0.0166723728179932,5.5337228679657,3,right,0.00079798698425293,5.52319549560547,604.47989200592,607.23989200592,1652394334.58993,1652394334.59513,1652394334.63995,1652394334.64129,1652394336.67404,1652394340.07531,1652394340.07745,1652394340.10251,1652394340.09198,1652394939.04868,0
122,4,2,3,1,5,4,c4_HowHand,1,reaching?,110,H_364.jpg,1652394331.80879,1652394331.81125,0.0211443805694578,0.038306713104248,0.071163167953491,2.10525392532349,0.3,5.83998083114624,1.56725120544434,7.41895889282227,1,left,1.54725193977356,7.40723203659058,604.47989200592,607.23989200592,1652394334.58993,1652394334.59513,1652394334.63995,1652394334.64129,1652394336.67404,1652394340.40877,1652394340.41195,1652394341.98775,1652394341.97602,1652394939.04868,1
122,4,2,3,1,6,4,c4_HowHand,1,reaching?,106,H_006.jpg,1652394331.80879,1652394331.81125,0.0211443805694578,0.038306713104248,0.071163167953491,2.10525392532349,0.3,7.72401570320129,0.900335788726807,8.63364004135132,1,left,0.889434099197388,8.6243514919281,604.47989200592,607.23989200592,1652394334.58993,1652394334.59513,1652394334.63995,1652394334.64129,1652394336.67404,1652394342.2928,1652394342.29447,1652394343.20243,1652394343.19314,1652394939.04868,1
122,4,2,3,1,7,4,c4_HowHand,1,reaching?,111,H_003.jpg,1652394331.80879,1652394331.81125,0.0211443805694578,0.038306713104248,0.071163167953491,2.10525392532349,0.3,8.94113563537598,1.13375687599182,10.0825970077515,1,left,1.11879992485046,10.0748925113678,604.47989200592,607.23989200592,1652394334.58993,1652394334.59513,1652394334.63995,1652394334.64129,1652394336.67404,1652394343.50992,1652394343.51171,1652394344.65139,1652394344.64368,1652394939.04868,1
122,4,2,3,1,8,4,c4_HowHand,2,reaching?,112,H_132.jpg,1652394331.80879,1652394331.81125,0.0211443805694578,0.038306713104248,0.071163167953491,2.10525392532349,0.3,10.39167760849,0.933681488037109,11.3268360996246,3,right,0.914622068405151,11.3253590965271,604.47989200592,607.23989200592,1652394334.58993,1652394334.59513,1652394334.63995,1652394334.64129,1652394336.67404,1652394344.96047,1652394344.96234,1652394345.89563,1652394345.89415,1652394939.04868,0
122,4,2,3,2,1,2,c2_WhyHand,1,healthy?,21,H_627.jpg,1652394331.80879,1652394331.81125,11.4420692825317,6.08912873268127,17.5443451309204,19.6451291942596,2.10078406333923,19.7951853179932,1.43386721611023,21.2334639930725,1,left,1.4158890247345,21.2290525341034,604.47989200592,607.23989200592,1652394346.01086,1652394346.01275,1652394352.11313,1652394352.11884,1652394354.21392,1652394354.36397,1652394354.36895,1652394355.80225,1652394355.79784,1652394939.04868,1
122,4,2,3,2,2,2,c2_WhyHand,1,healthy?,18,H_438.jpg,1652394331.80879,1652394331.81125,11.4420692825317,6.08912873268127,17.5443451309204,19.6451291942596,0.3,21.5458381080627,0.0166716575622559,21.5663170719147,1,left,0.000241994857788086,21.562509765625,604.47989200592,607.23989200592,1652394346.01086,1652394346.01275,1652394352.11313,1652394352.11884,1652394354.21392,1652394356.11463,1652394356.1187,1652394356.13511,1652394356.1313,1652394939.04868,1
122,4,2,3,2,3,2,c2_WhyHand,1,healthy?,23,H_364.jpg,1652394331.80879,1652394331.81125,11.4420692825317,6.08912873268127,17.5443451309204,19.6451291942596,0.3,21.8792965316772,1.45053911209106,23.3326489830017,1,left,1.44129204750061,23.3298356437683,604.47989200592,607.23989200592,1652394346.01086,1652394346.01275,1652394352.11313,1652394352.11884,1652394354.21392,1652394356.44809,1652394356.45212,1652394357.90144,1652394357.89862,1652394939.04868,1
122,4,2,3,2,4,2,c2_WhyHand,2,healthy?,22,H_130.jpg,1652394331.80879,1652394331.81125,11.4420692825317,6.08912873268127,17.5443451309204,19.6451291942596,0.3,23.6466209793091,1.7006356716156,25.3499119186401,3,right,1.68660998344421,25.3472566509247,604.47989200592,607.23989200592,1652394346.01086,1652394346.01275,1652394352.11313,1652394352.11884,1652394354.21392,1652394358.21541,1652394358.21855,1652394359.9187,1652394359.91605,1652394939.04868,0
122,4,2,3,2,5,2,c2_WhyHand,1,healthy?,17,H_362.jpg,1652394331.80879,1652394331.81125,11.4420692825317,6.08912873268127,17.5443451309204,19.6451291942596,0.3,25.6640396022797,0.816971778869629,26.4832389259338,1,left,0.793926954269409,26.4810113811493,604.47989200592,607.23989200592,1652394346.01086,1652394346.01275,1652394352.11313,1652394352.11884,1652394354.21392,1652394360.23283,1652394360.23526,1652394361.05203,1652394361.0498,1652394939.04868,1
122,4,2,3,2,6,2,c2_WhyHand,2,healthy?,20,H_007.jpg,1652394331.80879,1652394331.81125,11.4420692825317,6.08912873268127,17.5443451309204,19.6451291942596,0.3,26.7977957630157,1.06706500053406,27.8665540122986,3,right,1.0477409362793,27.8648607635498,604.47989200592,607.23989200592,1652394346.01086,1652394346.01275,1652394352.11313,1652394352.11884,1652394354.21392,1652394361.36658,1652394361.36854,1652394362.43534,1652394362.43365,1652394939.04868,0
122,4,2,3,2,7,2,c2_WhyHand,1,healthy?,19,H_167.jpg,1652394331.80879,1652394331.81125,11.4420692825317,6.08912873268127,17.5443451309204,19.6451291942596,0.3,28.1816449069977,0.0166728496551514,28.1997718715668,3,right,0.000230073928833008,28.1983177566528,604.47989200592,607.23989200592,1652394346.01086,1652394346.01275,1652394352.11313,1652394352.11884,1652394354.21392,1652394362.75043,1652394362.752,1652394362.76856,1652394362.76711,1652394939.04868,0
122,4,2,3,2,8,2,c2_WhyHand,2,healthy?,24,H_019.jpg,1652394331.80879,1652394331.81125,11.4420692825317,6.08912873268127,17.5443451309204,19.6451291942596,0.3,28.5151026153564,1.71730613708496,NaN,0,NA,0,30.2324087524414,604.47989200592,607.23989200592,1652394346.01086,1652394346.01275,1652394352.11313,1652394352.11884,1652394354.21392,1652394363.08389,1652394363.08568,NaN,1652394364.8012,1652394939.04868,0
122,4,2,3,3,1,1,c1_WhyFace,1,admiring?,4,F_779.jpg,1652394331.80879,1652394331.81125,30.5825409793854,6.05650806427002,36.6514708900452,38.7522532844543,2.10078239440918,38.9023096466064,0.83364462852478,39.737015953064,1,left,0.813841104507446,39.7359542751312,604.47989200592,607.23989200592,1652394365.15133,1652394365.15326,1652394371.22026,1652394371.22244,1652394373.32104,1652394373.4711,1652394373.47368,1652394374.3058,1652394374.30474,1652394939.04868,1
122,4,2,3,3,2,1,c1_WhyFace,1,admiring?,1,F_593.jpg,1652394331.80879,1652394331.81125,30.5825409793854,6.05650806427002,36.6514708900452,38.7522532844543,0.3,40.0527391338348,0.716933488845825,40.7709069156647,1,left,0.694885015487671,40.7696726226807,604.47989200592,607.23989200592,1652394365.15133,1652394365.15326,1652394371.22026,1652394371.22244,1652394373.32104,1652394374.62153,1652394374.62302,1652394375.3397,1652394375.33846,1652394939.04868,1
122,4,2,3,3,3,1,c1_WhyFace,2,admiring?,3,F_110.jpg,1652394331.80879,1652394331.81125,30.5825409793854,6.05650806427002,36.6514708900452,38.7522532844543,0.3,41.08645819664,0.866990089416504,41.9544570350647,3,right,0.853178024291992,41.9534482860565,604.47989200592,607.23989200592,1652394365.15133,1652394365.15326,1652394371.22026,1652394371.22244,1652394373.32104,1652394375.65525,1652394375.65713,1652394376.52325,1652394376.52224,1652394939.04868,0
122,4,2,3,3,4,1,c1_WhyFace,1,admiring?,8,F_590.jpg,1652394331.80879,1652394331.81125,30.5825409793854,6.05650806427002,36.6514708900452,38.7522532844543,0.3,42.2702324295044,0.733606100082397,43.0049328708649,1,left,0.711966037750244,43.0038385295868,604.47989200592,607.23989200592,1652394365.15133,1652394365.15326,1652394371.22026,1652394371.22244,1652394373.32104,1652394376.83902,1652394376.84033,1652394377.57372,1652394377.57263,1652394939.04868,1
122,4,2,3,3,5,1,c1_WhyFace,2,admiring?,6,F_692.jpg,1652394331.80879,1652394331.81125,30.5825409793854,6.05650806427002,36.6514708900452,38.7522532844543,0.3,43.320623626709,0.933681964874268,44.2665910625458,3,right,0.925234794616699,44.2543055915833,604.47989200592,607.23989200592,1652394365.15133,1652394365.15326,1652394371.22026,1652394371.22244,1652394373.32104,1652394377.88941,1652394377.89093,1652394378.83538,1652394378.82309,1652394939.04868,0
122,4,2,3,3,6,1,c1_WhyFace,1,admiring?,5,F_759.jpg,1652394331.80879,1652394331.81125,30.5825409793854,6.05650806427002,36.6514708900452,38.7522532844543,0.3,44.571090927124,0.53353214263916,45.1065759563446,1,left,0.518845081329346,45.1046230697632,604.47989200592,607.23989200592,1652394365.15133,1652394365.15326,1652394371.22026,1652394371.22244,1652394373.32104,1652394379.13988,1652394379.14154,1652394379.67536,1652394379.67341,1652394939.04868,1
122,4,2,3,3,7,1,c1_WhyFace,1,admiring?,7,F_648.jpg,1652394331.80879,1652394331.81125,30.5825409793854,6.05650806427002,36.6514708900452,38.7522532844543,0.3,45.4214072132111,0.800299167633057,46.2228510284424,1,left,0.779889822006226,46.2217063808441,604.47989200592,607.23989200592,1652394365.15133,1652394365.15326,1652394371.22026,1652394371.22244,1652394373.32104,1652394379.9902,1652394379.99183,1652394380.79164,1652394380.7905,1652394939.04868,1
122,4,2,3,3,8,1,c1_WhyFace,2,admiring?,2,F_129.jpg,1652394331.80879,1652394331.81125,30.5825409793854,6.05650806427002,36.6514708900452,38.7522532844543,0.3,46.538490524292,0.766952276229858,47.3068249130249,3,right,0.748386144638062,47.3054428005219,604.47989200592,607.23989200592,1652394365.15133,1652394365.15326,1652394371.22026,1652394371.22244,1652394373.32104,1652394381.10728,1652394381.10926,1652394381.87561,1652394381.87423,1652394939.04868,0
122,4,2,3,4,1,3,c3_HowFace,1,smiling?,119,F_139.jpg,1652394331.80879,1652394331.81125,47.3888082408905,8.21436381340027,55.6085393333435,57.7093233966827,2.10078406333923,57.8593797588348,0.800297737121582,58.6613740825653,1,left,0.774039030075073,58.6596774959564,604.47989200592,607.23989200592,1652394381.9576,1652394381.95923,1652394390.17733,1652394390.18584,1652394392.27811,1652394392.42817,1652394392.43626,1652394393.23016,1652394393.22847,1652394939.04868,1
122,4,2,3,4,2,3,c3_HowFace,2,smiling?,113,F_712.jpg,1652394331.80879,1652394331.81125,47.3888082408905,8.21436381340027,55.6085393333435,57.7093233966827,0.3,58.9764628314972,0.650241851806641,59.6334080600739,3,right,0.636436939239502,59.6267046833038,604.47989200592,607.23989200592,1652394381.9576,1652394381.95923,1652394390.17733,1652394390.18584,1652394392.27811,1652394393.54525,1652394393.54687,1652394394.2022,1652394394.19549,1652394939.04868,0
122,4,2,3,4,3,3,c3_HowFace,1,smiling?,115,F_695.jpg,1652394331.80879,1652394331.81125,47.3888082408905,8.21436381340027,55.6085393333435,57.7093233966827,0.3,59.943489780426,0.98370099067688,60.9282660388947,1,left,0.964128971099854,60.9271907711029,604.47989200592,607.23989200592,1652394381.9576,1652394381.95923,1652394390.17733,1652394390.18584,1652394392.27811,1652394394.51228,1652394394.51412,1652394395.49706,1652394395.49598,1652394939.04868,1
122,4,2,3,4,4,3,c3_HowFace,2,smiling?,120,F_758.jpg,1652394331.80879,1652394331.81125,47.3888082408905,8.21436381340027,55.6085393333435,57.7093233966827,0.3,61.2439753913879,0.766953229904175,62.0159370803833,3,right,0.75403904914856,62.0109286212921,604.47989200592,607.23989200592,1652394381.9576,1652394381.95923,1652394390.17733,1652394390.18584,1652394392.27811,1652394395.81276,1652394395.81444,1652394396.58473,1652394396.57972,1652394939.04868,0
122,4,2,3,4,5,3,c3_HowFace,1,smiling?,116,F_083.jpg,1652394331.80879,1652394331.81125,47.3888082408905,8.21436381340027,55.6085393333435,57.7093233966827,0.3,62.32771276474,0.566878318786621,62.8998229408264,1,left,0.555172920227051,62.8945910835266,604.47989200592,607.23989200592,1652394381.9576,1652394381.95923,1652394390.17733,1652394390.18584,1652394392.27811,1652394396.8965,1652394396.89825,1652394397.46861,1652394397.46338,1652394939.04868,1
122,4,2,3,4,6,3,c3_HowFace,1,smiling?,118,F_759.jpg,1652394331.80879,1652394331.81125,47.3888082408905,8.21436381340027,55.6085393333435,57.7093233966827,0.3,63.2113757038116,0.7669517993927,63.9799680614471,1,left,0.743530988693237,63.9783275032043,604.47989200592,607.23989200592,1652394381.9576,1652394381.95923,1652394390.17733,1652394390.18584,1652394392.27811,1652394397.78016,1652394397.78199,1652394398.54876,1652394398.54712,1652394939.04868,1
122,4,2,3,4,7,3,c3_HowFace,2,smiling?,114,F_412.jpg,1652394331.80879,1652394331.81125,47.3888082408905,8.21436381340027,55.6085393333435,57.7093233966827,0.3,64.2951173686981,0.633565187454224,64.9332790279388,3,right,0.614844083786011,64.9286825561523,604.47989200592,607.23989200592,1652394381.9576,1652394381.95923,1652394390.17733,1652394390.18584,1652394392.27811,1652394398.86391,1652394398.8687,1652394399.50207,1652394399.49747,1652394939.04868,0
122,4,2,3,4,8,3,c3_HowFace,1,smiling?,117,F_593.jpg,1652394331.80879,1652394331.81125,47.3888082408905,8.21436381340027,55.6085393333435,57.7093233966827,0.3,65.2454669380188,0.917008399963379,66.1658949756622,1,left,0.906210899353027,66.1624753379822,604.47989200592,607.23989200592,1652394381.9576,1652394381.95923,1652394390.17733,1652394390.18584,1652394392.27811,1652394399.81426,1652394399.81859,1652394400.73468,1652394400.73126,1652394939.04868,1
122,4,2,3,5,1,4,c4_HowHand,1,lifting?,56,H_136.jpg,1652394331.80879,1652394331.81125,66.2291679286957,6.90470814704895,73.1484141254425,75.2491977119446,2.10078358650208,75.3992533588409,1.08373832702637,76.4846310520172,1,left,1.06554579734802,76.4829916858673,604.47989200592,607.23989200592,1652394400.79796,1652394400.80386,1652394407.7172,1652394407.71995,1652394409.81799,1652394409.96804,1652394409.97004,1652394411.05342,1652394411.05178,1652394939.04868,1
122,4,2,3,5,2,4,c4_HowHand,2,lifting?,51,H_038.jpg,1652394331.80879,1652394331.81125,66.2291679286957,6.90470814704895,73.1484141254425,75.2491977119446,0.3,76.7997758293152,0.733607053756714,77.5349469089508,3,right,0.714667081832886,77.5333828830719,604.47989200592,607.23989200592,1652394400.79796,1652394400.80386,1652394407.7172,1652394407.71995,1652394409.81799,1652394411.36856,1652394411.37043,1652394412.10374,1652394412.10217,1652394939.04868,0
122,4,2,3,5,3,4,c4_HowHand,1,lifting?,52,H_189.jpg,1652394331.80879,1652394331.81125,66.2291679286957,6.90470814704895,73.1484141254425,75.2491977119446,0.3,77.8501675033569,1.20044851303101,79.0523369216919,1,left,1.17920303344727,79.0506160163879,604.47989200592,607.23989200592,1652394400.79796,1652394400.80386,1652394407.7172,1652394407.71995,1652394409.81799,1652394412.41896,1652394412.42059,1652394413.62113,1652394413.61941,1652394939.04868,1
122,4,2,3,5,4,4,c4_HowHand,2,lifting?,53,H_077.jpg,1652394331.80879,1652394331.81125,66.2291679286957,6.90470814704895,73.1484141254425,75.2491977119446,0.3,79.367400636673,1.10041117668152,80.4825720691681,3,right,1.09408402442932,80.4678118133545,604.47989200592,607.23989200592,1652394400.79796,1652394400.80386,1652394407.7172,1652394407.71995,1652394409.81799,1652394413.93619,1652394413.93776,1652394415.05136,1652394415.0366,1652394939.04868,0
122,4,2,3,5,5,4,c4_HowHand,1,lifting?,50,H_443.jpg,1652394331.80879,1652394331.81125,66.2291679286957,6.90470814704895,73.1484141254425,75.2491977119446,0.3,80.7845947647095,1.00037431716919,81.7859880828857,1,left,0.985867977142334,81.7849690818787,604.47989200592,607.23989200592,1652394400.79796,1652394400.80386,1652394407.7172,1652394407.71995,1652394409.81799,1652394415.35338,1652394415.35497,1652394416.35478,1652394416.35376,1652394939.04868,1
122,4,2,3,5,6,4,c4_HowHand,2,lifting?,55,H_012.jpg,1652394331.80879,1652394331.81125,66.2291679286957,6.90470814704895,73.1484141254425,75.2491977119446,0.3,82.101752986908,0.783626079559326,82.8867680931091,3,right,0.77288293838501,82.8853790664673,604.47989200592,607.23989200592,1652394400.79796,1652394400.80386,1652394407.7172,1652394407.71995,1652394409.81799,1652394416.67054,1652394416.67207,1652394417.45556,1652394417.45417,1652394939.04868,0
122,4,2,3,5,7,4,c4_HowHand,1,lifting?,49,H_362.jpg,1652394331.80879,1652394331.81125,66.2291679286957,6.90470814704895,73.1484141254425,75.2491977119446,0.3,83.2021624946594,0.550205945968628,83.7667939567566,1,left,0.541166067123413,83.752368440628,604.47989200592,607.23989200592,1652394400.79796,1652394400.80386,1652394407.7172,1652394407.71995,1652394409.81799,1652394417.77095,1652394417.77271,1652394418.33558,1652394418.32116,1652394939.04868,1
122,4,2,3,5,8,4,c4_HowHand,1,lifting?,54,H_170.jpg,1652394331.80879,1652394331.81125,66.2291679286957,6.90470814704895,73.1484141254425,75.2491977119446,0.3,84.0691537761688,0.733607769012451,84.8038670921326,1,left,0.720109939575195,84.8027615451813,604.47989200592,607.23989200592,1652394400.79796,1652394400.80386,1652394407.7172,1652394407.71995,1652394409.81799,1652394418.63794,1652394418.63945,1652394419.37266,1652394419.37155,1652394939.04868,1
122,4,2,3,6,1,2,c2_WhyHand,1,helping?,38,H_077.jpg,1652394331.80879,1652394331.81125,84.8694524669647,10.7455575466156,95.6234629058838,97.7242462539673,2.1007833480835,97.8743016624451,0.866990089416504,98.749929895401,1,left,0.84396505355835,98.7412917518616,604.47989200592,607.23989200592,1652394419.43824,1652394419.43986,1652394430.19225,1652394430.20241,1652394432.29304,1652394432.44309,1652394432.4524,1652394433.31872,1652394433.31008,1652394939.04868,1
122,4,2,3,6,2,2,c2_WhyHand,1,helping?,36,H_349.jpg,1652394331.80879,1652394331.81125,84.8694524669647,10.7455575466156,95.6234629058838,97.7242462539673,0.3,99.0580766105652,0.800297975540161,99.8659610652924,1,left,0.791766166687012,99.8583745861053,604.47989200592,607.23989200592,1652394419.43824,1652394419.43986,1652394430.19225,1652394430.20241,1652394432.29304,1652394433.62687,1652394433.62882,1652394434.43475,1652394434.42716,1652394939.04868,1
122,4,2,3,6,3,2,c2_WhyHand,1,helping?,37,H_474.jpg,1652394331.80879,1652394331.81125,84.8694524669647,10.7455575466156,95.6234629058838,97.7242462539673,0.3,100.175159921646,0.783625364303589,100.966442098618,1,left,0.776017904281616,100.95878528595,604.47989200592,607.23989200592,1652394419.43824,1652394419.43986,1652394430.19225,1652394430.20241,1652394432.29304,1652394434.74395,1652394434.74609,1652394435.53523,1652394435.52757,1652394939.04868,1
122,4,2,3,6,4,2,c2_WhyHand,1,helping?,39,H_024.jpg,1652394331.80879,1652394331.81125,84.8694524669647,10.7455575466156,95.6234629058838,97.7242462539673,0.3,101.275571336746,1.25046563148499,102.532634963989,1,left,1.24079418182373,102.526036968231,604.47989200592,607.23989200592,1652394419.43824,1652394419.43986,1652394430.19225,1652394430.20241,1652394432.29304,1652394435.84436,1652394435.84573,1652394437.10142,1652394437.09483,1652394939.04868,1
122,4,2,3,6,5,2,c2_WhyHand,2,helping?,40,H_012.jpg,1652394331.80879,1652394331.81125,84.8694524669647,10.7455575466156,95.6234629058838,97.7242462539673,0.3,102.842821826935,0.9170081615448,103.761178007126,3,right,0.897082090377808,103.75982998848,604.47989200592,607.23989200592,1652394419.43824,1652394419.43986,1652394430.19225,1652394430.20241,1652394432.29304,1652394437.41161,1652394437.41354,1652394438.32997,1652394438.32862,1652394939.04868,0
122,4,2,3,6,6,2,c2_WhyHand,2,helping?,35,H_159.jpg,1652394331.80879,1652394331.81125,84.8694524669647,10.7455575466156,95.6234629058838,97.7242462539673,0.3,104.07661532402,1.0337188243866,105.111757030487,3,right,1.01315498352051,105.110334148407,604.47989200592,607.23989200592,1652394419.43824,1652394419.43986,1652394430.19225,1652394430.20241,1652394432.29304,1652394438.6454,1652394438.64677,1652394439.68055,1652394439.67912,1652394939.04868,0
122,4,2,3,6,7,2,c2_WhyHand,1,helping?,34,H_111.jpg,1652394331.80879,1652394331.81125,84.8694524669647,10.7455575466156,95.6234629058838,97.7242462539673,0.3,105.427119007111,0.816970825195312,106.249757041931,1,left,0.803553104400635,106.244089832306,604.47989200592,607.23989200592,1652394419.43824,1652394419.43986,1652394430.19225,1652394430.20241,1652394432.29304,1652394439.99591,1652394439.99783,1652394440.81855,1652394440.81288,1652394939.04868,1
122,4,2,3,6,8,2,c2_WhyHand,2,helping?,33,H_091.jpg,1652394331.80879,1652394331.81125,84.8694524669647,10.7455575466156,95.6234629058838,97.7242462539673,0.3,106.56087469101,0.883662939071655,107.449886074066,3,right,0.875436067581177,107.444537630081,604.47989200592,607.23989200592,1652394419.43824,1652394419.43986,1652394430.19225,1652394430.20241,1652394432.29304,1652394441.12966,1652394441.13134,1652394442.01868,1652394442.01333,1652394939.04868,0
122,4,2,3,7,1,1,c1_WhyFace,1,proud?,104,F_598.jpg,1652394331.80879,1652394331.81125,107.511228313446,5.97873163223267,113.496794691086,115.597578277588,2.10078358650208,115.747633924484,1.03371906280518,116.782562007904,1,left,1.02559590339661,116.781352987289,604.47989200592,607.23989200592,1652394442.08002,1652394442.08537,1652394448.06558,1652394448.06881,1652394450.16637,1652394450.31642,1652394450.31893,1652394451.35135,1652394451.35014,1652394939.04868,1
122,4,2,3,7,2,1,c1_WhyFace,2,proud?,102,F_760.jpg,1652394331.80879,1652394331.81125,107.511228313446,5.97873163223267,113.496794691086,115.597578277588,0.3,117.098137369156,0.733607292175293,117.833311071396,3,right,0.7220139503479,117.831744661331,604.47989200592,607.23989200592,1652394442.08002,1652394442.08537,1652394448.06558,1652394448.06881,1652394450.16637,1652394451.66693,1652394451.66864,1652394452.4021,1652394452.40053,1652394939.04868,0
122,4,2,3,7,3,1,c1_WhyFace,1,proud?,97,F_582.jpg,1652394331.80879,1652394331.81125,107.511228313446,5.97873163223267,113.496794691086,115.597578277588,0.3,118.148529758453,0.7669517993927,118.917215099335,1,left,0.745376825332642,118.915481557846,604.47989200592,607.23989200592,1652394442.08002,1652394442.08537,1652394448.06558,1652394448.06881,1652394450.16637,1652394452.71732,1652394452.719,1652394453.486,1652394453.48427,1652394939.04868,1
122,4,2,3,7,4,1,c1_WhyFace,2,proud?,98,F_412.jpg,1652394331.80879,1652394331.81125,107.511228313446,5.97873163223267,113.496794691086,115.597578277588,0.3,119.232267131805,0.716934204101562,119.950190057755,3,right,0.695537090301514,119.949201335907,604.47989200592,607.23989200592,1652394442.08002,1652394442.08537,1652394448.06558,1652394448.06881,1652394450.16637,1652394453.80106,1652394453.80283,1652394454.51898,1652394454.51799,1652394939.04868,0
122,4,2,3,7,5,1,c1_WhyFace,1,proud?,101,F_083.jpg,1652394331.80879,1652394331.81125,107.511228313446,5.97873163223267,113.496794691086,115.597578277588,0.3,120.265985956192,0.766953229904175,121.033947935104,1,left,0.758536815643311,121.032939186096,604.47989200592,607.23989200592,1652394442.08002,1652394442.08537,1652394448.06558,1652394448.06881,1652394450.16637,1652394454.83477,1652394454.83646,1652394455.60274,1652394455.60173,1652394939.04868,1
122,4,2,3,7,6,1,c1_WhyFace,2,proud?,100,F_776.jpg,1652394331.80879,1652394331.81125,107.511228313446,5.97873163223267,113.496794691086,115.597578277588,0.3,121.349723091125,0.917008399963379,122.268441905975,3,right,0.895281076431274,122.266731491089,604.47989200592,607.23989200592,1652394442.08002,1652394442.08537,1652394448.06558,1652394448.06881,1652394450.16637,1652394455.91851,1652394455.92046,1652394456.83723,1652394456.83552,1652394939.04868,0
122,4,2,3,7,7,1,c1_WhyFace,1,proud?,103,F_618.jpg,1652394331.80879,1652394331.81125,107.511228313446,5.97873163223267,113.496794691086,115.597578277588,0.3,122.583517065048,0.683587789535522,123.268694868088,1,left,0.669713973999023,123.267104854584,604.47989200592,607.23989200592,1652394442.08002,1652394442.08537,1652394448.06558,1652394448.06881,1652394450.16637,1652394457.15231,1652394457.15387,1652394457.83748,1652394457.83589,1652394939.04868,1
122,4,2,3,7,8,1,c1_WhyFace,1,proud?,99,F_695.jpg,1652394331.80879,1652394331.81125,107.511228313446,5.97873163223267,113.496794691086,115.597578277588,0.3,123.583890190125,0.933680534362793,124.518616905212,1,left,0.921620845794678,124.517570724487,604.47989200592,607.23989200592,1652394442.08002,1652394442.08537,1652394448.06558,1652394448.06881,1652394450.16637,1652394458.15268,1652394458.15434,1652394459.08741,1652394459.08636,1652394939.04868,1
122,4,2,3,8,1,3,c3_HowFace,1,looking to side?,72,F_590.jpg,1652394331.80879,1652394331.81125,124.584262599945,6.435786485672,131.036669006348,133.137451877594,2.10078287124634,133.287508239746,1.0337188243866,134.333378067017,1,left,1.02510905265808,134.321227064133,604.47989200592,607.23989200592,1652394459.15305,1652394459.15466,1652394465.60546,1652394465.60751,1652394467.70624,1652394467.8563,1652394467.85828,1652394468.90217,1652394468.89002,1652394939.04868,1
122,4,2,3,8,2,3,c3_HowFace,1,looking to side?,71,F_433.jpg,1652394331.80879,1652394331.81125,124.584262599945,6.435786485672,131.036669006348,133.137451877594,0.3,134.638011684418,0.933682680130005,135.582559099197,1,left,0.92148494720459,135.571694364548,604.47989200592,607.23989200592,1652394459.15305,1652394459.15466,1652394465.60546,1652394465.60751,1652394467.70624,1652394469.2068,1652394469.20873,1652394470.15135,1652394470.14048,1652394939.04868,1
122,4,2,3,8,3,3,c3_HowFace,1,looking to side?,67,F_716.jpg,1652394331.80879,1652394331.81125,124.584262599945,6.435786485672,131.036669006348,133.137451877594,0.3,135.88847946167,0.650241374969482,136.549859037399,1,left,0.638781785964966,136.538720836639,604.47989200592,607.23989200592,1652394459.15305,1652394459.15466,1652394465.60546,1652394465.60751,1652394467.70624,1652394470.45727,1652394470.4587,1652394471.11865,1652394471.10751,1652394939.04868,1
122,4,2,3,8,4,3,c3_HowFace,2,looking to side?,70,F_779.jpg,1652394331.80879,1652394331.81125,124.584262599945,6.435786485672,131.036669006348,133.137451877594,0.3,136.855505695343,0.716933965682983,137.574107875824,1,left,0.695632934570312,137.572439661026,604.47989200592,607.23989200592,1652394459.15305,1652394459.15466,1652394465.60546,1652394465.60751,1652394467.70624,1652394471.42429,1652394471.42593,1652394472.1429,1652394472.14123,1652394939.04868,0
122,4,2,3,8,5,3,c3_HowFace,1,looking to side?,68,F_760.jpg,1652394331.80879,1652394331.81125,124.584262599945,6.435786485672,131.036669006348,133.137451877594,0.3,137.88922451973,1.01704549789429,138.907526960373,1,left,0.998138189315796,138.906270017624,604.47989200592,607.23989200592,1652394459.15305,1652394459.15466,1652394465.60546,1652394465.60751,1652394467.70624,1652394472.45801,1652394472.45985,1652394473.47632,1652394473.47506,1652394939.04868,1
122,4,2,3,8,6,3,c3_HowFace,2,looking to side?,66,F_111.jpg,1652394331.80879,1652394331.81125,124.584262599945,6.435786485672,131.036669006348,133.137451877594,0.3,139.223054876328,1.20044779777527,140.432620992661,3,right,1.19204092025757,140.423502674103,604.47989200592,607.23989200592,1652394459.15305,1652394459.15466,1652394465.60546,1652394465.60751,1652394467.70624,1652394473.79184,1652394473.7937,1652394475.00141,1652394474.99229,1652394939.04868,0
122,4,2,3,8,7,3,c3_HowFace,1,looking to side?,69,F_110.jpg,1652394331.80879,1652394331.81125,124.584262599945,6.435786485672,131.036669006348,133.137451877594,0.3,140.740287294388,0.666915655136108,141.415951004028,1,left,0.65974497795105,141.407202949524,604.47989200592,607.23989200592,1652394459.15305,1652394459.15466,1652394465.60546,1652394465.60751,1652394467.70624,1652394475.30908,1652394475.31068,1652394475.98474,1652394475.97599,1652394939.04868,1
122,4,2,3,8,8,3,c3_HowFace,2,looking to side?,65,F_798.jpg,1652394331.80879,1652394331.81125,124.584262599945,6.435786485672,131.036669006348,133.137451877594,0.3,141.72398733139,1.06706547737122,142.799786081314,3,right,1.05627298355103,142.791052808762,604.47989200592,607.23989200592,1652394459.15305,1652394459.15466,1652394465.60546,1652394465.60751,1652394467.70624,1652394476.29278,1652394476.29437,1652394477.36858,1652394477.35984,1652394939.04868,0
122,4,2,3,9,1,1,c1_WhyFace,1,argument?,43,F_716.jpg,1652394331.80879,1652394331.81125,142.857743730545,7.27027034759521,150.14379524231,152.244577875137,2.10078263282776,152.394633760452,0.983700275421143,153.382633914948,1,left,0.973312139511108,153.378334035873,604.47989200592,607.23989200592,1652394477.42653,1652394477.4354,1652394484.71258,1652394484.71847,1652394486.81337,1652394486.96342,1652394486.96503,1652394487.95142,1652394487.94712,1652394939.04868,1
122,4,2,3,9,2,1,c1_WhyFace,2,argument?,44,F_139.jpg,1652394331.80879,1652394331.81125,142.857743730545,7.27027034759521,150.14379524231,152.244577875137,0.3,153.695117702484,0.73360800743103,154.432559957504,3,right,0.724362850189209,154.428725709915,604.47989200592,607.23989200592,1652394477.42653,1652394477.4354,1652394484.71258,1652394484.71847,1652394486.81337,1652394488.26391,1652394488.26549,1652394489.00135,1652394488.99751,1652394939.04868,0
122,4,2,3,9,3,1,c1_WhyFace,1,argument?,41,F_712.jpg,1652394331.80879,1652394331.81125,142.857743730545,7.27027034759521,150.14379524231,152.244577875137,0.3,154.745510807037,0.683587789535522,155.432620038986,1,left,0.667487859725952,155.429098596573,604.47989200592,607.23989200592,1652394477.42653,1652394477.4354,1652394484.71258,1652394484.71847,1652394486.81337,1652394489.3143,1652394489.31863,1652394490.00141,1652394489.99789,1652394939.04868,1
122,4,2,3,9,4,1,c1_WhyFace,2,argument?,45,F_433.jpg,1652394331.80879,1652394331.81125,142.857743730545,7.27027034759521,150.14379524231,152.244577875137,0.3,155.745883455276,0.816971302032471,156.56629609108,3,right,0.8001389503479,156.562854757309,604.47989200592,607.23989200592,1652394477.42653,1652394477.4354,1652394484.71258,1652394484.71847,1652394486.81337,1652394490.31467,1652394490.31859,1652394491.13509,1652394491.13164,1652394939.04868,0
122,4,2,3,9,5,1,c1_WhyFace,1,argument?,42,F_403.jpg,1652394331.80879,1652394331.81125,142.857743730545,7.27027034759521,150.14379524231,152.244577875137,0.3,156.879639616013,0.800298690795898,157.682462921143,1,left,0.791233777999878,157.679938306808,604.47989200592,607.23989200592,1652394477.42653,1652394477.4354,1652394484.71258,1652394484.71847,1652394486.81337,1652394491.44843,1652394491.45208,1652394492.25125,1652394492.24873,1652394939.04868,1
122,4,2,3,9,6,1,c1_WhyFace,2,argument?,46,F_844.jpg,1652394331.80879,1652394331.81125,142.857743730545,7.27027034759521,150.14379524231,152.244577875137,0.3,157.996722927094,0.866990327835083,158.866395940781,3,right,0.848821878433228,158.863713254929,604.47989200592,607.23989200592,1652394477.42653,1652394477.4354,1652394484.71258,1652394484.71847,1652394486.81337,1652394492.56551,1652394492.5685,1652394493.43518,1652394493.4325,1652394939.04868,0
122,4,2,3,9,7,1,c1_WhyFace,1,argument?,47,F_743.jpg,1652394331.80879,1652394331.81125,142.857743730545,7.27027034759521,150.14379524231,152.244577875137,0.3,159.180497875214,0.917008876800537,160.099230041504,1,left,0.904751062393188,160.097506752014,604.47989200592,607.23989200592,1652394477.42653,1652394477.4354,1652394484.71258,1652394484.71847,1652394486.81337,1652394493.74929,1652394493.75205,1652394494.66802,1652394494.6663,1652394939.04868,1
122,4,2,3,9,8,1,c1_WhyFace,1,argument?,48,F_758.jpg,1652394331.80879,1652394331.81125,142.857743730545,7.27027034759521,150.14379524231,152.244577875137,0.3,160.414290895462,0.833644866943359,161.249999036789,1,left,0.813456058502197,161.247935762405,604.47989200592,607.23989200592,1652394477.42653,1652394477.4354,1652394484.71258,1652394484.71847,1652394486.81337,1652394494.98308,1652394494.98542,1652394495.81879,1652394495.81672,1652394939.04868,1
122,4,2,3,10,1,3,c3_HowFace,1,open mouth?,80,F_844.jpg,1652394331.80879,1652394331.81125,161.331299772263,6.63672828674316,167.983780612946,170.084563961029,2.1007833480835,170.234619369507,0.933682680130005,171.16996096611,1,left,0.913477897644043,171.168302049637,604.47989200592,607.23989200592,1652394495.90009,1652394495.90171,1652394502.55257,1652394502.55413,1652394504.65335,1652394504.80341,1652394504.80553,1652394505.73875,1652394505.73709,1652394939.04868,1
122,4,2,3,10,2,3,c3_HowFace,1,open mouth?,74,F_776.jpg,1652394331.80879,1652394331.81125,161.331299772263,6.63672828674316,167.983780612946,170.084563961029,0.3,171.48508690834,0.816971302032471,172.303127040863,1,left,0.801883935928345,172.302058210373,604.47989200592,607.23989200592,1652394495.90009,1652394495.90171,1652394502.55257,1652394502.55413,1652394504.65335,1652394506.05388,1652394506.05597,1652394506.87192,1652394506.87085,1652394939.04868,1
122,4,2,3,10,3,3,c3_HowFace,2,open mouth?,76,F_544.jpg,1652394331.80879,1652394331.81125,161.331299772263,6.63672828674316,167.983780612946,170.084563961029,0.3,172.618843069077,0.733606338500977,173.354217042923,3,right,0.716241121292114,173.352449407578,604.47989200592,607.23989200592,1652394495.90009,1652394495.90171,1652394502.55257,1652394502.55413,1652394504.65335,1652394507.18763,1652394507.1893,1652394507.92301,1652394507.92124,1652394939.04868,0
122,4,2,3,10,4,3,c3_HowFace,1,open mouth?,78,F_692.jpg,1652394331.80879,1652394331.81125,161.331299772263,6.63672828674316,167.983780612946,170.084563961029,0.3,173.669235219955,0.516858577728271,174.19995092392,1,left,0.505000114440918,174.186093797684,604.47989200592,607.23989200592,1652394495.90009,1652394495.90171,1652394502.55257,1652394502.55413,1652394504.65335,1652394508.23802,1652394508.23962,1652394508.76874,1652394508.75488,1652394939.04868,1
122,4,2,3,10,5,3,c3_HowFace,2,open mouth?,77,F_584.jpg,1652394331.80879,1652394331.81125,161.331299772263,6.63672828674316,167.983780612946,170.084563961029,0.3,174.502879133224,0.800297737121582,175.304617872238,3,right,0.780657052993774,175.303176870346,604.47989200592,607.23989200592,1652394495.90009,1652394495.90171,1652394502.55257,1652394502.55413,1652394504.65335,1652394509.07167,1652394509.07337,1652394509.87341,1652394509.87197,1652394939.04868,0
122,4,2,3,10,6,3,c3_HowFace,1,open mouth?,73,F_403.jpg,1652394331.80879,1652394331.81125,161.331299772263,6.63672828674316,167.983780612946,170.084563961029,0.3,175.619961490631,0.550204992294312,176.171608915329,1,left,0.535326957702637,176.170166482925,604.47989200592,607.23989200592,1652394495.90009,1652394495.90171,1652394502.55257,1652394502.55413,1652394504.65335,1652394510.18875,1652394510.19037,1652394510.7404,1652394510.73896,1652394939.04868,1
122,4,2,3,10,7,3,c3_HowFace,1,open mouth?,75,F_086.jpg,1652394331.80879,1652394331.81125,161.331299772263,6.63672828674316,167.983780612946,170.084563961029,0.3,176.486951341629,0.600224256515503,177.100136985779,1,left,0.588738918304443,177.087175598145,604.47989200592,607.23989200592,1652394495.90009,1652394495.90171,1652394502.55257,1652394502.55413,1652394504.65335,1652394511.05574,1652394511.05789,1652394511.66893,1652394511.65596,1652394939.04868,1
122,4,2,3,10,8,3,c3_HowFace,2,open mouth?,79,F_648.jpg,1652394331.80879,1652394331.81125,161.331299772263,6.63672828674316,167.983780612946,170.084563961029,0.3,177.403960933685,0.766951560974121,178.172627916336,3,right,0.742920160293579,178.170912494659,604.47989200592,607.23989200592,1652394495.90009,1652394495.90171,1652394502.55257,1652394502.55413,1652394504.65335,1652394511.97275,1652394511.9744,1652394512.74142,1652394512.7397,1652394939.04868,0
122,4,2,3,11,1,4,c4_HowHand,1,pressing button?,88,H_019.jpg,1652394331.80879,1652394331.81125,178.237605085373,7.6202929019928,185.873785963058,187.974568834305,2.10078287124634,188.12462471962,0.700261354446411,188.826488008499,1,left,0.678412914276123,188.824886074066,604.47989200592,607.23989200592,1652394512.80639,1652394512.81807,1652394520.44257,1652394520.44453,1652394522.54336,1652394522.69341,1652394522.69529,1652394523.39528,1652394523.39368,1652394939.04868,1
122,4,2,3,11,2,4,c4_HowHand,2,pressing button?,87,H_024.jpg,1652394331.80879,1652394331.81125,178.237605085373,7.6202929019928,185.873785963058,187.974568834305,0.3,189.141670694351,0.883663177490234,190.026453962326,3,right,0.862972974777222,190.025333871841,604.47989200592,607.23989200592,1652394512.80639,1652394512.81807,1652394520.44257,1652394520.44453,1652394522.54336,1652394523.71046,1652394523.71196,1652394524.59524,1652394524.59412,1652394939.04868,0
122,4,2,3,11,3,4,c4_HowHand,2,pressing button?,85,H_130.jpg,1652394331.80879,1652394331.81125,178.237605085373,7.6202929019928,185.873785963058,187.974568834305,0.3,190.342118730545,0.80029821395874,191.149260034561,3,right,0.782976150512695,191.142416944504,604.47989200592,607.23989200592,1652394512.80639,1652394512.81807,1652394520.44257,1652394520.44453,1652394522.54336,1652394524.91091,1652394524.91283,1652394525.71805,1652394525.71121,1652394939.04868,0
122,4,2,3,11,4,4,c4_HowHand,1,pressing button?,83,H_502.jpg,1652394331.80879,1652394331.81125,178.237605085373,7.6202929019928,185.873785963058,187.974568834305,0.3,191.459202280045,0.650240421295166,192.116030921936,1,left,0.633718967437744,192.10944270134,604.47989200592,607.23989200592,1652394512.80639,1652394512.81807,1652394520.44257,1652394520.44453,1652394522.54336,1652394526.02799,1652394526.02958,1652394526.68482,1652394526.67823,1652394939.04868,1
122,4,2,3,11,5,4,c4_HowHand,2,pressing button?,81,H_261.jpg,1652394331.80879,1652394331.81125,178.237605085373,7.6202929019928,185.873785963058,187.974568834305,0.3,192.426228990555,0.78362512588501,193.210973968506,3,right,0.759501934051514,193.20985411644,604.47989200592,607.23989200592,1652394512.80639,1652394512.81807,1652394520.44257,1652394520.44453,1652394522.54336,1652394526.99502,1652394526.99711,1652394527.77976,1652394527.77864,1652394939.04868,0
122,4,2,3,11,6,4,c4_HowHand,1,pressing button?,86,H_332.jpg,1652394331.80879,1652394331.81125,178.237605085373,7.6202929019928,185.873785963058,187.974568834305,0.3,193.526640167236,0.766952037811279,194.299843063355,1,left,0.759322881698608,194.293592205048,604.47989200592,607.23989200592,1652394512.80639,1652394512.81807,1652394520.44257,1652394520.44453,1652394522.54336,1652394528.09543,1652394528.09713,1652394528.86863,1652394528.86238,1652394939.04868,1
122,4,2,3,11,7,4,c4_HowHand,1,pressing button?,82,H_126.jpg,1652394331.80879,1652394331.81125,178.237605085373,7.6202929019928,185.873785963058,187.974568834305,0.3,194.610377063751,0.700260400772095,195.315933933258,1,left,0.689308881759644,195.310637464523,604.47989200592,607.23989200592,1652394512.80639,1652394512.81807,1652394520.44257,1652394520.44453,1652394522.54336,1652394529.17917,1652394529.18097,1652394529.88472,1652394529.87943,1652394939.04868,1
122,4,2,3,11,8,4,c4_HowHand,1,pressing button?,84,H_483.jpg,1652394331.80879,1652394331.81125,178.237605085373,7.6202929019928,185.873785963058,187.974568834305,0.3,195.627422561646,0.850317239761353,196.483529081345,1,left,0.8421471118927,196.477739801407,604.47989200592,607.23989200592,1652394512.80639,1652394512.81807,1652394520.44257,1652394520.44453,1652394522.54336,1652394530.19621,1652394530.19839,1652394531.05232,1652394531.04653,1652394939.04868,1
122,4,2,3,12,1,2,c2_WhyHand,1,competing?,9,H_261.jpg,1652394331.80879,1652394331.81125,196.561103811264,7.08680319786072,203.663752784729,205.764536371231,2.10078358650208,205.914592256546,1.03371906280518,206.950354089737,1,left,1.01128005981445,206.948311319351,604.47989200592,607.23989200592,1652394531.12989,1652394531.13494,1652394538.23254,1652394538.23552,1652394540.33333,1652394540.48338,1652394540.48544,1652394541.51914,1652394541.5171,1652394939.04868,1
122,4,2,3,12,2,2,c2_WhyHand,2,competing?,12,H_483.jpg,1652394331.80879,1652394331.81125,196.561103811264,7.08680319786072,203.663752784729,205.764536371231,0.3,207.265095462799,1.00037312507629,208.283370008469,3,right,0.993435859680176,208.265468587875,604.47989200592,607.23989200592,1652394531.12989,1652394531.13494,1652394538.23254,1652394538.23552,1652394540.33333,1652394541.83388,1652394541.83542,1652394542.85216,1652394542.83426,1652394939.04868,0
122,4,2,3,12,3,2,c2_WhyHand,1,competing?,14,H_132.jpg,1652394331.80879,1652394331.81125,196.561103811264,7.08680319786072,203.663752784729,205.764536371231,0.3,208.582253684998,0.816972017288208,209.400197019577,1,left,0.807216167449951,209.399225702286,604.47989200592,607.23989200592,1652394531.12989,1652394531.13494,1652394538.23254,1652394538.23552,1652394540.33333,1652394543.15104,1652394543.15284,1652394543.96899,1652394543.96801,1652394939.04868,1
122,4,2,3,12,4,2,c2_WhyHand,2,competing?,10,H_126.jpg,1652394331.80879,1652394331.81125,196.561103811264,7.08680319786072,203.663752784729,205.764536371231,0.3,209.716011037827,0.967026948928833,210.6841010952,3,right,0.951995134353638,210.683037986755,604.47989200592,607.23989200592,1652394531.12989,1652394531.13494,1652394538.23254,1652394538.23552,1652394540.33333,1652394544.2848,1652394544.28642,1652394545.25289,1652394545.25183,1652394939.04868,0
122,4,2,3,12,5,2,c2_WhyHand,1,competing?,16,H_136.jpg,1652394331.80879,1652394331.81125,196.561103811264,7.08680319786072,203.663752784729,205.764536371231,0.3,210.999822130203,0.816971778869629,211.818236103058,1,left,0.799242973327637,211.816793909073,604.47989200592,607.23989200592,1652394531.12989,1652394531.13494,1652394538.23254,1652394538.23552,1652394540.33333,1652394545.56861,1652394545.57026,1652394546.38703,1652394546.38558,1652394939.04868,1
122,4,2,3,12,6,2,c2_WhyHand,2,competing?,11,H_502.jpg,1652394331.80879,1652394331.81125,196.561103811264,7.08680319786072,203.663752784729,205.764536371231,0.3,212.133578052521,1.08373832702637,213.218743076324,3,right,1.06254386901855,213.217316379547,604.47989200592,607.23989200592,1652394531.12989,1652394531.13494,1652394538.23254,1652394538.23552,1652394540.33333,1652394546.70237,1652394546.7043,1652394547.78753,1652394547.78611,1652394939.04868,0
122,4,2,3,12,7,2,c2_WhyHand,1,competing?,13,H_003.jpg,1652394331.80879,1652394331.81125,196.561103811264,7.08680319786072,203.663752784729,205.764536371231,0.3,213.534100761414,0.80029821395874,214.336114873886,1,left,0.778764963150024,214.334398975372,604.47989200592,607.23989200592,1652394531.12989,1652394531.13494,1652394538.23254,1652394538.23552,1652394540.33333,1652394548.10289,1652394548.10507,1652394548.9049,1652394548.90319,1652394939.04868,1
122,4,2,3,12,8,2,c2_WhyHand,1,competing?,15,H_170.jpg,1652394331.80879,1652394331.81125,196.561103811264,7.08680319786072,203.663752784729,205.764536371231,0.3,214.651183834076,0.70025897026062,215.352468957901,1,left,0.678677082061768,215.351442804337,604.47989200592,607.23989200592,1652394531.12989,1652394531.13494,1652394538.23254,1652394538.23552,1652394540.33333,1652394549.21997,1652394549.22197,1652394549.92126,1652394549.92023,1652394939.04868,1
122,4,2,3,13,1,1,c1_WhyFace,1,self-doubt?,29,F_544.jpg,1652394331.80879,1652394331.81125,215.418136825562,6.29984927177429,221.737159481049,223.821270933151,2.08411145210266,223.971327056885,0.700260162353516,224.672645082474,1,left,0.670140027999878,224.671587219238,604.47989200592,607.23989200592,1652394549.98693,1652394549.98836,1652394556.30595,1652394556.30946,1652394558.39006,1652394558.54012,1652394558.55229,1652394559.24143,1652394559.24038,1652394939.04868,1
122,4,2,3,13,2,1,c1_WhyFace,2,self-doubt?,27,F_086.jpg,1652394331.80879,1652394331.81125,215.418136825562,6.29984927177429,221.737159481049,223.821270933151,0.3,224.988371839523,0.866990089416504,225.856832971573,3,right,0.847621917724609,225.85536192894,604.47989200592,607.23989200592,1652394549.98693,1652394549.98836,1652394556.30595,1652394556.30946,1652394558.39006,1652394559.55716,1652394559.55881,1652394560.42562,1652394560.42415,1652394939.04868,0
122,4,2,3,13,3,1,c1_WhyFace,1,self-doubt?,25,F_798.jpg,1652394331.80879,1652394331.81125,215.418136825562,6.29984927177429,221.737159481049,223.821270933151,0.3,226.172146549225,0.616897583007812,226.799887886047,1,left,0.60683798789978,226.789044132233,604.47989200592,607.23989200592,1652394549.98693,1652394549.98836,1652394556.30595,1652394556.30946,1652394558.39006,1652394560.74094,1652394560.74262,1652394561.36868,1652394561.35783,1652394939.04868,1
122,4,2,3,13,4,1,c1_WhyFace,1,self-doubt?,26,F_111.jpg,1652394331.80879,1652394331.81125,215.418136825562,6.29984927177429,221.737159481049,223.821270933151,0.3,227.105828990936,0.733605861663818,227.8499588871,1,left,0.722251176834106,227.8394348526,604.47989200592,607.23989200592,1652394549.98693,1652394549.98836,1652394556.30595,1652394556.30946,1652394558.39006,1652394561.67462,1652394561.67681,1652394562.41875,1652394562.40822,1652394939.04868,1
122,4,2,3,13,5,1,c1_WhyFace,2,self-doubt?,31,F_774.jpg,1652394331.80879,1652394331.81125,215.418136825562,6.29984927177429,221.737159481049,223.821270933151,0.3,228.156220903397,0.566877365112305,228.732675065994,3,right,0.554527044296265,228.723098268509,604.47989200592,607.23989200592,1652394549.98693,1652394549.98836,1652394556.30595,1652394556.30946,1652394558.39006,1652394562.72501,1652394562.72679,1652394563.30146,1652394563.29189,1652394939.04868,0
122,4,2,3,13,6,1,c1_WhyFace,1,self-doubt?,28,F_754.jpg,1652394331.80879,1652394331.81125,215.418136825562,6.29984927177429,221.737159481049,223.821270933151,0.3,229.03988360405,0.65024209022522,229.699677934647,1,left,0.639066934585571,229.690125694275,604.47989200592,607.23989200592,1652394549.98693,1652394549.98836,1652394556.30595,1652394556.30946,1652394558.39006,1652394563.60867,1652394563.61072,1652394564.26847,1652394564.25891,1652394939.04868,1
122,4,2,3,13,7,1,c1_WhyFace,2,self-doubt?,32,F_128.jpg,1652394331.80879,1652394331.81125,215.418136825562,6.29984927177429,221.737159481049,223.821270933151,0.3,230.006911506653,1.16710138320923,231.175106039047,3,right,1.14443206787109,231.174012889862,604.47989200592,607.23989200592,1652394549.98693,1652394549.98836,1652394556.30595,1652394556.30946,1652394558.39006,1652394564.5757,1652394564.57738,1652394565.7439,1652394565.7428,1652394939.04868,0
122,4,2,3,13,8,1,c1_WhyFace,1,self-doubt?,30,F_584.jpg,1652394331.80879,1652394331.81125,215.418136825562,6.29984927177429,221.737159481049,223.821270933151,0.3,231.490796794891,0.883662939071655,232.375506868362,1,left,0.861409902572632,232.374459733963,604.47989200592,607.23989200592,1652394549.98693,1652394549.98836,1652394556.30595,1652394556.30946,1652394558.39006,1652394566.05959,1652394566.06114,1652394566.9443,1652394566.94325,1652394939.04868,1
122,4,2,3,14,1,3,c3_HowFace,1,looking at camera?,64,F_128.jpg,1652394331.80879,1652394331.81125,232.441151847839,8.33077621459961,240.777593364716,242.878376951218,2.10078358650208,243.028432836533,0.750279903411865,243.78251909256,1,left,0.739057779312134,243.778712739944,604.47989200592,607.23989200592,1652394567.00994,1652394567.01093,1652394575.34638,1652394575.35232,1652394577.44717,1652394577.59722,1652394577.60192,1652394578.35131,1652394578.3475,1652394939.04868,1
122,4,2,3,14,2,3,c3_HowFace,1,looking at camera?,60,F_618.jpg,1652394331.80879,1652394331.81125,232.441151847839,8.33077621459961,240.777593364716,242.878376951218,0.3,244.095496644974,0.733608245849609,244.832539072037,1,left,0.721705913543701,244.829104890823,604.47989200592,607.23989200592,1652394567.00994,1652394567.01093,1652394575.34638,1652394575.35232,1652394577.44717,1652394578.66429,1652394578.66866,1652394579.40133,1652394579.39789,1652394939.04868,1
122,4,2,3,14,3,3,c3_HowFace,1,looking at camera?,62,F_598.jpg,1652394331.80879,1652394331.81125,232.441151847839,8.33077621459961,240.777593364716,242.878376951218,0.3,245.145889987946,0.583549499511719,245.732626905441,1,left,0.569184064865112,245.729439487457,604.47989200592,607.23989200592,1652394567.00994,1652394567.01093,1652394575.34638,1652394575.35232,1652394577.44717,1652394579.71468,1652394579.71822,1652394580.30142,1652394580.29823,1652394939.04868,1
122,4,2,3,14,4,3,c3_HowFace,2,looking at camera?,63,F_743.jpg,1652394331.80879,1652394331.81125,232.441151847839,8.33077621459961,240.777593364716,242.878376951218,0.3,246.046224822998,0.616897344589233,246.664221038818,3,right,0.592854976654053,246.663122167587,604.47989200592,607.23989200592,1652394567.00994,1652394567.01093,1652394575.34638,1652394575.35232,1652394577.44717,1652394580.61501,1652394580.6184,1652394581.23301,1652394581.23191,1652394939.04868,0
122,4,2,3,14,5,3,c3_HowFace,1,looking at camera?,61,F_774.jpg,1652394331.80879,1652394331.81125,232.441151847839,8.33077621459961,240.777593364716,242.878376951218,0.3,246.979906787872,0.583550691604614,247.566608896256,1,left,0.563751935958862,247.563457479477,604.47989200592,607.23989200592,1652394567.00994,1652394567.01093,1652394575.34638,1652394575.35232,1652394577.44717,1652394581.5487,1652394581.55269,1652394582.1354,1652394582.13225,1652394939.04868,1
122,4,2,3,14,6,3,c3_HowFace,2,looking at camera?,57,F_582.jpg,1652394331.80879,1652394331.81125,232.441151847839,8.33077621459961,240.777593364716,242.878376951218,0.3,247.880242815018,1.06706380844116,248.949342002869,3,right,1.04377198219299,248.947306623459,604.47989200592,607.23989200592,1652394567.00994,1652394567.01093,1652394575.34638,1652394575.35232,1652394577.44717,1652394582.44903,1652394582.45196,1652394583.51813,1652394583.5161,1652394939.04868,0
122,4,2,3,14,7,3,c3_HowFace,2,looking at camera?,58,F_754.jpg,1652394331.80879,1652394331.81125,232.441151847839,8.33077621459961,240.777593364716,242.878376951218,0.3,249.264091959,1.10041117668152,250.366182079315,3,right,1.09064316749573,250.364503135681,604.47989200592,607.23989200592,1652394567.00994,1652394567.01093,1652394575.34638,1652394575.35232,1652394577.44717,1652394583.83288,1652394583.83542,1652394584.93497,1652394584.93329,1652394939.04868,0
122,4,2,3,14,8,3,c3_HowFace,1,looking at camera?,59,F_129.jpg,1652394331.80879,1652394331.81125,232.441151847839,8.33077621459961,240.777593364716,242.878376951218,0.3,250.681286802292,0.733607292175293,251.416079034805,1,left,0.720356941223145,251.414894094467,604.47989200592,607.23989200592,1652394567.00994,1652394567.01093,1652394575.34638,1652394575.35232,1652394577.44717,1652394585.25008,1652394585.25206,1652394585.98487,1652394585.98368,1652394939.04868,1
122,4,2,3,15,1,4,c4_HowHand,1,both hands?,123,H_167.jpg,1652394331.80879,1652394331.81125,251.498259057999,8.06366181373596,259.567934265137,261.668717851639,2.10078358650208,261.818773736954,0.850317001342773,262.682672967911,1,left,0.841581106185913,262.669090738297,604.47989200592,607.23989200592,1652394586.06705,1652394586.06881,1652394594.13672,1652394594.15237,1652394596.23751,1652394596.38756,1652394596.38937,1652394597.25146,1652394597.23788,1652394939.04868,1
122,4,2,3,15,2,4,c4_HowHand,2,both hands?,121,H_091.jpg,1652394331.80879,1652394331.81125,251.498259057999,8.06366181373596,259.567934265137,261.668717851639,0.3,262.985875835419,0.80029821395874,263.787264099121,3,right,0.786228895187378,263.786174049377,604.47989200592,607.23989200592,1652394586.06705,1652394586.06881,1652394594.13672,1652394594.15237,1652394596.23751,1652394597.55466,1652394597.55596,1652394598.35605,1652394598.35496,1652394939.04868,0
122,4,2,3,15,3,4,c4_HowHand,2,both hands?,125,H_627.jpg,1652394331.80879,1652394331.81125,251.498259057999,8.06366181373596,259.567934265137,261.668717851639,0.3,264.102958431244,0.883663654327393,264.999926080704,3,right,0.875906944274902,264.986622085571,604.47989200592,607.23989200592,1652394586.06705,1652394586.06881,1652394594.13672,1652394594.15237,1652394596.23751,1652394598.67175,1652394598.67327,1652394599.56872,1652394599.55541,1652394939.04868,0
122,4,2,3,15,4,4,c4_HowHand,1,both hands?,128,H_027.jpg,1652394331.80879,1652394331.81125,251.498259057999,8.06366181373596,259.567934265137,261.668717851639,0.3,265.303406944275,0.917008399963379,266.221872081757,1,left,0.89556097984314,266.220415344238,604.47989200592,607.23989200592,1652394586.06705,1652394586.06881,1652394594.13672,1652394594.15237,1652394596.23751,1652394599.8722,1652394599.87382,1652394600.79066,1652394600.7892,1652394939.04868,1
122,4,2,3,15,5,4,c4_HowHand,1,both hands?,122,H_111.jpg,1652394331.80879,1652394331.81125,251.498259057999,8.06366181373596,259.567934265137,261.668717851639,0.3,266.537199726105,0.750279903411865,267.288852920532,1,left,0.734286069869995,267.287479629517,604.47989200592,607.23989200592,1652394586.06705,1652394586.06881,1652394594.13672,1652394594.15237,1652394596.23751,1652394601.10599,1652394601.10772,1652394601.85764,1652394601.85627,1652394939.04868,1
122,4,2,3,15,6,4,c4_HowHand,2,both hands?,126,H_159.jpg,1652394331.80879,1652394331.81125,251.498259057999,8.06366181373596,259.567934265137,261.668717851639,0.3,267.604264726639,0.766952753067017,268.383315076828,3,right,0.759757995605469,268.371217479706,604.47989200592,607.23989200592,1652394586.06705,1652394586.06881,1652394594.13672,1652394594.15237,1652394596.23751,1652394602.17305,1652394602.17501,1652394602.9521,1652394602.94001,1652394939.04868,0
122,4,2,3,15,7,4,c4_HowHand,1,both hands?,124,H_581.jpg,1652394331.80879,1652394331.81125,251.498259057999,8.06366181373596,259.567934265137,261.668717851639,0.3,268.688002099991,1.08373737335205,269.772892942429,1,left,1.06576991081238,269.771739473343,604.47989200592,607.23989200592,1652394586.06705,1652394586.06881,1652394594.13672,1652394594.15237,1652394596.23751,1652394603.25679,1652394603.25853,1652394604.34168,1652394604.34053,1652394939.04868,1
122,4,2,3,15,8,4,c4_HowHand,1,both hands?,127,H_349.jpg,1652394331.80879,1652394331.81125,251.498259057999,8.06366181373596,259.567934265137,261.668717851639,0.3,270.088525524139,0.650241374969482,270.74984287262,1,left,0.638018846511841,270.738766899109,604.47989200592,607.23989200592,1652394586.06705,1652394586.06881,1652394594.13672,1652394594.15237,1652394596.23751,1652394604.65731,1652394604.65935,1652394605.31863,1652394605.30756,1652394939.04868,1
122,4,2,3,16,1,2,c2_WhyHand,1,self-protection?,89,H_443.jpg,1652394331.80879,1652394331.81125,270.822130432129,7.52988648414612,278.358276119232,280.459059228897,2.10078310966492,280.609114875793,0.833643674850464,281.450037946701,1,left,0.809583902359009,281.442758550644,604.47989200592,607.23989200592,1652394605.39092,1652394605.39237,1652394612.92707,1652394612.93564,1652394615.02785,1652394615.1779,1652394615.18596,1652394616.01883,1652394616.01155,1652394939.04868,1
122,4,2,3,16,2,2,c2_WhyHand,2,self-protection?,90,H_006.jpg,1652394331.80879,1652394331.81125,270.822130432129,7.52988648414612,278.358276119232,280.459059228897,0.3,281.759543647766,0.866990327835083,282.627683868408,3,right,0.843905925750732,282.626533975601,604.47989200592,607.23989200592,1652394605.39092,1652394605.39237,1652394612.92707,1652394612.93564,1652394615.02785,1652394616.32833,1652394616.33035,1652394617.19647,1652394617.19532,1652394939.04868,0
122,4,2,3,16,3,2,c2_WhyHand,1,self-protection?,91,H_581.jpg,1652394331.80879,1652394331.81125,270.822130432129,7.52988648414612,278.358276119232,280.459059228897,0.3,282.943318357468,1.41719579696655,284.366501083374,3,right,1.40674591064453,284.360514154434,604.47989200592,607.23989200592,1652394605.39092,1652394605.39237,1652394612.92707,1652394612.93564,1652394615.02785,1652394617.51211,1652394617.51386,1652394618.93529,1652394618.9293,1652394939.04868,0
122,4,2,3,16,4,2,c2_WhyHand,2,self-protection?,92,H_532.jpg,1652394331.80879,1652394331.81125,270.822130432129,7.52988648414612,278.358276119232,280.459059228897,0.3,284.677298297882,1.20044803619385,285.882663955688,3,right,1.1866409778595,285.877746334076,604.47989200592,607.23989200592,1652394605.39092,1652394605.39237,1652394612.92707,1652394612.93564,1652394615.02785,1652394619.24609,1652394619.24813,1652394620.45145,1652394620.44654,1652394939.04868,0
122,4,2,3,16,5,2,c2_WhyHand,1,self-protection?,96,H_027.jpg,1652394331.80879,1652394331.81125,270.822130432129,7.52988648414612,278.358276119232,280.459059228897,0.3,286.194530477524,0.900336980819702,287.095971097946,1,left,0.879233837127686,287.094867458344,604.47989200592,607.23989200592,1652394605.39092,1652394605.39237,1652394612.92707,1652394612.93564,1652394615.02785,1652394620.76332,1652394620.76502,1652394621.66476,1652394621.66366,1652394939.04868,1
122,4,2,3,16,6,2,c2_WhyHand,1,self-protection?,93,H_038.jpg,1652394331.80879,1652394331.81125,270.822130432129,7.52988648414612,278.358276119232,280.459059228897,0.3,287.411651124954,0.883662939071655,288.299509992599,1,left,0.866703033447266,288.295314064026,604.47989200592,607.23989200592,1652394605.39092,1652394605.39237,1652394612.92707,1652394612.93564,1652394615.02785,1652394621.98044,1652394621.98229,1652394622.8683,1652394622.8641,1652394939.04868,1
122,4,2,3,16,7,2,c2_WhyHand,2,self-protection?,95,H_332.jpg,1652394331.80879,1652394331.81125,270.822130432129,7.52988648414612,278.358276119232,280.459059228897,0.3,288.612099161148,1.01704573631287,289.63021897316,3,right,0.993201017379761,289.629144897461,604.47989200592,607.23989200592,1652394605.39092,1652394605.39237,1652394612.92707,1652394612.93564,1652394615.02785,1652394623.18089,1652394623.18529,1652394624.19901,1652394624.19793,1652394939.04868,0
122,4,2,3,16,8,2,c2_WhyHand,1,self-protection?,94,H_189.jpg,1652394331.80879,1652394331.81125,270.822130432129,7.52988648414612,278.358276119232,280.459059228897,0.3,289.945929756165,1.15042877197266,291.099378099442,1,left,1.1304018497467,291.096358528137,604.47989200592,607.23989200592,1652394605.39092,1652394605.39237,1652394612.92707,1652394612.93564,1652394615.02785,1652394624.51472,1652394624.51872,1652394625.66817,1652394625.66515,1652394939.04868,1
122,4,2,3,17,1,3,c3_HowFace,1,smiling?,118,F_759.jpg,1652394331.80879,1652394331.81125,291.163050642014,8.66895532608032,299.849623193741,301.950406541824,2.1007833480835,302.100461235046,0.60022497177124,302.70236205101,1,left,0.584743022918701,302.700686206818,604.47989200592,607.23989200592,1652394625.73184,1652394625.73466,1652394634.41841,1652394634.42029,1652394636.5192,1652394636.66925,1652394636.6712,1652394637.27115,1652394637.26948,1652394939.04868,1
122,4,2,3,17,2,3,c3_HowFace,2,smiling?,114,F_412.jpg,1652394331.80879,1652394331.81125,291.163050642014,8.66895532608032,299.849623193741,301.950406541824,0.3,303.017470588684,0.633570432662964,303.652115097046,3,right,0.614835023880005,303.651041021347,604.47989200592,607.23989200592,1652394625.73184,1652394625.73466,1652394634.41841,1652394634.42029,1652394636.5192,1652394637.58626,1652394637.5883,1652394638.2209,1652394638.21983,1652394939.04868,0
122,4,2,3,17,3,3,c3_HowFace,1,smiling?,117,F_593.jpg,1652394331.80879,1652394331.81125,291.163050642014,8.66895532608032,299.849623193741,301.950406541824,0.3,303.967825641632,0.716933727264404,304.685988893509,1,left,0.700137853622437,304.684759368896,604.47989200592,607.23989200592,1652394625.73184,1652394625.73466,1652394634.41841,1652394634.42029,1652394636.5192,1652394638.53661,1652394638.53828,1652394639.25478,1652394639.25355,1652394939.04868,1
122,4,2,3,17,4,3,c3_HowFace,2,smiling?,113,F_712.jpg,1652394331.80879,1652394331.81125,291.163050642014,8.66895532608032,299.849623193741,301.950406541824,0.3,305.001544466019,0.566877365112305,305.582673063278,3,right,0.559900999069214,305.568421831131,604.47989200592,607.23989200592,1652394625.73184,1652394625.73466,1652394634.41841,1652394634.42029,1652394636.5192,1652394639.57033,1652394639.57171,1652394640.15146,1652394640.13721,1652394939.04868,0
122,4,2,3,17,5,3,c3_HowFace,1,smiling?,115,F_695.jpg,1652394331.80879,1652394331.81125,291.163050642014,8.66895532608032,299.849623193741,301.950406541824,0.3,305.885206451416,0.650243520736694,306.536588897705,1,left,0.62732195854187,306.535449972153,604.47989200592,607.23989200592,1652394625.73184,1652394625.73466,1652394634.41841,1652394634.42029,1652394636.5192,1652394640.454,1652394640.45564,1652394641.10538,1652394641.10424,1652394939.04868,1
122,4,2,3,17,6,3,c3_HowFace,1,smiling?,119,F_139.jpg,1652394331.80879,1652394331.81125,291.163050642014,8.66895532608032,299.849623193741,301.950406541824,0.3,306.852235069275,0.666914939880371,307.521008958817,1,left,0.65475606918335,307.519150009155,604.47989200592,607.23989200592,1652394625.73184,1652394625.73466,1652394634.41841,1652394634.42029,1652394636.5192,1652394641.42102,1652394641.42263,1652394642.0898,1652394642.08794,1652394939.04868,1
122,4,2,3,17,7,3,c3_HowFace,1,smiling?,116,F_083.jpg,1652394331.80879,1652394331.81125,291.163050642014,8.66895532608032,299.849623193741,301.950406541824,0.3,307.835934391022,0.550205230712891,308.400039901733,1,left,0.541015148162842,308.386139621735,604.47989200592,607.23989200592,1652394625.73184,1652394625.73466,1652394634.41841,1652394634.42029,1652394636.5192,1652394642.40472,1652394642.40651,1652394642.96883,1652394642.95493,1652394939.04868,1
122,4,2,3,17,8,3,c3_HowFace,2,smiling?,120,F_758.jpg,1652394331.80879,1652394331.81125,291.163050642014,8.66895532608032,299.849623193741,301.950406541824,0.3,308.70292424202,0.633570432662964,309.337517967224,3,right,0.621982097625732,309.336494674683,604.47989200592,607.23989200592,1652394625.73184,1652394625.73466,1652394634.41841,1652394634.42029,1652394636.5192,1652394643.27171,1652394643.27362,1652394643.90631,1652394643.90528,1652394939.04868,0
122,4,2,3,18,1,1,c1_WhyFace,1,admiring?,1,F_593.jpg,1652394331.80879,1652394331.81125,309.403185596466,8.2187032699585,317.639590969086,319.740374078751,2.10078310966492,319.890429964066,0.766951560974121,320.666918029785,1,left,0.75108814239502,320.65738152504,604.47989200592,607.23989200592,1652394643.97197,1652394643.98539,1652394652.20838,1652394652.21043,1652394654.30916,1652394654.45922,1652394654.46114,1652394655.23571,1652394655.22617,1652394939.04868,1
122,4,2,3,18,2,1,c1_WhyFace,2,admiring?,2,F_129.jpg,1652394331.80879,1652394331.81125,309.403185596466,8.2187032699585,317.639590969086,319.740374078751,0.3,320.97416686058,1.06706523895264,322.049750080109,3,right,1.05531978607178,322.041232099533,604.47989200592,607.23989200592,1652394643.97197,1652394643.98539,1652394652.20838,1652394652.21043,1652394654.30916,1652394655.54296,1652394655.54469,1652394656.61854,1652394656.61002,1652394939.04868,0
122,4,2,3,18,3,1,c1_WhyFace,1,admiring?,5,F_759.jpg,1652394331.80879,1652394331.81125,309.403185596466,8.2187032699585,317.639590969086,319.740374078751,0.3,322.358016958237,0.616896629333496,322.976362934113,1,left,0.599640846252441,322.97491358757,604.47989200592,607.23989200592,1652394643.97197,1652394643.98539,1652394652.20838,1652394652.21043,1652394654.30916,1652394656.92681,1652394656.92884,1652394657.54515,1652394657.5437,1652394939.04868,1
122,4,2,3,18,4,1,c1_WhyFace,2,admiring?,6,F_692.jpg,1652394331.80879,1652394331.81125,309.403185596466,8.2187032699585,317.639590969086,319.740374078751,0.3,323.291698684692,1.06706380844116,324.366682043076,3,right,1.05722618103027,324.358762493134,604.47989200592,607.23989200592,1652394643.97197,1652394643.98539,1652394652.20838,1652394652.21043,1652394654.30916,1652394657.86049,1652394657.86196,1652394658.93547,1652394658.92755,1652394939.04868,0
122,4,2,3,18,5,1,c1_WhyFace,1,admiring?,4,F_779.jpg,1652394331.80879,1652394331.81125,309.403185596466,8.2187032699585,317.639590969086,319.740374078751,0.3,324.675547828674,0.700261116027832,325.377616872787,1,left,0.681205034255981,325.375808944702,604.47989200592,607.23989200592,1652394643.97197,1652394643.98539,1652394652.20838,1652394652.21043,1652394654.30916,1652394659.24434,1652394659.24597,1652394659.94641,1652394659.9446,1652394939.04868,1
122,4,2,3,18,6,1,c1_WhyFace,1,admiring?,8,F_590.jpg,1652394331.80879,1652394331.81125,309.403185596466,8.2187032699585,317.639590969086,319.740374078751,0.3,325.692593803406,1.05039238929749,326.750240077972,1,left,1.03622508049011,326.742986192703,604.47989200592,607.23989200592,1652394643.97197,1652394643.98539,1652394652.20838,1652394652.21043,1652394654.30916,1652394660.26138,1652394660.26306,1652394661.31903,1652394661.31178,1652394939.04868,1
122,4,2,3,18,7,1,c1_WhyFace,1,admiring?,7,F_648.jpg,1652394331.80879,1652394331.81125,309.403185596466,8.2187032699585,317.639590969086,319.740374078751,0.3,327.059770812988,0.733606100082397,327.795105924606,1,left,0.711788177490234,327.793376913071,604.47989200592,607.23989200592,1652394643.97197,1652394643.98539,1652394652.20838,1652394652.21043,1652394654.30916,1652394661.62856,1652394661.63039,1652394662.36389,1652394662.36217,1652394939.04868,1
122,4,2,3,18,8,1,c1_WhyFace,2,admiring?,3,F_110.jpg,1652394331.80879,1652394331.81125,309.403185596466,8.2187032699585,317.639590969086,319.740374078751,0.3,328.110162248611,0.733606338500977,328.849311103821,3,right,0.725037097930908,328.843768587112,604.47989200592,607.23989200592,1652394643.97197,1652394643.98539,1652394652.20838,1652394652.21043,1652394654.30916,1652394662.67895,1652394662.6808,1652394663.4181,1652394663.41256,1652394939.04868,0
122,4,2,3,19,1,2,c2_WhyHand,1,competing?,9,H_261.jpg,1652394331.80879,1652394331.81125,328.927133073807,6.58480501174927,335.529595603943,337.630378713608,2.10078310966492,337.780434837341,0.967026948928833,338.749198904037,1,left,0.957077980041504,338.74746178627,604.47989200592,607.23989200592,1652394663.49592,1652394663.49757,1652394670.09838,1652394670.10238,1652394672.19917,1652394672.34922,1652394672.35092,1652394673.31799,1652394673.31625,1652394939.04868,1
122,4,2,3,19,2,2,c2_WhyHand,1,competing?,15,H_170.jpg,1652394331.80879,1652394331.81125,328.927133073807,6.58480501174927,335.529595603943,337.630378713608,0.3,339.064246883392,0.600222826004028,339.666066875458,1,left,0.577286005020142,339.664469709396,604.47989200592,607.23989200592,1652394663.49592,1652394663.49757,1652394670.09838,1652394670.10238,1652394672.19917,1652394673.63304,1652394673.63501,1652394674.23486,1652394674.23326,1652394939.04868,1
122,4,2,3,19,3,2,c2_WhyHand,2,competing?,12,H_483.jpg,1652394331.80879,1652394331.81125,328.927133073807,6.58480501174927,335.529595603943,337.630378713608,0.3,339.98125623703,0.816970586776733,340.799402942657,3,right,0.798434019088745,340.798226823807,604.47989200592,607.23989200592,1652394663.49592,1652394663.49757,1652394670.09838,1652394670.10238,1652394672.19917,1652394674.55005,1652394674.55181,1652394675.36819,1652394675.36702,1652394939.04868,0
122,4,2,3,19,4,2,c2_WhyHand,1,competing?,14,H_132.jpg,1652394331.80879,1652394331.81125,328.927133073807,6.58480501174927,335.529595603943,337.630378713608,0.3,341.115011444092,0.883663177490234,342.000123968124,1,left,0.865786075592041,341.998674621582,604.47989200592,607.23989200592,1652394663.49592,1652394663.49757,1652394670.09838,1652394670.10238,1652394672.19917,1652394675.6838,1652394675.68527,1652394676.56891,1652394676.56746,1652394939.04868,1
122,4,2,3,19,5,2,c2_WhyHand,1,competing?,16,H_136.jpg,1652394331.80879,1652394331.81125,328.927133073807,6.58480501174927,335.529595603943,337.630378713608,0.3,342.31545876503,0.716935396194458,343.049949874878,1,left,0.710099935531616,343.032394161224,604.47989200592,607.23989200592,1652394663.49592,1652394663.49757,1652394670.09838,1652394670.10238,1652394672.19917,1652394676.88425,1652394676.88576,1652394677.61874,1652394677.60118,1652394939.04868,1
122,4,2,3,19,6,2,c2_WhyHand,1,competing?,13,H_003.jpg,1652394331.80879,1652394331.81125,328.927133073807,6.58480501174927,335.529595603943,337.630378713608,0.3,343.349177589417,0.750280380249023,344.100379934311,1,left,0.740424871444702,344.099457969666,604.47989200592,607.23989200592,1652394663.49592,1652394663.49757,1652394670.09838,1652394670.10238,1652394672.19917,1652394677.91797,1652394677.91943,1652394678.66917,1652394678.66825,1652394939.04868,1
122,4,2,3,19,7,2,c2_WhyHand,2,competing?,10,H_126.jpg,1652394331.80879,1652394331.81125,328.927133073807,6.58480501174927,335.529595603943,337.630378713608,0.3,344.416242351532,0.833644390106201,345.251379003525,3,right,0.818744897842407,345.249886741638,604.47989200592,607.23989200592,1652394663.49592,1652394663.49757,1652394670.09838,1652394670.10238,1652394672.19917,1652394678.98503,1652394678.98639,1652394679.82017,1652394679.81868,1652394939.04868,0
122,4,2,3,19,8,2,c2_WhyHand,2,competing?,11,H_502.jpg,1652394331.80879,1652394331.81125,328.927133073807,6.58480501174927,335.529595603943,337.630378713608,0.3,345.566672077179,0.933681726455688,346.502146949768,3,right,0.91694712638855,346.500353803635,604.47989200592,607.23989200592,1652394663.49592,1652394663.49757,1652394670.09838,1652394670.10238,1652394672.19917,1652394680.13546,1652394680.13713,1652394681.07094,1652394681.06914,1652394939.04868,0
122,4,2,3,20,1,4,c4_HowHand,1,reaching?,111,H_003.jpg,1652394331.80879,1652394331.81125,346.583718290329,10.4082937240601,357.004270782471,359.105054368973,2.10078358650208,359.255109777451,0.950355052947998,360.207266082764,1,left,0.934561014175415,360.205464830399,604.47989200592,607.23989200592,1652394681.15251,1652394681.15408,1652394691.57306,1652394691.57478,1652394693.67384,1652394693.8239,1652394693.82605,1652394694.77606,1652394694.77425,1652394939.04868,1
122,4,2,3,20,2,4,c4_HowHand,1,reaching?,110,H_364.jpg,1652394331.80879,1652394331.81125,346.583718290329,10.4082937240601,357.004270782471,359.105054368973,0.3,360.522248973846,0.68358850479126,361.207649936676,1,left,0.664992094039917,361.205837478638,604.47989200592,607.23989200592,1652394681.15251,1652394681.15408,1652394691.57306,1652394691.57478,1652394693.67384,1652394695.09104,1652394695.09297,1652394695.77644,1652394695.77463,1652394939.04868,1
122,4,2,3,20,3,4,c4_HowHand,2,reaching?,108,H_532.jpg,1652394331.80879,1652394331.81125,346.583718290329,10.4082937240601,357.004270782471,359.105054368973,0.3,361.522621622086,0.833644866943359,362.358047952652,3,right,0.812456846237183,362.356266489029,604.47989200592,607.23989200592,1652394681.15251,1652394681.15408,1652394691.57306,1652394691.57478,1652394693.67384,1652394696.09141,1652394696.0935,1652394696.92684,1652394696.92506,1652394939.04868,0
122,4,2,3,20,4,4,c4_HowHand,1,reaching?,106,H_006.jpg,1652394331.80879,1652394331.81125,346.583718290329,10.4082937240601,357.004270782471,359.105054368973,0.3,362.673052062988,1.01704549789429,363.691415061951,1,left,1.00021696090698,363.690097560883,604.47989200592,607.23989200592,1652394681.15251,1652394681.15408,1652394691.57306,1652394691.57478,1652394693.67384,1652394697.24184,1652394697.24372,1652394698.2602,1652394698.25889,1652394939.04868,1
122,4,2,3,20,5,4,c4_HowHand,2,reaching?,105,H_438.jpg,1652394331.80879,1652394331.81125,346.583718290329,10.4082937240601,357.004270782471,359.105054368973,0.3,364.006881942749,0.917009353637695,364.924987068176,3,right,0.900703907012939,364.923891296387,604.47989200592,607.23989200592,1652394681.15251,1652394681.15408,1652394691.57306,1652394691.57478,1652394693.67384,1652394698.57567,1652394698.57743,1652394699.49378,1652394699.49268,1652394939.04868,0
122,4,2,3,20,6,4,c4_HowHand,1,reaching?,107,H_007.jpg,1652394331.80879,1652394331.81125,346.583718290329,10.4082937240601,357.004270782471,359.105054368973,0.3,365.240675916672,0.716934442520142,365.965945949554,1,left,0.701428890228271,365.957610359192,604.47989200592,607.23989200592,1652394681.15251,1652394681.15408,1652394691.57306,1652394691.57478,1652394693.67384,1652394699.80946,1652394699.81115,1652394700.53473,1652394700.5264,1652394939.04868,1
122,4,2,3,20,7,4,c4_HowHand,1,reaching?,109,H_474.jpg,1652394331.80879,1652394331.81125,346.583718290329,10.4082937240601,357.004270782471,359.105054368973,0.3,366.274394741058,1.01704740524292,367.2998320961,3,right,1.00477290153503,367.291442146301,604.47989200592,607.23989200592,1652394681.15251,1652394681.15408,1652394691.57306,1652394691.57478,1652394693.67384,1652394700.84318,1652394700.84504,1652394701.86862,1652394701.86023,1652394939.04868,0
122,4,2,3,20,8,4,c4_HowHand,2,reaching?,112,H_132.jpg,1652394331.80879,1652394331.81125,346.583718290329,10.4082937240601,357.004270782471,359.105054368973,0.3,367.608224859238,0.983700037002563,368.593188037872,3,right,0.966706037521362,368.59192489624,604.47989200592,607.23989200592,1652394681.15251,1652394681.15408,1652394691.57306,1652394691.57478,1652394693.67384,1652394702.17701,1652394702.17854,1652394703.16198,1652394703.16071,1652394939.04868,0
122,4,2,3,21,1,3,c3_HowFace,1,open mouth?,73,F_403.jpg,1652394331.80879,1652394331.81125,368.675289382935,6.15669369697571,374.844256153107,376.945039978027,2.10078382492065,377.095096578598,0.666914939880371,377.766047945023,1,left,0.646377086639404,377.762011518478,604.47989200592,607.23989200592,1652394703.24408,1652394703.25207,1652394709.41305,1652394709.41878,1652394711.51383,1652394711.66389,1652394711.66902,1652394712.33484,1652394712.3308,1652394939.04868,1
122,4,2,3,21,2,3,c3_HowFace,2,open mouth?,79,F_648.jpg,1652394331.80879,1652394331.81125,368.675289382935,6.15669369697571,374.844256153107,376.945039978027,0.3,378.078796138763,0.550204992294312,378.633285036087,3,right,0.53880786895752,378.629001131058,604.47989200592,607.23989200592,1652394703.24408,1652394703.25207,1652394709.41305,1652394709.41878,1652394711.51383,1652394712.64759,1652394712.65199,1652394713.20207,1652394713.19779,1652394939.04868,0
122,4,2,3,21,3,3,c3_HowFace,1,open mouth?,74,F_776.jpg,1652394331.80879,1652394331.81125,368.675289382935,6.15669369697571,374.844256153107,376.945039978027,0.3,378.945785512924,0.45016884803772,379.399255981445,1,left,0.441354990005493,379.395954360962,604.47989200592,607.23989200592,1652394703.24408,1652394703.25207,1652394709.41305,1652394709.41878,1652394711.51383,1652394713.51457,1652394713.51852,1652394713.96804,1652394713.96474,1652394939.04868,1
122,4,2,3,21,4,3,c3_HowFace,2,open mouth?,77,F_584.jpg,1652394331.80879,1652394331.81125,368.675289382935,6.15669369697571,374.844256153107,376.945039978027,0.3,379.712738981247,0.600224256515503,380.316004981995,3,right,0.578967094421387,380.312963237762,604.47989200592,607.23989200592,1652394703.24408,1652394703.25207,1652394709.41305,1652394709.41878,1652394711.51383,1652394714.28153,1652394714.28504,1652394714.88479,1652394714.88175,1652394939.04868,0
122,4,2,3,21,5,3,c3_HowFace,1,open mouth?,80,F_844.jpg,1652394331.80879,1652394331.81125,368.675289382935,6.15669369697571,374.844256153107,376.945039978027,0.3,380.629747858047,0.68358850479126,381.316354026794,1,left,0.667036771774292,381.313336362839,604.47989200592,607.23989200592,1652394703.24408,1652394703.25207,1652394709.41305,1652394709.41878,1652394711.51383,1652394715.19854,1652394715.20237,1652394715.88514,1652394715.88213,1652394939.04868,1
122,4,2,3,21,6,3,c3_HowFace,1,open mouth?,78,F_692.jpg,1652394331.80879,1652394331.81125,368.675289382935,6.15669369697571,374.844256153107,376.945039978027,0.3,381.630120983124,0.616896867752075,382.249773015976,1,left,0.60059118270874,382.247017850876,604.47989200592,607.23989200592,1652394703.24408,1652394703.25207,1652394709.41305,1652394709.41878,1652394711.51383,1652394716.19891,1652394716.202,1652394716.81856,1652394716.81581,1652394939.04868,1
122,4,2,3,21,7,3,c3_HowFace,1,open mouth?,75,F_086.jpg,1652394331.80879,1652394331.81125,368.675289382935,6.15669369697571,374.844256153107,376.945039978027,0.3,382.563802709579,0.583549976348877,383.14953207016,1,left,0.563791990280151,383.147352685928,604.47989200592,607.23989200592,1652394703.24408,1652394703.25207,1652394709.41305,1652394709.41878,1652394711.51383,1652394717.13259,1652394717.13545,1652394717.71832,1652394717.71614,1652394939.04868,1
122,4,2,3,21,8,3,c3_HowFace,2,open mouth?,76,F_544.jpg,1652394331.80879,1652394331.81125,368.675289382935,6.15669369697571,374.844256153107,376.945039978027,0.3,383.464138021469,0.733606815338135,384.19995092392,3,right,0.712100028991699,384.197744836807,604.47989200592,607.23989200592,1652394703.24408,1652394703.25207,1652394709.41305,1652394709.41878,1652394711.51383,1652394718.03293,1652394718.0353,1652394718.76874,1652394718.76653,1652394939.04868,0
122,4,2,3,22,1,1,c1_WhyFace,1,argument?,42,F_403.jpg,1652394331.80879,1652394331.81125,384.281109800339,9.22688627243042,393.51788734436,395.618670692444,2.1007833480835,395.768726577759,0.750280857086182,396.520430078506,1,left,0.730173110961914,396.519007434845,604.47989200592,607.23989200592,1652394718.8499,1652394718.85152,1652394728.08668,1652394728.08905,1652394730.18746,1652394730.33752,1652394730.33935,1652394731.08922,1652394731.0878,1652394939.04868,1
122,4,2,3,22,2,1,c1_WhyFace,2,argument?,46,F_844.jpg,1652394331.80879,1652394331.81125,384.281109800339,9.22688627243042,393.51788734436,395.618670692444,0.3,396.835790863037,0.716934442520142,397.554297914505,3,right,0.700879812240601,397.552725305557,604.47989200592,607.23989200592,1652394718.8499,1652394718.85152,1652394728.08668,1652394728.08905,1652394730.18746,1652394731.40458,1652394731.4063,1652394732.12309,1652394732.12151,1652394939.04868,0
122,4,2,3,22,3,1,c1_WhyFace,1,argument?,41,F_712.jpg,1652394331.80879,1652394331.81125,384.281109800339,9.22688627243042,393.51788734436,395.618670692444,0.3,397.869509687424,0.850318670272827,398.721357097626,1,left,0.828870058059692,398.719828357697,604.47989200592,607.23989200592,1652394718.8499,1652394718.85152,1652394728.08668,1652394728.08905,1652394730.18746,1652394732.4383,1652394732.44038,1652394733.29015,1652394733.28862,1652394939.04868,1
122,4,2,3,22,4,1,c1_WhyFace,1,argument?,48,F_758.jpg,1652394331.80879,1652394331.81125,384.281109800339,9.22688627243042,393.51788734436,395.618670692444,0.3,399.036612024307,0.866989850997925,399.905244102478,1,left,0.846176147460938,399.903601875305,604.47989200592,607.23989200592,1652394718.8499,1652394718.85152,1652394728.08668,1652394728.08905,1652394730.18746,1652394733.6054,1652394733.60717,1652394734.47403,1652394734.47239,1652394939.04868,1
122,4,2,3,22,5,1,c1_WhyFace,2,argument?,45,F_433.jpg,1652394331.80879,1652394331.81125,384.281109800339,9.22688627243042,393.51788734436,395.618670692444,0.3,400.22038649559,0.733607530593872,400.955584039688,3,right,0.717258930206299,400.953994026184,604.47989200592,607.23989200592,1652394718.8499,1652394718.85152,1652394728.08668,1652394728.08905,1652394730.18746,1652394734.78918,1652394734.79085,1652394735.52437,1652394735.52278,1652394939.04868,0
122,4,2,3,22,6,1,c1_WhyFace,1,argument?,43,F_716.jpg,1652394331.80879,1652394331.81125,384.281109800339,9.22688627243042,393.51788734436,395.618670692444,0.3,401.270778646469,0.616897344589233,401.888730993271,1,left,0.594470024108887,401.887675991058,604.47989200592,607.23989200592,1652394718.8499,1652394718.85152,1652394728.08668,1652394728.08905,1652394730.18746,1652394735.83957,1652394735.84131,1652394736.45752,1652394736.45647,1652394939.04868,1
122,4,2,3,22,7,1,c1_WhyFace,2,argument?,44,F_139.jpg,1652394331.80879,1652394331.81125,384.281109800339,9.22688627243042,393.51788734436,395.618670692444,0.3,402.204460372925,0.850316762924194,403.066533079147,3,right,0.842048168182373,403.054777135849,604.47989200592,607.23989200592,1652394718.8499,1652394718.85152,1652394728.08668,1652394728.08905,1652394730.18746,1652394736.77325,1652394736.77474,1652394737.63532,1652394737.62357,1652394939.04868,0
122,4,2,3,22,8,1,c1_WhyFace,1,argument?,47,F_743.jpg,1652394331.80879,1652394331.81125,384.281109800339,9.22688627243042,393.51788734436,395.618670692444,0.3,403.371561517715,1.13375663757324,404.516393890381,1,left,1.1204469203949,404.505318155289,604.47989200592,607.23989200592,1652394718.8499,1652394718.85152,1652394728.08668,1652394728.08905,1652394730.18746,1652394737.94035,1652394737.9421,1652394739.08518,1652394739.07411,1652394939.04868,1
122,4,2,3,23,1,2,c2_WhyHand,1,helping?,39,H_024.jpg,1652394331.80879,1652394331.81125,404.588682880402,7.13933706283569,411.741350402832,413.842133989334,2.10078358650208,413.992189159393,1.0170464515686,415.010385980606,1,left,0.995190143585205,415.009235610962,604.47989200592,607.23989200592,1652394739.15747,1652394739.15907,1652394746.31014,1652394746.31208,1652394748.41092,1652394748.56098,1652394748.56288,1652394749.57917,1652394749.57802,1652394939.04868,1
122,4,2,3,23,2,2,c2_WhyHand,1,helping?,36,H_349.jpg,1652394331.80879,1652394331.81125,404.588682880402,7.13933706283569,411.741350402832,413.842133989334,0.3,415.326019515991,0.566878080368042,415.899324884415,1,left,0.554053068161011,415.892897596359,604.47989200592,607.23989200592,1652394739.15747,1652394739.15907,1652394746.31014,1652394746.31208,1652394748.41092,1652394749.89481,1652394749.89682,1652394750.46811,1652394750.46169,1652394939.04868,1
122,4,2,3,23,3,2,c2_WhyHand,1,helping?,38,H_077.jpg,1652394331.80879,1652394331.81125,404.588682880402,7.13933706283569,411.741350402832,413.842133989334,0.3,416.209683170319,0.583550691604614,416.800126066208,1,left,0.570938110351562,416.793233861923,604.47989200592,607.23989200592,1652394739.15747,1652394739.15907,1652394746.31014,1652394746.31208,1652394748.41092,1652394750.77847,1652394750.78017,1652394751.36892,1652394751.36202,1652394939.04868,1
122,4,2,3,23,4,2,c2_WhyHand,1,helping?,37,H_474.jpg,1652394331.80879,1652394331.81125,404.588682880402,7.13933706283569,411.741350402832,413.842133989334,0.3,417.110018959045,0.816971302032471,417.933088054657,1,left,0.799198865890503,417.926990261078,604.47989200592,607.23989200592,1652394739.15747,1652394739.15907,1652394746.31014,1652394746.31208,1652394748.41092,1652394751.67881,1652394751.68053,1652394752.50188,1652394752.49578,1652394939.04868,1
122,4,2,3,23,5,2,c2_WhyHand,2,helping?,33,H_091.jpg,1652394331.80879,1652394331.81125,404.588682880402,7.13933706283569,411.741350402832,413.842133989334,0.3,418.243774881363,0.0166764259338379,418.266405096054,1,left,0.000235080718994141,418.260451307297,604.47989200592,607.23989200592,1652394739.15747,1652394739.15907,1652394746.31014,1652394746.31208,1652394748.41092,1652394752.81256,1652394752.81429,1652394752.83519,1652394752.82924,1652394939.04868,0
122,4,2,3,23,6,2,c2_WhyHand,2,helping?,35,H_159.jpg,1652394331.80879,1652394331.81125,404.588682880402,7.13933706283569,411.741350402832,413.842133989334,0.3,418.577232589722,1.40052270889282,419.983402957916,3,right,1.38118600845337,419.977755298615,604.47989200592,607.23989200592,1652394739.15747,1652394739.15907,1652394746.31014,1652394746.31208,1652394748.41092,1652394753.14602,1652394753.14831,1652394754.55219,1652394754.54654,1652394939.04868,0
122,4,2,3,23,7,2,c2_WhyHand,1,helping?,34,H_111.jpg,1652394331.80879,1652394331.81125,404.588682880402,7.13933706283569,411.741350402832,413.842133989334,0.3,420.294540395737,1.01704549789429,421.312659015656,1,left,0.995529890060425,421.311585893631,604.47989200592,607.23989200592,1652394739.15747,1652394739.15907,1652394746.31014,1652394746.31208,1652394748.41092,1652394754.86333,1652394754.8653,1652394755.88145,1652394755.88037,1652394939.04868,1
122,4,2,3,23,8,2,c2_WhyHand,2,helping?,40,H_012.jpg,1652394331.80879,1652394331.81125,404.588682880402,7.13933706283569,411.741350402832,413.842133989334,0.3,421.628370275497,0.950354099273682,422.579775085449,3,right,0.927623987197876,422.578724374771,604.47989200592,607.23989200592,1652394739.15747,1652394739.15907,1652394746.31014,1652394746.31208,1652394748.41092,1652394756.19716,1652394756.19886,1652394757.14856,1652394757.14751,1652394939.04868,0
122,4,2,3,24,1,4,c4_HowHand,1,both hands?,122,H_111.jpg,1652394331.80879,1652394331.81125,422.64541601181,7.15264487266541,429.814755907059,431.915539970398,2.10078406333923,432.06559633255,0.616896152496338,432.683801879883,1,left,0.5938880443573,432.682492485046,604.47989200592,607.23989200592,1652394757.21421,1652394757.21795,1652394764.38354,1652394764.38558,1652394766.48433,1652394766.63439,1652394766.63647,1652394767.25259,1652394767.25128,1652394939.04868,1
122,4,2,3,24,2,4,c4_HowHand,1,both hands?,128,H_027.jpg,1652394331.80879,1652394331.81125,422.64541601181,7.15264487266541,429.814755907059,431.915539970398,0.3,432.999277820587,0.800297737121582,433.801285972595,1,left,0.777827024459839,433.799575557709,604.47989200592,607.23989200592,1652394757.21421,1652394757.21795,1652394764.38354,1652394764.38558,1652394766.48433,1652394767.56807,1652394767.56967,1652394768.37007,1652394768.36836,1652394939.04868,1
122,4,2,3,24,3,4,c4_HowHand,2,both hands?,121,H_091.jpg,1652394331.80879,1652394331.81125,422.64541601181,7.15264487266541,429.814755907059,431.915539970398,0.3,434.116361370087,0.733606576919556,434.851788034439,3,right,0.715137004852295,434.849967947006,604.47989200592,607.23989200592,1652394757.21421,1652394757.21795,1652394764.38354,1652394764.38558,1652394766.48433,1652394768.68515,1652394768.68684,1652394769.42058,1652394769.41876,1652394939.04868,0
122,4,2,3,24,4,4,c4_HowHand,1,both hands?,123,H_167.jpg,1652394331.80879,1652394331.81125,422.64541601181,7.15264487266541,429.814755907059,431.915539970398,0.3,435.166753282547,0.73360538482666,435.916048994064,1,left,0.726180076599121,435.900358667374,604.47989200592,607.23989200592,1652394757.21421,1652394757.21795,1652394764.38354,1652394764.38558,1652394766.48433,1652394769.73554,1652394769.73735,1652394770.48484,1652394770.46915,1652394939.04868,1
122,4,2,3,24,5,4,c4_HowHand,1,both hands?,124,H_581.jpg,1652394331.80879,1652394331.81125,422.64541601181,7.15264487266541,429.814755907059,431.915539970398,0.3,436.217144002914,1.28381156921387,437.502625932693,1,left,1.26886296272278,437.500955572128,604.47989200592,607.23989200592,1652394757.21421,1652394757.21795,1652394764.38354,1652394764.38558,1652394766.48433,1652394770.78593,1652394770.78776,1652394772.07141,1652394772.06974,1652394939.04868,1
122,4,2,3,24,6,4,c4_HowHand,2,both hands?,126,H_159.jpg,1652394331.80879,1652394331.81125,422.64541601181,7.15264487266541,429.814755907059,431.915539970398,0.3,437.817740907669,0.683587551116943,438.502378931046,3,right,0.670410871505737,438.501328458786,604.47989200592,607.23989200592,1652394757.21421,1652394757.21795,1652394764.38354,1652394764.38558,1652394766.48433,1652394772.38653,1652394772.38873,1652394773.07117,1652394773.07012,1652394939.04868,0
122,4,2,3,24,7,4,c4_HowHand,1,both hands?,127,H_349.jpg,1652394331.80879,1652394331.81125,422.64541601181,7.15264487266541,429.814755907059,431.915539970398,0.3,438.818114032745,0.566877841949463,439.386836042404,1,left,0.551429033279419,439.384991874695,604.47989200592,607.23989200592,1652394757.21421,1652394757.21795,1652394764.38354,1652394764.38558,1652394766.48433,1652394773.3869,1652394773.38903,1652394773.95563,1652394773.95378,1652394939.04868,1
122,4,2,3,24,8,4,c4_HowHand,2,both hands?,125,H_627.jpg,1652394331.80879,1652394331.81125,422.64541601181,7.15264487266541,429.814755907059,431.915539970398,0.3,439.70177649498,0.900336265563965,440.603785982132,3,right,0.886839151382446,440.602112760544,604.47989200592,607.23989200592,1652394757.21421,1652394757.21795,1652394764.38354,1652394764.38558,1652394766.48433,1652394774.27057,1652394774.27237,1652394775.17257,1652394775.1709,1652394939.04868,0
122,4,2,3,25,1,2,c2_WhyHand,1,healthy?,18,H_438.jpg,1652394331.80879,1652394331.81125,440.68547700882,6.62947702407837,447.321284999847,449.422068824768,2.10078382492065,449.57212518692,1.10040950775146,450.682660093308,1,left,1.0761501789093,450.672534694672,604.47989200592,607.23989200592,1652394775.25427,1652394775.25601,1652394781.89007,1652394781.90261,1652394783.99086,1652394784.14091,1652394784.15261,1652394785.25145,1652394785.24132,1652394939.04868,1
122,4,2,3,25,2,2,c2_WhyHand,1,healthy?,23,H_364.jpg,1652394331.80879,1652394331.81125,440.68547700882,6.62947702407837,447.321284999847,449.422068824768,0.3,450.989320030212,1.25046563148499,452.249315013886,1,left,1.24353098869324,452.239785661697,604.47989200592,607.23989200592,1652394775.25427,1652394775.25601,1652394781.89007,1652394781.90261,1652394783.99086,1652394785.55811,1652394785.55968,1652394786.8181,1652394786.80857,1652394939.04868,1
122,4,2,3,25,3,2,c2_WhyHand,1,healthy?,17,H_362.jpg,1652394331.80879,1652394331.81125,440.68547700882,6.62947702407837,447.321284999847,449.422068824768,0.3,452.556570997238,0.866989612579346,453.425003042221,1,left,0.846096992492676,453.423560609818,604.47989200592,607.23989200592,1652394775.25427,1652394775.25601,1652394781.89007,1652394781.90261,1652394783.99086,1652394787.12536,1652394787.12685,1652394787.99379,1652394787.99235,1652394939.04868,1
122,4,2,3,25,4,2,c2_WhyHand,2,healthy?,24,H_019.jpg,1652394331.80879,1652394331.81125,440.68547700882,6.62947702407837,447.321284999847,449.422068824768,0.3,453.74034570694,1.65061402320862,455.400253047943,3,right,1.6426260471344,455.390959730148,604.47989200592,607.23989200592,1652394775.25427,1652394775.25601,1652394781.89007,1652394781.90261,1652394783.99086,1652394788.30913,1652394788.3107,1652394789.96904,1652394789.95975,1652394939.04868,0
122,4,2,3,25,5,2,c2_WhyHand,1,healthy?,19,H_167.jpg,1652394331.80879,1652394331.81125,440.68547700882,6.62947702407837,447.321284999847,449.422068824768,0.3,455.707745542526,0.66691517829895,456.383007040024,1,left,0.659302949905396,456.374660720825,604.47989200592,607.23989200592,1652394775.25427,1652394775.25601,1652394781.89007,1652394781.90261,1652394783.99086,1652394790.27653,1652394790.27811,1652394790.9518,1652394790.94345,1652394939.04868,1
122,4,2,3,25,6,2,c2_WhyHand,2,healthy?,20,H_007.jpg,1652394331.80879,1652394331.81125,440.68547700882,6.62947702407837,447.321284999847,449.422068824768,0.3,456.69144534111,1.20044898986816,457.899312009811,3,right,1.18981599807739,457.891894330978,604.47989200592,607.23989200592,1652394775.25427,1652394775.25601,1652394781.89007,1652394781.90261,1652394783.99086,1652394791.26023,1652394791.26195,1652394792.4681,1652394792.46068,1652394939.04868,0
122,4,2,3,25,7,2,c2_WhyHand,1,healthy?,21,H_627.jpg,1652394331.80879,1652394331.81125,440.68547700882,6.62947702407837,447.321284999847,449.422068824768,0.3,458.208678474426,1.05039119720459,459.260812034607,1,left,1.02889800071716,459.259069671631,604.47989200592,607.23989200592,1652394775.25427,1652394775.25601,1652394781.89007,1652394781.90261,1652394783.99086,1652394792.77747,1652394792.77905,1652394793.8296,1652394793.82786,1652394939.04868,1
122,4,2,3,25,8,2,c2_WhyHand,2,healthy?,22,H_130.jpg,1652394331.80879,1652394331.81125,440.68547700882,6.62947702407837,447.321284999847,449.422068824768,0.3,459.575854530334,0.933682441711426,460.510524024963,3,right,0.912638902664185,460.509536972046,604.47989200592,607.23989200592,1652394775.25427,1652394775.25601,1652394781.89007,1652394781.90261,1652394783.99086,1652394794.14464,1652394794.14642,1652394795.07931,1652394795.07833,1652394939.04868,0
122,4,2,3,26,1,4,c4_HowHand,1,pressing button?,82,H_126.jpg,1652394331.80879,1652394331.81125,460.592900743485,5.77606534957886,466.378392448425,468.47917555809,2.10078310966492,468.629231443405,0.96702766418457,469.599359025955,1,left,0.944668054580688,469.59625910759,604.47989200592,607.23989200592,1652394795.16169,1652394795.16275,1652394800.94718,1652394800.95232,1652394803.04796,1652394803.19802,1652394803.20233,1652394804.16815,1652394804.16505,1652394939.04868,1
122,4,2,3,26,2,4,c4_HowHand,2,pressing button?,85,H_130.jpg,1652394331.80879,1652394331.81125,460.592900743485,5.77606534957886,466.378392448425,468.47917555809,0.3,469.913043251038,0.917009353637695,470.832665910721,3,right,0.896014928817749,470.830052604675,604.47989200592,607.23989200592,1652394795.16169,1652394795.16275,1652394800.94718,1652394800.95232,1652394803.04796,1652394804.48183,1652394804.4847,1652394805.40145,1652394805.39884,1652394939.04868,0
122,4,2,3,26,3,4,c4_HowHand,1,pressing button?,84,H_483.jpg,1652394331.80879,1652394331.81125,460.592900743485,5.77606534957886,466.378392448425,468.47917555809,0.3,471.14683722496,1.38384866714478,472.532579889297,1,left,1.3732647895813,472.530685892105,604.47989200592,607.23989200592,1652394795.16169,1652394795.16275,1652394800.94718,1652394800.95232,1652394803.04796,1652394805.71563,1652394805.71823,1652394807.10137,1652394807.09947,1652394939.04868,1
122,4,2,3,26,4,4,c4_HowHand,2,pressing button?,87,H_024.jpg,1652394331.80879,1652394331.81125,460.592900743485,5.77606534957886,466.378392448425,468.47917555809,0.3,472.847470989227,0.933681964874268,473.783039083481,3,right,0.923663854598999,473.781152954102,604.47989200592,607.23989200592,1652394795.16169,1652394795.16275,1652394800.94718,1652394800.95232,1652394803.04796,1652394807.41626,1652394807.41877,1652394808.35183,1652394808.34994,1652394939.04868,0
122,4,2,3,26,5,4,c4_HowHand,1,pressing button?,86,H_332.jpg,1652394331.80879,1652394331.81125,460.592900743485,5.77606534957886,466.378392448425,468.47917555809,0.3,474.097936620712,1.01704716682434,475.116520872116,1,left,1.00387096405029,475.114983787537,604.47989200592,607.23989200592,1652394795.16169,1652394795.16275,1652394800.94718,1652394800.95232,1652394803.04796,1652394808.66673,1652394808.66893,1652394809.68531,1652394809.68377,1652394939.04868,1
122,4,2,3,26,6,4,c4_HowHand,1,pressing button?,88,H_019.jpg,1652394331.80879,1652394331.81125,460.592900743485,5.77606534957886,466.378392448425,468.47917555809,0.3,475.431767692566,0.950355291366577,476.38314699173,1,left,0.927696943283081,476.382122983933,604.47989200592,607.23989200592,1652394795.16169,1652394795.16275,1652394800.94718,1652394800.95232,1652394803.04796,1652394810.00056,1652394810.00243,1652394810.95194,1652394810.95091,1652394939.04868,1
122,4,2,3,26,7,4,c4_HowHand,2,pressing button?,81,H_261.jpg,1652394331.80879,1652394331.81125,460.592900743485,5.77606534957886,466.378392448425,468.47917555809,0.3,476.698906888962,0.833644390106201,477.533613910675,3,right,0.821823835372925,477.532551279068,604.47989200592,607.23989200592,1652394795.16169,1652394795.16275,1652394800.94718,1652394800.95232,1652394803.04796,1652394811.2677,1652394811.26917,1652394812.1024,1652394812.10134,1652394939.04868,0
122,4,2,3,26,8,4,c4_HowHand,1,pressing button?,83,H_502.jpg,1652394331.80879,1652394331.81125,460.592900743485,5.77606534957886,466.378392448425,468.47917555809,0.3,477.849336614609,0.70026159286499,478.551295986176,1,left,0.679588079452515,478.549598207474,604.47989200592,607.23989200592,1652394795.16169,1652394795.16275,1652394800.94718,1652394800.95232,1652394803.04796,1652394812.41813,1652394812.41985,1652394813.12009,1652394813.11839,1652394939.04868,1
122,4,2,3,27,1,3,c3_HowFace,1,looking at camera?,60,F_618.jpg,1652394331.80879,1652394331.81125,478.632961978912,5.26596093177795,483.918266048431,486.00237654686,2.08411049842834,486.152433385849,0.800297737121582,486.954190006256,1,left,0.768615007400513,486.952731122971,604.47989200592,607.23989200592,1652394813.20175,1652394813.20329,1652394818.48706,1652394818.48907,1652394820.57117,1652394820.72122,1652394820.73535,1652394821.52298,1652394821.52152,1652394939.04868,1
122,4,2,3,27,2,3,c3_HowFace,2,looking at camera?,58,F_754.jpg,1652394331.80879,1652394331.81125,478.632961978912,5.26596093177795,483.918266048431,486.00237654686,0.3,487.269515504837,0.716934680938721,487.988220920563,3,right,0.699574947357178,487.986450185776,604.47989200592,607.23989200592,1652394813.20175,1652394813.20329,1652394818.48706,1652394818.48907,1652394820.57117,1652394821.8383,1652394821.8398,1652394822.55701,1652394822.55524,1652394939.04868,0
122,4,2,3,27,3,3,c3_HowFace,1,looking at camera?,59,F_129.jpg,1652394331.80879,1652394331.81125,478.632961978912,5.26596093177795,483.918266048431,486.00237654686,0.3,488.303233613968,0.566879510879517,488.87120007515,1,left,0.545886993408203,488.870113124847,604.47989200592,607.23989200592,1652394813.20175,1652394813.20329,1652394818.48706,1652394818.48907,1652394820.57117,1652394822.87202,1652394822.8741,1652394823.43999,1652394823.4389,1652394939.04868,1
122,4,2,3,27,4,3,c3_HowFace,1,looking at camera?,62,F_598.jpg,1652394331.80879,1652394331.81125,478.632961978912,5.26596093177795,483.918266048431,486.00237654686,0.3,489.186897745132,0.650242328643799,489.838572969437,1,left,0.632537126541138,489.837140073776,604.47989200592,607.23989200592,1652394813.20175,1652394813.20329,1652394818.48706,1652394818.48907,1652394820.57117,1652394823.75569,1652394823.75733,1652394824.40736,1652394824.40593,1652394939.04868,1
122,4,2,3,27,5,3,c3_HowFace,1,looking at camera?,64,F_128.jpg,1652394331.80879,1652394331.81125,478.632961978912,5.26596093177795,483.918266048431,486.00237654686,0.3,490.153925170898,0.733607053756714,490.888583889008,1,left,0.719279050827026,490.887532224655,604.47989200592,607.23989200592,1652394813.20175,1652394813.20329,1652394818.48706,1652394818.48907,1652394820.57117,1652394824.72271,1652394824.72438,1652394825.45737,1652394825.45632,1652394939.04868,1
122,4,2,3,27,6,3,c3_HowFace,2,looking at camera?,57,F_582.jpg,1652394331.80879,1652394331.81125,478.632961978912,5.26596093177795,483.918266048431,486.00237654686,0.3,491.204316606522,1.31715703010559,492.522815933228,1,left,1.29433488845825,492.521473636627,604.47989200592,607.23989200592,1652394813.20175,1652394813.20329,1652394818.48706,1652394818.48907,1652394820.57117,1652394825.77311,1652394825.77487,1652394827.0916,1652394827.09026,1652394939.04868,0
122,4,2,3,27,7,3,c3_HowFace,1,looking at camera?,61,F_774.jpg,1652394331.80879,1652394331.81125,478.632961978912,5.26596093177795,483.918266048431,486.00237654686,0.3,492.838259687424,0.866990327835083,493.706284036636,1,left,0.847326993942261,493.705250015259,604.47989200592,607.23989200592,1652394813.20175,1652394813.20329,1652394818.48706,1652394818.48907,1652394820.57117,1652394827.40705,1652394827.40869,1652394828.27507,1652394828.27404,1652394939.04868,1
122,4,2,3,27,8,3,c3_HowFace,2,looking at camera?,63,F_743.jpg,1652394331.80879,1652394331.81125,478.632961978912,5.26596093177795,483.918266048431,486.00237654686,0.3,494.022033443451,0.716934442520142,494.740050067902,3,right,0.698385000228882,494.738967885971,604.47989200592,607.23989200592,1652394813.20175,1652394813.20329,1652394818.48706,1652394818.48907,1652394820.57117,1652394828.59082,1652394828.59225,1652394829.30884,1652394829.30776,1652394939.04868,0
