onset	duration	trial_type	pmod_accuracy
6.15682005882263	0.2	cue_valid	1
16.910829782486	0.2	cue_valid	1
24.3802831172943	0.2	cue_valid	1
31.5162763595581	0.2	cue_valid	1
54.1580536365509	0.2	cue_valid	1
58.0261623859406	0.2	cue_valid	1
64.06174659729	0.2	cue_valid	1
67.3296327590942	0.2	cue_valid	1
71.4978537559509	0.2	cue_valid	1
83.7357506752014	0.2	cue_valid	1
91.2052023410797	0.2	cue_valid	1
96.0736856460571	0.2	cue_valid	1
100.041831970215	0.2	cue_valid	1
114.447203636169	0.2	cue_valid	1
121.916657924652	0.2	cue_valid	1
148.493233442307	0.2	cue_valid	1
159.197226285934	0.2	cue_valid	1
174.136129140854	0.2	cue_valid	1
178.304351568222	0.2	cue_valid	1
182.27249789238	0.2	cue_valid	1
201.513005971909	0.2	cue_valid	1
208.982457876205	0.2	cue_valid	1
217.819086313248	0.2	cue_valid	1
221.086971998215	0.2	cue_valid	1
226.655716180801	0.2	cue_valid	1
234.625355482101	0.2	cue_valid	1
238.193351745605	0.2	cue_valid	1
243.962169885635	0.2	cue_valid	1
262.268996953964	0.2	cue_valid	1
268.137851715088	0.2	cue_valid	1
274.807006120682	0.2	cue_valid	1
278.57507610321	0.2	cue_valid	1
286.044529676437	0.2	cue_valid	1
289.0123026371	0.2	cue_valid	1
308.319502830505	0.2	cue_valid	1
322.824912548065	0.2	cue_valid	1
337.697125196457	0.2	cue_valid	1
350.501900672913	0.2	cue_valid	1
353.769786119461	0.2	cue_valid	1
379.812830686569	0.2	cue_valid	1
387.28228354454	0.2	cue_valid	1
398.8199198246	0.2	cue_valid	1
410.724358797073	0.2	cue_valid	1
422.628797292709	0.2	cue_valid	1
441.402465343475	0.2	cue_valid	1
469.046107769012	0.2	cue_valid	1
481.684155225754	0.2	cue_valid	1
489.153605937958	0.2	cue_valid	1
494.622313022614	0.2	cue_valid	1
499.190682649612	0.2	cue_valid	1
510.828356742859	0.2	cue_valid	1
514.096241950989	0.2	cue_valid	1
526.534214496613	0.2	cue_valid	1
532.903255224228	0.2	cue_valid	1
536.671326637268	0.2	cue_valid	1
541.139659643173	0.2	cue_valid	1
544.207470655441	0.2	cue_valid	1
548.975916147232	0.2	cue_valid	1
567.049322843552	0.2	cue_valid	1
572.417991399765	0.2	cue_valid	1
583.755550861359	0.2	cue_valid	1
9.57476139068604	0.2	cue_invalid	1
12.6425721645355	0.2	cue_invalid	1
28.4484655857086	0.2	cue_invalid	1
36.7849085330963	0.2	cue_invalid	1
41.25324177742	0.2	cue_invalid	0
44.5211269855499	0.2	cue_invalid	1
50.890168428421	0.2	cue_invalid	1
61.0939729213715	0.2	cue_invalid	1
78.3670814037323	0.2	cue_invalid	1
104.810276031494	0.2	cue_invalid	1
110.278982639313	0.2	cue_invalid	1
129.3861079216	0.2	cue_invalid	1
136.755522727966	0.2	cue_invalid	1
141.02378153801	0.2	cue_invalid	1
151.861155986786	0.2	cue_invalid	1
154.928966999054	0.2	cue_invalid	1
166.666678190231	0.2	cue_invalid	1
185.440344810486	0.2	cue_invalid	1
191.209163427353	0.2	cue_invalid	1
194.176936864853	0.2	cue_invalid	1
198.445195436478	0.2	cue_invalid	1
213.550828933716	0.2	cue_invalid	1
251.431621551514	0.2	cue_invalid	1
258.901072740555	0.2	cue_invalid	1
292.880411863327	0.2	cue_invalid	1
300.349864959717	0.2	cue_invalid	1
312.2876496315	0.2	cue_invalid	1
315.355459928513	0.2	cue_invalid	1
327.993506193161	0.2	cue_invalid	1
331.561503648758	0.2	cue_invalid	1
334.529276609421	0.2	cue_invalid	1
341.265122652054	0.2	cue_invalid	1
345.133231163025	0.2	cue_invalid	1
358.338155984879	0.2	cue_invalid	1
361.706078529358	0.2	cue_invalid	1
369.175530433655	0.2	cue_invalid	1
373.843939065933	0.2	cue_invalid	1
391.350467443466	0.2	cue_invalid	1
404.488701105118	0.2	cue_invalid	1
407.656547546387	0.2	cue_invalid	1
414.392394304276	0.2	cue_invalid	1
418.660651445389	0.2	cue_invalid	1
429.297951459885	0.2	cue_invalid	1
432.465800046921	0.2	cue_invalid	1
435.93375992775	0.2	cue_invalid	1
444.970463275909	0.2	cue_invalid	1
448.538459777832	0.2	cue_invalid	1
453.607017040253	0.2	cue_invalid	1
461.576655387878	0.2	cue_invalid	1
474.21470284462	0.2	cue_invalid	1
506.059909820557	0.2	cue_invalid	1
521.565693616867	0.2	cue_invalid	1
552.844024896622	0.2	cue_invalid	1
560.313477516174	0.2	cue_invalid	1
563.381288290024	0.2	cue_invalid	1
579.08714556694	0.2	cue_invalid	1
591.225004673004	0.2	cue_invalid	1
594.692964792252	0.2	cue_invalid	1
599.161297798157	0.2	cue_invalid	1
6.37356758117676	0.400514364242554	target_response	1
9.77483630180359	0.35727858543396	target_response	1
12.8426465988159	0.328657388687134	target_response	1
17.1109046936035	0.347257375717163	target_response	1
24.5803570747375	0.400811910629272	target_response	1
28.6485407352448	0.410705327987671	target_response	1
31.7163519859314	0.437767028808594	target_response	1
36.984982252121	0.363098859786987	target_response	1
41.4533152580261	0.367773771286011	target_response	0
44.7212014198303	0.389851570129395	target_response	1
51.0902438163757	0.368929147720337	target_response	1
54.3581292629242	0.316770792007446	target_response	1
58.2262380123138	0.326349020004272	target_response	1
61.2940487861633	0.380255222320557	target_response	1
64.261821269989	0.305287837982178	target_response	1
67.529708147049	0.292803764343262	target_response	1
71.6979291439056	0.359257936477661	target_response	1
78.5671565532684	0.354522466659546	target_response	1
83.9358258247375	0.339876174926758	target_response	1
91.4052777290344	0.294994354248047	target_response	1
96.2737600803375	0.294703006744385	target_response	1
100.241905450821	0.273813486099243	target_response	1
105.010351657867	0.361029386520386	target_response	1
110.479058265686	0.346264839172363	target_response	1
114.647279024124	0.325273990631104	target_response	1
122.116730213165	0.384800672531128	target_response	1
129.586183071136	0.380002021789551	target_response	1
136.955591917038	0.333534002304077	target_response	1
141.223856210709	0.350696802139282	target_response	1
148.693308830261	0.365010261535645	target_response	1
152.061230659485	0.369553327560425	target_response	1
155.129041433334	0.358702659606934	target_response	1
159.397299766541	0.332816123962402	target_response	1
166.866752624512	0.391816377639771	target_response	1
174.336205005646	0.340903997421265	target_response	1
178.504425764084	0.341267347335815	target_response	1
182.472571611404	0.361589431762695	target_response	1
185.640421152115	0.375004768371582	target_response	1
191.409237623215	0.405940294265747	target_response	1
194.37701177597	0.394759178161621	target_response	1
198.645269632339	0.323789358139038	target_response	1
201.713080644608	0.370221376419067	target_response	1
209.182532787323	0.353628158569336	target_response	1
213.75090265274	0.364120244979858	target_response	1
218.019160747528	0.340955257415771	target_response	1
221.287046432495	0.34852147102356	target_response	1
226.855789661407	0.33661937713623	target_response	1
234.825429201126	0.424189805984497	target_response	1
238.393426179886	0.432965755462646	target_response	1
244.162244081497	0.388890981674194	target_response	1
251.631698131561	0.377385854721069	target_response	1
259.101148605347	0.366510391235352	target_response	1
262.469072341919	0.366409540176392	target_response	1
268.337926387787	0.368375539779663	target_response	1
275.007079839706	0.328137159347534	target_response	1
278.775151491165	0.313159465789795	target_response	1
286.244603395462	0.304521560668945	target_response	1
289.212377548218	0.309118509292603	target_response	1
293.080487251282	0.409566640853882	target_response	1
300.54993891716	0.394267082214355	target_response	1
308.519577264786	0.34821081161499	target_response	1
312.487723588943	0.377968311309814	target_response	1
315.555534601212	0.482028484344482	target_response	1
323.024986982346	0.31414008140564	target_response	1
328.193580627441	0.390532255172729	target_response	1
331.761578798294	0.406550168991089	target_response	1
334.729351997375	0.350219964981079	target_response	1
337.897199392319	0.461356639862061	target_response	1
341.465196371078	0.383413553237915	target_response	1
345.333306789398	0.321048259735107	target_response	1
350.70197558403	0.352846384048462	target_response	1
353.969861030579	0.351487874984741	target_response	1
358.53823018074	0.434414863586426	target_response	1
361.906152963638	0.352854013442993	target_response	1
369.375605583191	0.322178363800049	target_response	1
374.044013023376	0.347786903381348	target_response	1
380.012906074524	0.349474906921387	target_response	1
387.482357740402	0.336702346801758	target_response	1
391.550542116165	0.392022848129272	target_response	1
399.019994258881	0.35411262512207	target_response	1
404.688775062561	0.36658501625061	target_response	1
407.856622695923	0.335300207138062	target_response	1
410.924433469772	0.430660486221313	target_response	1
414.592467546463	0.458766460418701	target_response	1
418.860726833344	0.392397165298462	target_response	1
422.828872442245	0.361733436584473	target_response	1
429.498027086258	0.357217788696289	target_response	1
432.665874481201	0.369653463363647	target_response	1
436.133834838867	0.357669115066528	target_response	1
441.602540493011	0.348629474639893	target_response	1
445.170537233353	0.306564807891846	target_response	1
448.738534450531	0.394688606262207	target_response	1
453.80709195137	0.305454015731812	target_response	1
461.776730775833	0.339926242828369	target_response	1
469.246182918549	0.321174144744873	target_response	1
474.4147772789	0.337660789489746	target_response	1
481.884228467941	0.323572635650635	target_response	1
489.35368180275	0.322403192520142	target_response	1
494.822387218475	0.309720754623413	target_response	1
499.390757799149	0.335715293884277	target_response	1
506.259986400604	0.474144697189331	target_response	1
511.028430461884	0.315045595169067	target_response	1
514.296315908432	0.402818202972412	target_response	1
521.765768766403	0.50084114074707	target_response	1
526.734288454056	0.393832445144653	target_response	1
533.10332942009	0.335120677947998	target_response	1
536.871401786804	0.361239194869995	target_response	1
541.339734315872	0.403361558914185	target_response	1
544.407546043396	0.351564884185791	target_response	1
549.175991296768	0.314144611358643	target_response	1
553.044099330902	0.409008741378784	target_response	1
560.513551473618	0.401538610458374	target_response	1
563.581362485886	0.394816398620605	target_response	1
567.249397754669	0.402788162231445	target_response	1
572.618066072464	0.395746946334839	target_response	1
579.287220239639	0.404962778091431	target_response	1
583.955626964569	0.381575107574463	target_response	1
591.425079584122	0.483779430389404	target_response	1
594.893039703369	0.414529323577881	target_response	1
599.361372709274	0.336231231689453	target_response	1
