src_subject_id,session_id,run_id,param_counterbalance_ver,param_block_num,param_trial_num,param_cond_type_num,param_cond_type_string,param_normative_response,param_ques_type_string,param_image_num,param_image_filename,param_trigger_onset,param_start_biopac,event01_fixation,event01_fixation_dur,event01_blockquestion_onset,event01_block_isi_blacksreen,event01_blockquestion_dur,event02_image_onset,event02_image_dur,event03_response_onset,event03_response_key,event03_response_keyname,event03_RT,event04_shortquestion_onset,param_end_instruct_onset,param_experiment_duration,RAW_e1_fixation,RAW_e1_fixation_biopac,RAW_e1_blockquestion_onset,RAW_e1_blockquestion_onset_biopac,RAW_e1_block_isi_blacksreen,RAW_e2_image_onset,RAW_e2_image_onset_biopac,RAW_e3_response_onset,RAW_e4_shortquestion_onset,RAW_param_end_instruct_onset,accuracy
69,4,2,1,1,1,4,c4_HowHand,1,reaching?,106,H_006.jpg,1631829771.79022,1631829771.79312,0.0282959842681882,0.0359811782836914,0.0783157253265379,2.11241649627686,2.03410077095032,2.26247333526611,1.26714587211609,3.54266618728638,1,left,1.2413489818573,3.5296192073822,604.473372211456,607.233372211456,1631829774.57852,1631829774.58514,1631829774.62854,1631829774.63145,1631829776.66264,1631829776.8127,1631829776.81501,1631829778.09289,1631829778.07984,1631830379.02359,1
69,4,2,1,1,2,4,c4_HowHand,2,reaching?,105,H_438.jpg,1631829771.79022,1631829771.79312,0.0282959842681882,0.0359811782836914,0.0783157253265379,2.11241649627686,0.3,3.84640430450439,0.683591842651367,4.53268097877502,1,left,0.662090063095093,4.52999614715576,604.473372211456,607.233372211456,1631829774.57852,1631829774.58514,1631829774.62854,1631829774.63145,1631829776.66264,1631829778.39663,1631829778.39895,1631829779.0829,1631829779.08022,1631830379.02359,0
69,4,2,1,1,3,4,c4_HowHand,1,reaching?,111,H_003.jpg,1631829771.79022,1631829771.79312,0.0282959842681882,0.0359811782836914,0.0783157253265379,2.11241649627686,0.3,4.84678267478943,0.950357675552368,5.80864714622498,1,left,0.934776067733765,5.7971403503418,604.473372211456,607.233372211456,1631829774.57852,1631829774.58514,1631829774.62854,1631829774.63145,1631829776.66264,1631829779.397,1631829779.39949,1631829780.35887,1631829780.34736,1631830379.02359,1
69,4,2,1,1,4,4,c4_HowHand,1,reaching?,109,H_474.jpg,1631829771.79022,1631829771.79312,0.0282959842681882,0.0359811782836914,0.0783157253265379,2.11241649627686,0.3,6.11392663955688,0.800303220748901,6.9252970123291,1,left,0.787713050842285,6.91422986030579,604.473372211456,607.233372211456,1631829774.57852,1631829774.58514,1631829774.62854,1631829774.63145,1631829776.66264,1631829780.66415,1631829780.66655,1631829781.47552,1631829781.46445,1631830379.02359,1
69,4,2,1,1,5,4,c4_HowHand,2,reaching?,108,H_532.jpg,1631829771.79022,1631829771.79312,0.0282959842681882,0.0359811782836914,0.0783157253265379,2.11241649627686,0.3,7.23101543426514,0.967031955718994,8.20273899078369,3,right,0.935937881469727,8.19804738998413,604.473372211456,607.233372211456,1631829774.57852,1631829774.58514,1631829774.62854,1631829774.63145,1631829776.66264,1631829781.78124,1631829781.78506,1631829782.75296,1631829782.74827,1631830379.02359,0
69,4,2,1,1,6,4,c4_HowHand,1,reaching?,110,H_364.jpg,1631829771.79022,1631829771.79312,0.0282959842681882,0.0359811782836914,0.0783157253265379,2.11241649627686,0.3,8.51483344078064,0.766954660415649,9.28445099830627,1,left,0.746723175048828,9.28178810119629,604.473372211456,607.233372211456,1631829774.57852,1631829774.58514,1631829774.62854,1631829774.63145,1631829776.66264,1631829783.06506,1631829783.06726,1631829783.83467,1631829783.83201,1631830379.02359,1
69,4,2,1,1,7,4,c4_HowHand,1,reaching?,107,H_007.jpg,1631829771.79022,1631829771.79312,0.0282959842681882,0.0359811782836914,0.0783157253265379,2.11241649627686,0.3,9.59857558250427,0.633572578430176,10.2344181442261,1,left,0.610522031784058,10.2321481609344,604.473372211456,607.233372211456,1631829774.57852,1631829774.58514,1631829774.62854,1631829774.63145,1631829776.66264,1631829784.1488,1631829784.1508,1631829784.78464,1631829784.78237,1631830379.02359,1
69,4,2,1,1,8,4,c4_HowHand,2,reaching?,112,H_132.jpg,1631829771.79022,1631829771.79312,0.0282959842681882,0.0359811782836914,0.0783157253265379,2.11241649627686,0.3,10.548934211731,0.833648920059204,11.3850841426849,3,right,0.810791969299316,11.3825831317902,604.473372211456,607.233372211456,1631829774.57852,1631829774.58514,1631829774.62854,1631829774.63145,1631829776.66264,1631829785.09916,1631829785.10152,1631829785.93531,1631829785.93281,1631830379.02359,0
69,4,2,1,2,1,2,c2_WhyHand,1,healthy?,18,H_438.jpg,1631829771.79022,1631829771.79312,11.5493116283417,7.41592240333557,18.9687795543671,21.0695726776123,2.10079312324524,21.2196297550201,1.00037693977356,22.2251629734039,1,left,0.978188991546631,22.2200066947937,604.473372211456,607.233372211456,1631829786.09953,1631829786.10867,1631829793.519,1631829793.52516,1631829795.61979,1631829795.76985,1631829795.77465,1631829796.77538,1631829796.77023,1631830379.02359,1
69,4,2,1,2,2,2,c2_WhyHand,2,healthy?,20,H_007.jpg,1631829771.79022,1631829771.79312,11.5493116283417,7.41592240333557,18.9687795543671,21.0695726776123,0.3,22.5367929840088,1.4338743686676,23.9734289550781,3,right,1.40550684928894,23.9706673526764,604.473372211456,607.233372211456,1631829786.09953,1631829786.10867,1631829793.519,1631829793.52516,1631829795.61979,1631829797.08701,1631829797.09127,1631829798.52365,1631829798.52089,1631830379.02359,0
69,4,2,1,2,3,2,c2_WhyHand,1,healthy?,23,H_364.jpg,1631829771.79022,1631829771.79312,11.5493116283417,7.41592240333557,18.9687795543671,21.0695726776123,0.3,24.2874536418915,1.35050940513611,25.6412980461121,3,right,1.33211493492126,25.6379630470276,604.473372211456,607.233372211456,1631829786.09953,1631829786.10867,1631829793.519,1631829793.52516,1631829795.61979,1631829798.83768,1631829798.84132,1631829800.19152,1631829800.18818,1631830379.02359,0
69,4,2,1,2,4,2,c2_WhyHand,2,healthy?,24,H_019.jpg,1631829771.79022,1631829771.79312,11.5493116283417,7.41592240333557,18.9687795543671,21.0695726776123,0.3,25.9547488594055,1.11708927154541,27.0744459533691,3,right,1.09147906303406,27.0718381309509,604.473372211456,607.233372211456,1631829786.09953,1631829786.10867,1631829793.519,1631829793.52516,1631829795.61979,1631829800.50497,1631829800.50794,1631829801.62467,1631829801.62206,1631830379.02359,0
69,4,2,1,2,5,2,c2_WhyHand,1,healthy?,19,H_167.jpg,1631829771.79022,1631829771.79312,11.5493116283417,7.41592240333557,18.9687795543671,21.0695726776123,0.3,27.388624420166,1.18378043174744,28.5744941139221,1,left,1.17212295532227,28.5724048519135,604.473372211456,607.233372211456,1631829786.09953,1631829786.10867,1631829793.519,1631829793.52516,1631829795.61979,1631829801.93885,1631829801.94137,1631829803.12472,1631829803.12263,1631830379.02359,1
69,4,2,1,2,6,2,c2_WhyHand,2,healthy?,22,H_130.jpg,1631829771.79022,1631829771.79312,11.5493116283417,7.41592240333557,18.9687795543671,21.0695726776123,0.3,28.8891906642914,0.967031717300415,29.8588249588013,3,right,0.952350854873657,29.8562223815918,604.473372211456,607.233372211456,1631829786.09953,1631829786.10867,1631829793.519,1631829793.52516,1631829795.61979,1631829803.43941,1631829803.4415,1631829804.40905,1631829804.40644,1631830379.02359,0
69,4,2,1,2,7,2,c2_WhyHand,1,healthy?,21,H_627.jpg,1631829771.79022,1631829771.79312,11.5493116283417,7.41592240333557,18.9687795543671,21.0695726776123,0.3,30.1730081939697,0.883666753768921,31.0587811374664,1,left,0.870986938476562,31.0566749477386,604.473372211456,607.233372211456,1631829786.09953,1631829786.10867,1631829793.519,1631829793.52516,1631829795.61979,1631829804.72323,1631829804.72541,1631829805.609,1631829805.6069,1631830379.02359,1
69,4,2,1,2,8,2,c2_WhyHand,1,healthy?,17,H_362.jpg,1631829771.79022,1631829771.79312,11.5493116283417,7.41592240333557,18.9687795543671,21.0695726776123,0.3,31.3734619522095,0.883666276931763,32.2593281173706,1,left,0.860091209411621,32.2571282291412,604.473372211456,607.233372211456,1631829786.09953,1631829786.10867,1631829793.519,1631829793.52516,1631829795.61979,1631829805.92368,1631829805.92625,1631829806.80955,1631829806.80735,1631830379.02359,1
69,4,2,1,3,1,1,c1_WhyFace,1,proud?,101,F_083.jpg,1631829771.79022,1631829771.79312,32.4071855449677,9.04010558128357,41.4606020355225,43.5613951587677,2.10079312324524,43.7114522361755,0.917013168334961,44.6411690616608,1,left,0.902220010757446,44.6284654045105,604.473372211456,607.233372211456,1631829806.95741,1631829806.96,1631829816.01082,1631829816.01321,1631829818.11162,1631829818.26167,1631829818.26392,1631829819.19139,1631829819.17869,1631830379.02359,1
69,4,2,1,3,2,1,c1_WhyFace,2,proud?,98,F_412.jpg,1631829771.79022,1631829771.79312,32.4071855449677,9.04010558128357,41.4606020355225,43.5613951587677,0.3,44.9452516937256,0.850321054458618,45.808176984787,3,right,0.835008859634399,45.7955727481842,604.473372211456,607.233372211456,1631829806.95741,1631829806.96,1631829816.01082,1631829816.01321,1631829818.11162,1631829819.49547,1631829819.49759,1631829820.3584,1631829820.34579,1631830379.02359,0
69,4,2,1,3,3,1,c1_WhyFace,1,proud?,99,F_695.jpg,1631829771.79022,1631829771.79312,32.4071855449677,9.04010558128357,41.4606020355225,43.5613951587677,0.3,46.1123585605621,0.833649158477783,46.9494609737396,1,left,0.809161901473999,46.9460077190399,604.473372211456,607.233372211456,1631829806.95741,1631829806.96,1631829816.01082,1631829816.01321,1631829818.11162,1631829820.66258,1631829820.66472,1631829821.49968,1631829821.49623,1631830379.02359,1
69,4,2,1,3,4,1,c1_WhyFace,1,proud?,104,F_598.jpg,1631829771.79022,1631829771.79312,32.4071855449677,9.04010558128357,41.4606020355225,43.5613951587677,0.3,47.2627937698364,0.866994380950928,48.1321890258789,1,left,0.848366975784302,48.1297881507874,604.473372211456,607.233372211456,1631829806.95741,1631829806.96,1631829816.01082,1631829816.01321,1631829818.11162,1631829821.81302,1631829821.81551,1631829822.68241,1631829822.68001,1631830379.02359,1
69,4,2,1,3,5,1,c1_WhyFace,1,proud?,103,F_618.jpg,1631829771.79022,1631829771.79312,32.4071855449677,9.04010558128357,41.4606020355225,43.5613951587677,0.3,48.4465734863281,0.917012929916382,49.3755621814728,1,left,0.90165901184082,49.3635864162445,604.473372211456,607.233372211456,1631829806.95741,1631829806.96,1631829816.01082,1631829816.01321,1631829818.11162,1631829822.9968,1631829822.99885,1631829823.92578,1631829823.91381,1631830379.02359,1
69,4,2,1,3,6,1,c1_WhyFace,1,proud?,97,F_582.jpg,1631829771.79022,1631829771.79312,32.4071855449677,9.04010558128357,41.4606020355225,43.5613951587677,0.3,49.6803734207153,0.750282764434814,50.441287984848,1,left,0.741312026977539,50.4306561851501,604.473372211456,607.233372211456,1631829806.95741,1631829806.96,1631829816.01082,1631829816.01321,1631829818.11162,1631829824.2306,1631829824.23235,1631829824.99151,1631829824.98088,1631830379.02359,1
69,4,2,1,3,7,1,c1_WhyFace,2,proud?,102,F_760.jpg,1631829771.79022,1631829771.79312,32.4071855449677,9.04010558128357,41.4606020355225,43.5613951587677,0.3,50.7474427127838,0.950358867645264,51.7085130119324,3,right,0.932968854904175,51.6978015804291,604.473372211456,607.233372211456,1631829806.95741,1631829806.96,1631829816.01082,1631829816.01321,1631829818.11162,1631829825.29766,1631829825.29988,1631829826.25873,1631829826.24802,1631830379.02359,0
69,4,2,1,3,8,1,c1_WhyFace,2,proud?,100,F_776.jpg,1631829771.79022,1631829771.79312,32.4071855449677,9.04010558128357,41.4606020355225,43.5613951587677,0.3,52.0145878696442,0.850321054458618,52.866932144165,3,right,0.824487924575806,52.8649089241028,604.473372211456,607.233372211456,1631829806.95741,1631829806.96,1631829816.01082,1631829816.01321,1631829818.11162,1631829826.56481,1631829826.5672,1631829827.41715,1631829827.41513,1631830379.02359,0
69,4,2,1,4,1,3,c3_HowFace,1,smiling?,115,F_695.jpg,1631829771.79022,1631829771.79312,52.964946975708,6.35721898078918,59.3340175056458,61.4348099136353,2.1007924079895,61.5848679447174,0.566880226135254,62.1581571006775,1,left,0.540573120117188,62.1517481708527,604.473372211456,607.233372211456,1631829827.51517,1631829827.51784,1631829833.88424,1631829833.89146,1631829835.98503,1631829836.13509,1631829836.14157,1631829836.70838,1631829836.70197,1631830379.02359,1
69,4,2,1,4,2,3,c3_HowFace,2,smiling?,114,F_412.jpg,1631829771.79022,1631829771.79312,52.964946975708,6.35721898078918,59.3340175056458,61.4348099136353,0.3,62.4685346984863,0.750283002853394,63.2248101139069,3,right,0.732888221740723,63.2188177013397,604.473372211456,607.233372211456,1631829827.51517,1631829827.51784,1631829833.88424,1631829833.89146,1631829835.98503,1631829837.01876,1631829837.02103,1631829837.77503,1631829837.76904,1631830379.02359,0
69,4,2,1,4,3,3,c3_HowFace,1,smiling?,116,F_083.jpg,1631829771.79022,1631829771.79312,52.964946975708,6.35721898078918,59.3340175056458,61.4348099136353,0.3,63.5356032752991,0.600226640701294,64.138008108139,1,left,0.57215404510498,64.1358299160004,604.473372211456,607.233372211456,1631829827.51517,1631829827.51784,1631829833.88424,1631829833.89146,1631829835.98503,1631829838.08583,1631829838.09171,1631829838.68823,1631829838.68605,1631830379.02359,1
69,4,2,1,4,4,3,c3_HowFace,1,smiling?,117,F_593.jpg,1631829771.79022,1631829771.79312,52.964946975708,6.35721898078918,59.3340175056458,61.4348099136353,0.3,64.4526162052154,0.616900682449341,65.074920167923,1,left,0.603291988372803,65.0695168876648,604.473372211456,607.233372211456,1631829827.51517,1631829827.51784,1631829833.88424,1631829833.89146,1631829835.98503,1631829839.00284,1631829839.00829,1631829839.62514,1631829839.61974,1631830379.02359,1
69,4,2,1,4,5,3,c3_HowFace,2,smiling?,113,F_712.jpg,1631829771.79022,1631829771.79312,52.964946975708,6.35721898078918,59.3340175056458,61.4348099136353,0.3,65.3863022232056,0.850320816040039,66.2388861083984,3,right,0.823393821716309,66.2366230392456,604.473372211456,607.233372211456,1631829827.51517,1631829827.51784,1631829833.88424,1631829833.89146,1631829835.98503,1631829839.93652,1631829839.9415,1631829840.78911,1631829840.78684,1631830379.02359,0
69,4,2,1,4,6,3,c3_HowFace,1,smiling?,119,F_139.jpg,1631829771.79022,1631829771.79312,52.964946975708,6.35721898078918,59.3340175056458,61.4348099136353,0.3,66.553410282135,0.633571863174438,67.1912701034546,1,left,0.610651969909668,67.1869821453094,604.473372211456,607.233372211456,1631829827.51517,1631829827.51784,1631829833.88424,1631829833.89146,1631829835.98503,1631829841.10363,1631829841.10809,1631829841.74149,1631829841.7372,1631830379.02359,1
69,4,2,1,4,7,3,c3_HowFace,1,smiling?,118,F_759.jpg,1631829771.79022,1631829771.79312,52.964946975708,6.35721898078918,59.3340175056458,61.4348099136353,0.3,67.5037686729431,0.883667230606079,68.3910860919952,1,left,0.866974115371704,68.3874359035492,604.473372211456,607.233372211456,1631829827.51517,1631829827.51784,1631829833.88424,1631829833.89146,1631829835.98503,1631829842.05399,1631829842.05811,1631829842.94131,1631829842.93766,1631830379.02359,1
69,4,2,1,4,8,3,c3_HowFace,2,smiling?,120,F_758.jpg,1631829771.79022,1631829771.79312,52.964946975708,6.35721898078918,59.3340175056458,61.4348099136353,0.3,68.70422290802,0.766954660415649,69.4748501682281,3,right,0.750385999679565,69.4711775684357,604.473372211456,607.233372211456,1631829827.51517,1631829827.51784,1631829833.88424,1631829833.89146,1631829835.98503,1631829843.25444,1631829843.25844,1631829844.02507,1631829844.0214,1631830379.02359,0
69,4,2,1,5,1,4,c4_HowHand,1,both hands?,123,H_167.jpg,1631829771.79022,1631829771.79312,69.5712163352966,8.85980582237244,78.4412310028076,80.5420257949829,2.10079479217529,80.692082157135,0.783629179000854,81.4776601696014,1,left,0.762670993804932,81.4757113361359,604.473372211456,607.233372211456,1631829844.12144,1631829844.12615,1631829852.99145,1631829852.99498,1631829855.09225,1631829855.2423,1631829855.24417,1631829856.02788,1631829856.02593,1631830379.02359,1
69,4,2,1,5,2,4,c4_HowHand,2,both hands?,126,H_159.jpg,1631829771.79022,1631829771.79312,69.5712163352966,8.85980582237244,78.4412310028076,80.5420257949829,0.3,81.7924976253509,0.733609676361084,82.5285539531708,3,right,0.716730833053589,82.526107301712,604.473372211456,607.233372211456,1631829844.12144,1631829844.12615,1631829852.99145,1631829852.99498,1631829855.09225,1631829856.34272,1631829856.34522,1631829857.07878,1631829857.07633,1631830379.02359,0
69,4,2,1,5,3,4,c4_HowHand,1,both hands?,128,H_027.jpg,1631829771.79022,1631829771.79312,69.5712163352966,8.85980582237244,78.4412310028076,80.5420257949829,0.3,82.8428940677643,0.683591842651367,83.5414900684357,1,left,0.672601938247681,83.5264859104156,604.473372211456,607.233372211456,1631829844.12144,1631829844.12615,1631829852.99145,1631829852.99498,1631829855.09225,1631829857.39312,1631829857.39523,1631829858.09171,1631829858.07671,1631830379.02359,1
69,4,2,1,5,4,4,c4_HowHand,1,both hands?,124,H_581.jpg,1631829771.79022,1631829771.79312,69.5712163352966,8.85980582237244,78.4412310028076,80.5420257949829,0.3,83.8432719612122,0.716936349868774,84.5624041461945,3,right,0.691230058670044,84.5602083110809,604.473372211456,607.233372211456,1631829844.12144,1631829844.12615,1631829852.99145,1631829852.99498,1631829855.09225,1631829858.39349,1631829858.39571,1631829859.11263,1631829859.11043,1631830379.02359,0
69,4,2,1,5,5,4,c4_HowHand,2,both hands?,121,H_091.jpg,1631829771.79022,1631829771.79312,69.5712163352966,8.85980582237244,78.4412310028076,80.5420257949829,0.3,84.8769948387146,0.95035982131958,85.8292400741577,3,right,0.928513050079346,85.8273546600342,604.473372211456,607.233372211456,1631829844.12144,1631829844.12615,1631829852.99145,1631829852.99498,1631829855.09225,1631829859.42722,1631829859.42943,1631829860.37946,1631829860.37758,1631830379.02359,0
69,4,2,1,5,6,4,c4_HowHand,1,both hands?,122,H_111.jpg,1631829771.79022,1631829771.79312,69.5712163352966,8.85980582237244,78.4412310028076,80.5420257949829,0.3,86.1441407108307,0.800301790237427,86.9581351184845,1,left,0.784842967987061,86.9444425010681,604.473372211456,607.233372211456,1631829844.12144,1631829844.12615,1631829852.99145,1631829852.99498,1631829855.09225,1631829860.69436,1631829860.69684,1631829861.50836,1631829861.49466,1631830379.02359,1
69,4,2,1,5,7,4,c4_HowHand,2,both hands?,125,H_627.jpg,1631829771.79022,1631829771.79312,69.5712163352966,8.85980582237244,78.4412310028076,80.5420257949829,0.3,87.2612297439575,0.800301790237427,88.06373213768,3,right,0.784486055374146,88.0615315341949,604.473372211456,607.233372211456,1631829844.12144,1631829844.12615,1631829852.99145,1631829852.99498,1631829855.09225,1631829861.81145,1631829861.8135,1631829862.61395,1631829862.61175,1631830379.02359,0
69,4,2,1,5,8,4,c4_HowHand,1,both hands?,127,H_349.jpg,1631829771.79022,1631829771.79312,69.5712163352966,8.85980582237244,78.4412310028076,80.5420257949829,0.3,88.3783173465729,0.600226402282715,88.9806420707703,1,left,0.575640916824341,88.9785437488556,604.473372211456,607.233372211456,1631829844.12144,1631829844.12615,1631829852.99145,1631829852.99498,1631829855.09225,1631829862.92854,1631829862.93072,1631829863.53086,1631829863.52877,1631830379.02359,1
69,4,2,1,6,1,2,c2_WhyHand,1,helping?,34,H_111.jpg,1631829771.79022,1631829771.79312,89.0785815620422,6.86847162246704,95.964515914917,98.0653080844879,2.10079216957092,98.2153656387329,0.800301313400269,99.0248901748657,1,left,0.78878116607666,99.0156669521332,604.473372211456,607.233372211456,1631829863.6288,1631829863.63086,1631829870.51474,1631829870.51751,1631829872.61553,1631829872.76559,1631829872.76776,1631829873.57511,1631829873.56589,1631830379.02359,1
69,4,2,1,6,2,2,c2_WhyHand,1,helping?,38,H_077.jpg,1631829771.79022,1631829771.79312,89.0785815620422,6.86847162246704,95.964515914917,98.0653080844879,0.3,99.3324546718597,0.733609676361084,100.075180044174,1,left,0.719934940338135,100.066064348221,604.473372211456,607.233372211456,1631829863.6288,1631829863.63086,1631829870.51474,1631829870.51751,1631829872.61553,1631829873.88268,1631829873.88493,1631829874.6254,1631829874.61629,1631830379.02359,1
69,4,2,1,6,3,2,c2_WhyHand,2,helping?,35,H_159.jpg,1631829771.79022,1631829771.79312,89.0785815620422,6.86847162246704,95.964515914917,98.0653080844879,0.3,100.382850875854,0.683592081069946,101.075317134857,3,right,0.669683218002319,101.066442956924,604.473372211456,607.233372211456,1631829863.6288,1631829863.63086,1631829870.51474,1631829870.51751,1631829872.61553,1631829874.93307,1631829874.93507,1631829875.62554,1631829875.61666,1631830379.02359,0
69,4,2,1,6,4,2,c2_WhyHand,1,helping?,37,H_474.jpg,1631829771.79022,1631829771.79312,89.0785815620422,6.86847162246704,95.964515914917,98.0653080844879,0.3,101.383227338791,1.00037860870361,102.391859045029,1,left,0.986757040023804,102.383605947495,604.473372211456,607.233372211456,1631829863.6288,1631829863.63086,1631829870.51474,1631829870.51751,1631829872.61553,1631829875.93345,1631829875.93588,1631829876.94208,1631829876.93383,1631830379.02359,1
69,4,2,1,6,5,2,c2_WhyHand,2,helping?,40,H_012.jpg,1631829771.79022,1631829771.79312,89.0785815620422,6.86847162246704,95.964515914917,98.0653080844879,0.3,102.70039223671,0.850321292877197,103.558248987198,3,right,0.836355924606323,103.550713529587,604.473372211456,607.233372211456,1631829863.6288,1631829863.63086,1631829870.51474,1631829870.51751,1631829872.61553,1631829877.25061,1631829877.25274,1631829878.10847,1631829878.10094,1631830379.02359,0
69,4,2,1,6,6,2,c2_WhyHand,1,helping?,39,H_024.jpg,1631829771.79022,1631829771.79312,89.0785815620422,6.86847162246704,95.964515914917,98.0653080844879,0.3,103.867499341965,0.91701340675354,104.792143096924,3,right,0.904962062835693,104.784512748718,604.473372211456,607.233372211456,1631829863.6288,1631829863.63086,1631829870.51474,1631829870.51751,1631829872.61553,1631829878.41772,1631829878.41991,1631829879.34237,1631829879.33473,1631830379.02359,0
69,4,2,1,6,7,2,c2_WhyHand,2,helping?,33,H_091.jpg,1631829771.79022,1631829771.79312,89.0785815620422,6.86847162246704,95.964515914917,98.0653080844879,0.3,105.101298561096,0.950358629226685,106.058163156509,3,right,0.931114912033081,106.051657190323,604.473372211456,607.233372211456,1631829863.6288,1631829863.63086,1631829870.51474,1631829870.51751,1631829872.61553,1631829879.65152,1631829879.6537,1631829880.60839,1631829880.60188,1631830379.02359,0
69,4,2,1,6,8,2,c2_WhyHand,1,helping?,36,H_349.jpg,1631829771.79022,1631829771.79312,89.0785815620422,6.86847162246704,95.964515914917,98.0653080844879,0.3,106.368444671631,0.633571624755859,107.008748044968,1,left,0.618688106536865,107.002016296387,604.473372211456,607.233372211456,1631829863.6288,1631829863.63086,1631829870.51474,1631829870.51751,1631829872.61553,1631829880.91867,1631829880.92084,1631829881.55897,1631829881.55224,1631830379.02359,1
69,4,2,1,7,1,1,c1_WhyFace,1,self-doubt?,28,F_754.jpg,1631829771.79022,1631829771.79312,107.102054586411,7.8990044593811,115.005039682388,117.105831851959,2.10079216957092,117.255889883041,1.01704955101013,118.275192966461,1,left,1.00114297866821,118.272939434052,604.473372211456,607.233372211456,1631829881.65228,1631829881.65854,1631829889.55526,1631829889.55832,1631829891.65605,1631829891.80611,1631829891.80817,1631829892.82541,1631829892.82316,1631830379.02359,1
69,4,2,1,7,2,1,c1_WhyFace,2,self-doubt?,32,F_128.jpg,1631829771.79022,1631829771.79312,107.102054586411,7.8990044593811,115.005039682388,117.105831851959,0.3,118.589726438522,1.05039644241333,119.642453184128,3,right,1.02673983573914,119.640122880936,604.473372211456,607.233372211456,1631829881.65228,1631829881.65854,1631829889.55526,1631829889.55832,1631829891.65605,1631829893.13995,1631829893.14212,1631829894.19268,1631829894.19034,1631830379.02359,0
69,4,2,1,7,3,1,c1_WhyFace,1,self-doubt?,29,F_544.jpg,1631829771.79022,1631829771.79312,107.102054586411,7.8990044593811,115.005039682388,117.105831851959,0.3,119.956908454895,0.833649158477783,120.792592992783,1,left,0.816164016723633,120.790557613373,604.473372211456,607.233372211456,1631829881.65228,1631829881.65854,1631829889.55526,1631829889.55832,1631829891.65605,1631829894.50713,1631829894.50919,1631829895.34281,1631829895.34078,1631830379.02359,1
69,4,2,1,7,4,1,c1_WhyFace,2,self-doubt?,27,F_086.jpg,1631829771.79022,1631829771.79312,107.102054586411,7.8990044593811,115.005039682388,117.105831851959,0.3,121.107343187332,0.866994142532349,121.976624002457,3,right,0.849735975265503,121.974337329864,604.473372211456,607.233372211456,1631829881.65228,1631829881.65854,1631829889.55526,1631829889.55832,1631829891.65605,1631829895.65757,1631829895.65959,1631829896.52685,1631829896.52456,1631830379.02359,0
69,4,2,1,7,5,1,c1_WhyFace,1,self-doubt?,25,F_798.jpg,1631829771.79022,1631829771.79312,107.102054586411,7.8990044593811,115.005039682388,117.105831851959,0.3,122.291124095917,0.616899490356445,122.910506000519,1,left,0.603204011917114,122.908023586273,604.473372211456,607.233372211456,1631829881.65228,1631829881.65854,1631829889.55526,1631829889.55832,1631829891.65605,1631829896.84135,1631829896.84337,1631829897.46073,1631829897.45825,1631830379.02359,1
69,4,2,1,7,6,1,c1_WhyFace,1,self-doubt?,30,F_584.jpg,1631829771.79022,1631829771.79312,107.102054586411,7.8990044593811,115.005039682388,117.105831851959,0.3,123.224810829163,0.8836669921875,124.111011972427,1,left,0.858971834182739,124.10847782135,604.473372211456,607.233372211456,1631829881.65228,1631829881.65854,1631829889.55526,1631829889.55832,1631829891.65605,1631829897.77503,1631829897.77721,1631829898.66123,1631829898.6587,1631830379.02359,1
69,4,2,1,7,7,1,c1_WhyFace,1,self-doubt?,26,F_111.jpg,1631829771.79022,1631829771.79312,107.102054586411,7.8990044593811,115.005039682388,117.105831851959,0.3,124.425263872147,0.766956090927124,125.194353094101,1,left,0.743510961532593,125.192219963074,604.473372211456,607.233372211456,1631829881.65228,1631829881.65854,1631829889.55526,1631829889.55832,1631829891.65605,1631829898.97549,1631829898.97779,1631829899.74458,1631829899.74244,1631830379.02359,1
69,4,2,1,7,8,1,c1_WhyFace,2,self-doubt?,31,F_774.jpg,1631829771.79022,1631829771.79312,107.102054586411,7.8990044593811,115.005039682388,117.105831851959,0.3,125.509005298614,0.633573532104492,126.15836309433,3,right,0.623670816421509,126.142578830719,604.473372211456,607.233372211456,1631829881.65228,1631829881.65854,1631829889.55526,1631829889.55832,1631829891.65605,1631829900.05923,1631829900.06173,1631829900.70859,1631829900.6928,1631830379.02359,0
69,4,2,1,8,1,3,c3_HowFace,1,looking to side?,71,F_433.jpg,1631829771.79022,1631829771.79312,126.259289970398,6.53176212310791,132.795090665817,134.895884981155,2.10079431533813,135.045941343308,0.816975116729736,135.87538312912,1,left,0.796755790710449,135.862916460037,604.473372211456,607.233372211456,1631829900.80951,1631829900.81183,1631829907.34531,1631829907.35861,1631829909.44611,1631829909.59616,1631829909.60849,1631829910.42561,1631829910.41314,1631830379.02359,1
69,4,2,1,8,2,3,c3_HowFace,2,looking to side?,70,F_779.jpg,1631829771.79022,1631829771.79312,126.259289970398,6.53176212310791,132.795090665817,134.895884981155,0.3,136.179702987671,0.700264453887939,136.882138957977,1,left,0.684248924255371,136.879967441559,604.473372211456,607.233372211456,1631829900.80951,1631829900.81183,1631829907.34531,1631829907.35861,1631829909.44611,1631829910.72992,1631829910.73175,1631829911.43236,1631829911.43019,1631830379.02359,0
69,4,2,1,8,3,3,c3_HowFace,1,looking to side?,68,F_760.jpg,1631829771.79022,1631829771.79312,126.259289970398,6.53176212310791,132.795090665817,134.895884981155,0.3,137.196753492355,0.766955852508545,137.975038995743,1,left,0.753862142562866,137.963709344864,604.473372211456,607.233372211456,1631829900.80951,1631829900.81183,1631829907.34531,1631829907.35861,1631829909.44611,1631829911.74698,1631829911.74905,1631829912.52526,1631829912.51393,1631830379.02359,1
69,4,2,1,8,4,3,c3_HowFace,2,looking to side?,66,F_111.jpg,1631829771.79022,1631829771.79312,126.259289970398,6.53176212310791,132.795090665817,134.895884981155,0.3,138.28049539566,0.716938257217407,138.999577035904,3,right,0.692526817321777,138.997433652878,604.473372211456,607.233372211456,1631829900.80951,1631829900.81183,1631829907.34531,1631829907.35861,1631829909.44611,1631829912.83072,1631829912.83309,1631829913.5498,1631829913.54766,1631830379.02359,0
69,4,2,1,8,5,3,c3_HowFace,2,looking to side?,65,F_798.jpg,1631829771.79022,1631829771.79312,126.259289970398,6.53176212310791,132.795090665817,134.895884981155,0.3,139.31422041893,1.06707048416138,140.383397092819,3,right,1.04632902145386,140.381290903091,604.473372211456,607.233372211456,1631829900.80951,1631829900.81183,1631829907.34531,1631829907.35861,1631829909.44611,1631829913.86444,1631829913.86675,1631829914.93362,1631829914.93151,1631830379.02359,0
69,4,2,1,8,6,3,c3_HowFace,1,looking to side?,67,F_716.jpg,1631829771.79022,1631829771.79312,126.259289970398,6.53176212310791,132.795090665817,134.895884981155,0.3,140.698076477051,0.633572101593018,141.333710184097,1,left,0.608700037002563,141.331648578644,604.473372211456,607.233372211456,1631829900.80951,1631829900.81183,1631829907.34531,1631829907.35861,1631829909.44611,1631829915.2483,1631829915.2504,1631829915.88393,1631829915.88187,1631830379.02359,1
69,4,2,1,8,7,3,c3_HowFace,1,looking to side?,72,F_590.jpg,1631829771.79022,1631829771.79312,126.259289970398,6.53176212310791,132.795090665817,134.895884981155,0.3,141.648435583115,0.716937303543091,142.36797498703,3,right,0.695633888244629,142.365372886658,604.473372211456,607.233372211456,1631829900.80951,1631829900.81183,1631829907.34531,1631829907.35861,1631829909.44611,1631829916.19866,1631829916.20114,1631829916.9182,1631829916.91559,1631830379.02359,0
69,4,2,1,8,8,3,c3_HowFace,1,looking to side?,69,F_110.jpg,1631829771.79022,1631829771.79312,126.259289970398,6.53176212310791,132.795090665817,134.895884981155,0.3,142.68215798378,0.850321292877197,143.542137136459,3,right,0.840063095092773,143.532479276657,604.473372211456,607.233372211456,1631829900.80951,1631829900.81183,1631829907.34531,1631829907.35861,1631829909.44611,1631829917.23238,1631829917.2347,1631829918.09236,1631829918.0827,1631830379.02359,0
69,4,2,1,9,1,1,c1_WhyFace,1,argument?,43,F_716.jpg,1631829771.79022,1631829771.79312,143.632516851425,6.68853425979614,150.335049381256,152.43584274292,2.10079336166382,152.585899343491,0.917013168334961,153.508829107285,1,left,0.893688917160034,153.502912511826,604.473372211456,607.233372211456,1631829918.18274,1631829918.19217,1631829924.88527,1631829924.89191,1631829926.98606,1631829927.13612,1631829927.14194,1631829928.05905,1631829928.05313,1631830379.02359,1
69,4,2,1,9,2,1,c1_WhyFace,2,argument?,44,F_139.jpg,1631829771.79022,1631829771.79312,143.632516851425,6.68853425979614,150.335049381256,152.43584274292,0.3,153.819697847366,0.766957521438599,154.592077007294,3,right,0.753132820129395,154.586655368805,604.473372211456,607.233372211456,1631829918.18274,1631829918.19217,1631829924.88527,1631829924.89191,1631829926.98606,1631829928.36992,1631829928.37526,1631829929.1423,1631829929.13688,1631830379.02359,0
69,4,2,1,9,3,1,c1_WhyFace,1,argument?,47,F_743.jpg,1631829771.79022,1631829771.79312,143.632516851425,6.68853425979614,150.335049381256,152.43584274292,0.3,154.903441419601,0.700263977050781,155.60870098114,1,left,0.682507991790771,155.603705396652,604.473372211456,607.233372211456,1631829918.18274,1631829918.19217,1631829924.88527,1631829924.89191,1631829926.98606,1631829929.45366,1631829929.45883,1631829930.15892,1631829930.15393,1631830379.02359,1
69,4,2,1,9,4,1,c1_WhyFace,1,argument?,42,F_403.jpg,1631829771.79022,1631829771.79312,143.632516851425,6.68853425979614,150.335049381256,152.43584274292,0.3,155.920492639542,0.65024471282959,156.575316181183,1,left,0.62946605682373,156.570737352371,604.473372211456,607.233372211456,1631829918.18274,1631829918.19217,1631829924.88527,1631829924.89191,1631829926.98606,1631829930.47071,1631829930.47544,1631829931.12554,1631829931.12096,1631830379.02359,1
69,4,2,1,9,5,1,c1_WhyFace,1,argument?,48,F_758.jpg,1631829771.79022,1631829771.79312,143.632516851425,6.68853425979614,150.335049381256,152.43584274292,0.3,156.887524595261,0.917011737823486,157.806652059555,1,left,0.882905006408691,157.804536333084,604.473372211456,607.233372211456,1631829918.18274,1631829918.19217,1631829924.88527,1631829924.89191,1631829926.98606,1631829931.43775,1631829931.44194,1631829932.35687,1631829932.35476,1631830379.02359,1
69,4,2,1,9,6,1,c1_WhyFace,2,argument?,46,F_844.jpg,1631829771.79022,1631829771.79312,143.632516851425,6.68853425979614,150.335049381256,152.43584274292,0.3,158.121322860718,0.883667945861816,159.007398118973,3,right,0.856508016586304,159.00499080658,604.473372211456,607.233372211456,1631829918.18274,1631829918.19217,1631829924.88527,1631829924.89191,1631829926.98606,1631829932.67154,1631829932.67527,1631829933.55762,1631829933.55521,1631830379.02359,0
69,4,2,1,9,7,1,c1_WhyFace,1,argument?,41,F_712.jpg,1631829771.79022,1631829771.79312,143.632516851425,6.68853425979614,150.335049381256,152.43584274292,0.3,159.321776618958,0.666918754577637,159.991491069794,1,left,0.656652927398682,159.988695373535,604.473372211456,607.233372211456,1631829918.18274,1631829918.19217,1631829924.88527,1631829924.89191,1631829926.98606,1631829933.872,1631829933.87523,1631829934.54171,1631829934.53892,1631830379.02359,1
69,4,2,1,9,8,1,c1_WhyFace,2,argument?,45,F_433.jpg,1631829771.79022,1631829771.79312,143.632516851425,6.68853425979614,150.335049381256,152.43584274292,0.3,160.305481185913,0.850322008132935,161.159218063355,3,right,0.830370903015137,161.155803194046,604.473372211456,607.233372211456,1631829918.18274,1631829918.19217,1631829924.88527,1631829924.89191,1631829926.98606,1631829934.8557,1631829934.85901,1631829935.70944,1631829935.70603,1631830379.02359,0
69,4,2,1,10,1,3,c3_HowFace,1,open mouth?,80,F_844.jpg,1631829771.79022,1631829771.79312,161.255841007233,7.8552610874176,169.125480642319,171.226273527145,2.10079288482666,171.376330366135,0.633572816848755,172.012191047668,1,left,0.608875036239624,172.009903182983,604.473372211456,607.233372211456,1631829935.80606,1631829935.80834,1631829943.6757,1631829943.67753,1631829945.7765,1631829945.92655,1631829945.92848,1631829946.56241,1631829946.56013,1631830379.02359,1
69,4,2,1,10,2,3,c3_HowFace,1,open mouth?,78,F_692.jpg,1631829771.79022,1631829771.79312,161.255841007233,7.8552610874176,169.125480642319,171.226273527145,0.3,172.326689472198,0.733609437942505,173.062612047195,1,left,0.715641975402832,173.060298910141,604.473372211456,607.233372211456,1631829935.80606,1631829935.80834,1631829943.6757,1631829943.67753,1631829945.7765,1631829946.87691,1631829946.87901,1631829947.61283,1631829947.61052,1631830379.02359,1
69,4,2,1,10,3,3,c3_HowFace,2,open mouth?,77,F_584.jpg,1631829771.79022,1631829771.79312,161.255841007233,7.8552610874176,169.125480642319,171.226273527145,0.3,173.377086629868,0.583553314208984,173.97518705368,3,right,0.571588039398193,173.960639944077,604.473372211456,607.233372211456,1631829935.80606,1631829935.80834,1631829943.6757,1631829943.67753,1631829945.7765,1631829947.92731,1631829947.92989,1631829948.52541,1631829948.51086,1631830379.02359,0
69,4,2,1,10,4,3,c3_HowFace,1,open mouth?,75,F_086.jpg,1631829771.79022,1631829771.79312,161.255841007233,7.8552610874176,169.125480642319,171.226273527145,0.3,174.277425518036,0.766956806182861,175.046559085846,1,left,0.742476940155029,175.044382324219,604.473372211456,607.233372211456,1631829935.80606,1631829935.80834,1631829943.6757,1631829943.67753,1631829945.7765,1631829948.82765,1631829948.83015,1631829949.59678,1631829949.5946,1631830379.02359,1
69,4,2,1,10,5,3,c3_HowFace,1,open mouth?,73,F_403.jpg,1631829771.79022,1631829771.79312,161.255841007233,7.8552610874176,169.125480642319,171.226273527145,0.3,175.361167898178,0.60022759437561,175.96366309166,1,left,0.577926158905029,175.961395492554,604.473372211456,607.233372211456,1631829935.80606,1631829935.80834,1631829943.6757,1631829943.67753,1631829945.7765,1631829949.91139,1631829949.91371,1631829950.51389,1631829950.51162,1631830379.02359,1
69,4,2,1,10,6,3,c3_HowFace,2,open mouth?,76,F_544.jpg,1631829771.79022,1631829771.79312,161.255841007233,7.8552610874176,169.125480642319,171.226273527145,0.3,176.278181304932,0.800302743911743,177.080687990189,3,right,0.784123182296753,177.078484048843,604.473372211456,607.233372211456,1631829935.80606,1631829935.80834,1631829943.6757,1631829943.67753,1631829945.7765,1631829950.8284,1631829950.83045,1631829951.63091,1631829951.62871,1631830379.02359,0
69,4,2,1,10,7,3,c3_HowFace,2,open mouth?,79,F_648.jpg,1631829771.79022,1631829771.79312,161.255841007233,7.8552610874176,169.125480642319,171.226273527145,0.3,177.395270814896,0.716938018798828,178.125241031647,3,right,0.70610499382019,178.112208833694,604.473372211456,607.233372211456,1631829935.80606,1631829935.80834,1631829943.6757,1631829943.67753,1631829945.7765,1631829951.94549,1631829951.94763,1631829952.67546,1631829952.66243,1631830379.02359,0
69,4,2,1,10,8,3,c3_HowFace,1,open mouth?,74,F_776.jpg,1631829771.79022,1631829771.79312,161.255841007233,7.8552610874176,169.125480642319,171.226273527145,0.3,178.42899512291,0.600225687026978,179.041982164383,1,left,0.585110902786255,179.029220809937,604.473372211456,607.233372211456,1631829935.80606,1631829935.80834,1631829943.6757,1631829943.67753,1631829945.7765,1631829952.97922,1631829952.98178,1631829953.5922,1631829953.57944,1631830379.02359,1
69,4,2,1,11,1,4,c4_HowHand,1,lifting?,54,H_170.jpg,1631829771.79022,1631829771.79312,179.14593123436,8.03514695167542,187.198973407745,189.299767723084,2.10079431533813,189.449824323654,0.833647966384888,190.292040100098,1,left,0.819236993789673,190.283472290039,604.473372211456,607.233372211456,1631829953.69615,1631829953.69847,1631829961.7492,1631829961.75261,1631829963.84999,1631829964.00005,1631829964.00199,1631829964.84226,1631829964.83369,1631830379.02359,1
69,4,2,1,11,2,4,c4_HowHand,2,lifting?,53,H_077.jpg,1631829771.79022,1631829771.79312,179.14593123436,8.03514695167542,187.198973407745,189.299767723084,0.3,190.600259532928,0.900339126586914,191.509190073013,3,right,0.885721921920776,191.500598659515,604.473372211456,607.233372211456,1631829953.69615,1631829953.69847,1631829961.7492,1631829961.75261,1631829963.84999,1631829965.15048,1631829965.15242,1631829966.05941,1631829966.05082,1631830379.02359,0
69,4,2,1,11,3,4,c4_HowHand,1,lifting?,52,H_189.jpg,1631829771.79022,1631829771.79312,179.14593123436,8.03514695167542,187.198973407745,189.299767723084,0.3,191.817385663986,0.816974401473999,192.642096033096,1,left,0.804022073745728,192.63436006546,604.473372211456,607.233372211456,1631829953.69615,1631829953.69847,1631829961.7492,1631829961.75261,1631829963.84999,1631829966.36761,1631829966.36997,1631829967.19232,1631829967.18458,1631830379.02359,1
69,4,2,1,11,4,4,c4_HowHand,1,lifting?,49,H_362.jpg,1631829771.79022,1631829771.79312,179.14593123436,8.03514695167542,187.198973407745,189.299767723084,0.3,192.951146593094,0.7336106300354,193.692552080154,1,left,0.721040964126587,193.684757223129,604.473372211456,607.233372211456,1631829953.69615,1631829953.69847,1631829961.7492,1631829961.75261,1631829963.84999,1631829967.50137,1631829967.50339,1631829968.24277,1631829968.23498,1631830379.02359,1
69,4,2,1,11,5,4,c4_HowHand,2,lifting?,55,H_012.jpg,1631829771.79022,1631829771.79312,179.14593123436,8.03514695167542,187.198973407745,189.299767723084,0.3,194.001543273926,0.967031955718994,194.970746984482,3,right,0.942477941513062,194.968575229645,604.473372211456,607.233372211456,1631829953.69615,1631829953.69847,1631829961.7492,1631829961.75261,1631829963.84999,1631829968.55177,1631829968.55379,1631829969.52097,1631829969.5188,1631830379.02359,0
69,4,2,1,11,6,4,c4_HowHand,1,lifting?,50,H_443.jpg,1631829771.79022,1631829771.79312,179.14593123436,8.03514695167542,187.198973407745,189.299767723084,0.3,195.285361757278,0.75028395652771,196.037928094864,1,left,0.72784686088562,196.035645713806,604.473372211456,607.233372211456,1631829953.69615,1631829953.69847,1631829961.7492,1631829961.75261,1631829963.84999,1631829969.83558,1631829969.83746,1631829970.58815,1631829970.58587,1631830379.02359,1
69,4,2,1,11,7,4,c4_HowHand,1,lifting?,56,H_136.jpg,1631829771.79022,1631829771.79312,179.14593123436,8.03514695167542,187.198973407745,189.299767723084,0.3,196.35243224144,0.816975355148315,197.176041116714,1,left,0.79706883430481,197.169407596588,604.473372211456,607.233372211456,1631829953.69615,1631829953.69847,1631829961.7492,1631829961.75261,1631829963.84999,1631829970.90265,1631829970.90486,1631829971.72626,1631829971.71963,1631830379.02359,1
69,4,2,1,11,8,4,c4_HowHand,2,lifting?,51,H_038.jpg,1631829771.79022,1631829771.79312,179.14593123436,8.03514695167542,187.198973407745,189.299767723084,0.3,197.486194124222,0.866993188858032,198.358646144867,3,right,0.852337121963501,198.35318731308,604.473372211456,607.233372211456,1631829953.69615,1631829953.69847,1631829961.7492,1631829961.75261,1631829963.84999,1631829972.03642,1631829972.03844,1631829972.90887,1631829972.90341,1631830379.02359,0
69,4,2,1,12,1,2,c2_WhyHand,1,competing?,13,H_003.jpg,1631829771.79022,1631829771.79312,198.469898929596,6.24126505851746,204.722260704041,206.823053827286,2.10079312324524,206.973111143112,0.666918516159058,207.642366161346,1,left,0.647152185440063,207.640029659271,604.473372211456,607.233372211456,1631829973.02012,1631829973.02578,1631829979.27248,1631829979.27538,1631829981.37328,1631829981.52333,1631829981.52594,1631829982.19259,1631829982.19025,1631830379.02359,1
69,4,2,1,12,2,2,c2_WhyHand,2,competing?,12,H_483.jpg,1631829771.79022,1631829771.79312,198.469898929596,6.24126505851746,204.722260704041,206.823053827286,0.3,207.956815471649,0.85032057762146,208.809002151489,3,right,0.839679956436157,208.807136049271,604.473372211456,607.233372211456,1631829973.02012,1631829973.02578,1631829979.27248,1631829979.27538,1631829981.37328,1631829982.50704,1631829982.50939,1631829983.35922,1631829983.35736,1631830379.02359,0
69,4,2,1,12,3,2,c2_WhyHand,1,competing?,14,H_132.jpg,1631829771.79022,1631829771.79312,198.469898929596,6.24126505851746,204.722260704041,206.823053827286,0.3,209.123923530579,0.650245428085327,209.776455154419,1,left,0.631587982177734,209.774168958664,604.473372211456,607.233372211456,1631829973.02012,1631829973.02578,1631829979.27248,1631829979.27538,1631829981.37328,1631829983.67415,1631829983.67624,1631829984.32668,1631829984.32439,1631830379.02359,1
69,4,2,1,12,4,2,c2_WhyHand,1,competing?,15,H_170.jpg,1631829771.79022,1631829771.79312,198.469898929596,6.24126505851746,204.722260704041,206.823053827286,0.3,210.090955486298,0.616899728775024,210.710154047012,1,left,0.602296829223633,210.707855215073,604.473372211456,607.233372211456,1631829973.02012,1631829973.02578,1631829979.27248,1631829979.27538,1631829981.37328,1631829984.64118,1631829984.64324,1631829985.26038,1631829985.25808,1631830379.02359,1
69,4,2,1,12,5,2,c2_WhyHand,2,competing?,11,H_502.jpg,1631829771.79022,1631829771.79312,198.469898929596,6.24126505851746,204.722260704041,206.823053827286,0.3,211.024641742706,0.917012929916382,211.944095125198,3,right,0.89124608039856,211.941654672623,604.473372211456,607.233372211456,1631829973.02012,1631829973.02578,1631829979.27248,1631829979.27538,1631829981.37328,1631829985.57486,1631829985.57698,1631829986.49432,1631829986.49188,1631830379.02359,0
69,4,2,1,12,6,2,c2_WhyHand,1,competing?,16,H_136.jpg,1631829771.79022,1631829771.79312,198.469898929596,6.24126505851746,204.722260704041,206.823053827286,0.3,212.258441677094,0.883666753768921,213.144293060303,1,left,0.861636877059937,213.142108430862,604.473372211456,607.233372211456,1631829973.02012,1631829973.02578,1631829979.27248,1631829979.27538,1631829981.37328,1631829986.80866,1631829986.81077,1631829987.69451,1631829987.69233,1631830379.02359,1
69,4,2,1,12,7,2,c2_WhyHand,2,competing?,10,H_126.jpg,1631829771.79022,1631829771.79312,198.469898929596,6.24126505851746,204.722260704041,206.823053827286,0.3,213.458894481659,0.833649158477783,214.309786071777,3,right,0.822327852249146,214.292543640137,604.473372211456,607.233372211456,1631829973.02012,1631829973.02578,1631829979.27248,1631829979.27538,1631829981.37328,1631829988.00912,1631829988.01122,1631829988.86001,1631829988.84277,1631830379.02359,0
69,4,2,1,12,8,2,c2_WhyHand,1,competing?,9,H_261.jpg,1631829771.79022,1631829771.79312,198.469898929596,6.24126505851746,204.722260704041,206.823053827286,0.3,214.609329452515,0.716937065124512,215.342048158646,1,left,0.707074880599976,215.326266517639,604.473372211456,607.233372211456,1631829973.02012,1631829973.02578,1631829979.27248,1631829979.27538,1631829981.37328,1631829989.15955,1631829989.16202,1631829989.89227,1631829989.87649,1631830379.02359,1
69,4,2,1,13,1,1,c1_WhyFace,1,admiring?,5,F_759.jpg,1631829771.79022,1631829771.79312,215.4429774189,7.48806166648865,222.945812215805,225.046605577469,2.10079336166382,225.196662416458,0.733609914779663,225.932530155182,1,left,0.713966846466064,225.930272331238,604.473372211456,607.233372211456,1631829989.9932,1631829989.99544,1631829997.49603,1631829997.49829,1631829999.59683,1631829999.74688,1631829999.74866,1631830000.48275,1631830000.48049,1631830379.02359,1
69,4,2,1,13,2,1,c1_WhyFace,1,admiring?,1,F_593.jpg,1631829771.79022,1631829771.79312,215.4429774189,7.48806166648865,222.945812215805,225.046605577469,0.3,226.247059812546,0.783627986907959,227.032906999588,1,left,0.766627073287964,227.030687799454,604.473372211456,607.233372211456,1631829989.9932,1631829989.99544,1631829997.49603,1631829997.49829,1631829999.59683,1631830000.79728,1631830000.79953,1631830001.58313,1631830001.58091,1631830379.02359,1
69,4,2,1,13,3,1,c1_WhyFace,2,admiring?,6,F_692.jpg,1631829771.79022,1631829771.79312,215.4429774189,7.48806166648865,222.945812215805,225.046605577469,0.3,227.34747385025,0.80030369758606,228.159137954712,3,right,0.785377979278564,228.147777547836,604.473372211456,607.233372211456,1631829989.9932,1631829989.99544,1631829997.49603,1631829997.49829,1631829999.59683,1631830001.8977,1631830001.90015,1631830002.70936,1631830002.698,1631830379.02359,0
69,4,2,1,13,4,1,c1_WhyFace,1,admiring?,8,F_590.jpg,1631829771.79022,1631829771.79312,215.4429774189,7.48806166648865,222.945812215805,225.046605577469,0.3,228.46456407547,0.68359112739563,229.159275999069,1,left,0.67179799079895,229.148155202866,604.473372211456,607.233372211456,1631829989.9932,1631829989.99544,1631829997.49603,1631829997.49829,1631829999.59683,1631830003.01479,1631830003.01704,1631830003.7095,1631830003.69838,1631830379.02359,1
69,4,2,1,13,5,1,c1_WhyFace,2,admiring?,2,F_129.jpg,1631829771.79022,1631829771.79312,215.4429774189,7.48806166648865,222.945812215805,225.046605577469,0.3,229.464941253662,0.800303220748901,230.267438163757,3,right,0.779847145080566,230.265244474411,604.473372211456,607.233372211456,1631829989.9932,1631829989.99544,1631829997.49603,1631829997.49829,1631829999.59683,1631830004.01516,1631830004.01763,1631830004.81766,1631830004.81547,1631830379.02359,0
69,4,2,1,13,6,1,c1_WhyFace,1,admiring?,7,F_648.jpg,1631829771.79022,1631829771.79312,215.4429774189,7.48806166648865,222.945812215805,225.046605577469,0.3,230.582030525208,0.666918277740479,231.258939971924,1,left,0.653284072875977,231.248948802948,604.473372211456,607.233372211456,1631829989.9932,1631829989.99544,1631829997.49603,1631829997.49829,1631829999.59683,1631830005.13225,1631830005.13434,1631830005.80916,1631830005.79917,1631830379.02359,1
69,4,2,1,13,7,1,c1_WhyFace,2,admiring?,3,F_110.jpg,1631829771.79022,1631829771.79312,215.4429774189,7.48806166648865,222.945812215805,225.046605577469,0.3,231.565735330582,0.766957521438599,232.34213303566,3,right,0.750745058059692,232.33269285202,604.473372211456,607.233372211456,1631829989.9932,1631829989.99544,1631829997.49603,1631829997.49829,1631829999.59683,1631830006.11596,1631830006.11807,1631830006.89235,1631830006.88291,1631830379.02359,0
69,4,2,1,13,8,1,c1_WhyFace,1,admiring?,4,F_779.jpg,1631829771.79022,1631829771.79312,215.4429774189,7.48806166648865,222.945812215805,225.046605577469,0.3,232.649478664398,0.616899490356445,233.275320043564,1,left,0.601660966873169,233.266378154755,604.473372211456,607.233372211456,1631829989.9932,1631829989.99544,1631829997.49603,1631829997.49829,1631829999.59683,1631830007.1997,1631830007.20189,1631830007.82554,1631830007.8166,1631830379.02359,1
69,4,2,1,14,1,3,c3_HowFace,1,looking at camera?,64,F_128.jpg,1631829771.79022,1631829771.79312,233.366415729523,7.45467138290405,240.835905303955,242.936697711945,2.1007924079895,243.086755743027,0.56688117980957,243.658948173523,1,left,0.543467998504639,243.653636922836,604.473372211456,607.233372211456,1631830007.91664,1631830007.92543,1631830015.38613,1631830015.39216,1631830017.48692,1631830017.63698,1631830017.64245,1631830018.20917,1631830018.20386,1631830379.02359,1
69,4,2,1,14,2,3,c3_HowFace,2,looking at camera?,58,F_754.jpg,1631829771.79022,1631829771.79312,233.366415729523,7.45467138290405,240.835905303955,242.936697711945,0.3,243.970422973633,0.633572578430176,244.608854999542,3,right,0.614380121231079,244.603995552063,604.473372211456,607.233372211456,1631830007.91664,1631830007.92543,1631830015.38613,1631830015.39216,1631830017.48692,1631830018.52064,1631830018.52572,1631830019.15908,1631830019.15422,1631830379.02359,0
69,4,2,1,14,3,3,c3_HowFace,1,looking at camera?,62,F_598.jpg,1631829771.79022,1631829771.79312,233.366415729523,7.45467138290405,240.835905303955,242.936697711945,0.3,244.92078160286,0.583553552627563,245.506564130783,1,left,0.555333852767944,245.504335155487,604.473372211456,607.233372211456,1631830007.91664,1631830007.92543,1631830015.38613,1631830015.39216,1631830017.48692,1631830019.471,1631830019.47564,1631830020.05679,1631830020.05456,1631830379.02359,1
69,4,2,1,14,4,3,c3_HowFace,1,looking at camera?,59,F_129.jpg,1631829771.79022,1631829771.79312,233.366415729523,7.45467138290405,240.835905303955,242.936697711945,0.3,245.821121444702,0.600227117538452,246.425317993164,1,left,0.585417032241821,246.421348562241,604.473372211456,607.233372211456,1631830007.91664,1631830007.92543,1631830015.38613,1631830015.39216,1631830017.48692,1631830020.37134,1631830020.37586,1631830020.97554,1631830020.97157,1631830379.02359,1
69,4,2,1,14,5,3,c3_HowFace,1,looking at camera?,60,F_618.jpg,1631829771.79022,1631829771.79312,233.366415729523,7.45467138290405,240.835905303955,242.936697711945,0.3,246.738134851456,0.850321531295776,247.592215051651,1,left,0.82598614692688,247.588456382751,604.473372211456,607.233372211456,1631830007.91664,1631830007.92543,1631830015.38613,1631830015.39216,1631830017.48692,1631830021.28836,1631830021.29243,1631830022.14244,1631830022.13868,1631830379.02359,1
69,4,2,1,14,6,3,c3_HowFace,2,looking at camera?,63,F_743.jpg,1631829771.79022,1631829771.79312,233.366415729523,7.45467138290405,240.835905303955,242.936697711945,0.3,247.905242433548,0.666919231414795,248.575613965988,3,right,0.654928922653198,248.572161664963,604.473372211456,607.233372211456,1631830007.91664,1631830007.92543,1631830015.38613,1631830015.39216,1631830017.48692,1631830022.45546,1631830022.4588,1631830023.12584,1631830023.12238,1631830379.02359,0
69,4,2,1,14,7,3,c3_HowFace,1,looking at camera?,61,F_774.jpg,1631829771.79022,1631829771.79312,233.366415729523,7.45467138290405,240.835905303955,242.936697711945,0.3,248.888947477341,0.633572578430176,249.525537958145,1,left,0.618821144104004,249.522520055771,604.473372211456,607.233372211456,1631830007.91664,1631830007.92543,1631830015.38613,1631830015.39216,1631830017.48692,1631830023.43917,1631830023.4428,1631830024.07576,1631830024.07274,1631830379.02359,1
69,4,2,1,14,8,3,c3_HowFace,2,looking at camera?,57,F_582.jpg,1631829771.79022,1631829771.79312,233.366415729523,7.45467138290405,240.835905303955,242.936697711945,0.3,249.839306583405,0.917012929916382,250.758884181976,3,right,0.894159078598022,250.756319513321,604.473372211456,607.233372211456,1631830007.91664,1631830007.92543,1631830015.38613,1631830015.39216,1631830017.48692,1631830024.38953,1631830024.39225,1631830025.30911,1631830025.30654,1631830379.02359,0
69,4,2,1,15,1,4,c4_HowHand,1,pressing button?,88,H_019.jpg,1631829771.79022,1631829771.79312,250.873030414581,11.4281616210938,262.310685863495,264.411479701996,2.10079383850098,264.561535825729,0.750283718109131,265.326204051971,1,left,0.736423015594482,265.311819543839,604.473372211456,607.233372211456,1631830025.42325,1631830025.42578,1631830036.86091,1631830036.86275,1631830038.9617,1631830039.11176,1631830039.11386,1631830039.87643,1631830039.86204,1631830379.02359,1
69,4,2,1,15,2,4,c4_HowHand,1,pressing button?,82,H_126.jpg,1631829771.79022,1631829771.79312,250.873030414581,11.4281616210938,262.310685863495,264.411479701996,0.3,265.628606309891,0.583554267883301,266.225944032669,1,left,0.56868314743042,266.212160577774,604.473372211456,607.233372211456,1631830025.42325,1631830025.42578,1631830036.86091,1631830036.86275,1631830038.9617,1631830040.17883,1631830040.18083,1631830040.77617,1631830040.76238,1631830379.02359,1
69,4,2,1,15,3,4,c4_HowHand,2,pressing button?,85,H_130.jpg,1631829771.79022,1631829771.79312,250.873030414581,11.4281616210938,262.310685863495,264.411479701996,0.3,266.528946151733,0.716938257217407,267.25940202713,3,right,0.705372095108032,267.245884408951,604.473372211456,607.233372211456,1631830025.42325,1631830025.42578,1631830036.86091,1631830036.86275,1631830038.9617,1631830041.07917,1631830041.0814,1631830041.80962,1631830041.79611,1631830379.02359,0
69,4,2,1,15,4,4,c4_HowHand,1,pressing button?,86,H_332.jpg,1631829771.79022,1631829771.79312,250.873030414581,11.4281616210938,262.310685863495,264.411479701996,0.3,267.562670936584,0.733610391616821,268.309110155106,1,left,0.723637819290161,268.296281328201,604.473372211456,607.233372211456,1631830025.42325,1631830025.42578,1631830036.86091,1631830036.86275,1631830038.9617,1631830042.11289,1631830042.11502,1631830042.85933,1631830042.8465,1631830379.02359,1
69,4,2,1,15,5,4,c4_HowHand,2,pressing button?,87,H_024.jpg,1631829771.79022,1631829771.79312,250.873030414581,11.4281616210938,262.310685863495,264.411479701996,0.3,268.613067140579,1.08374261856079,269.698825111389,3,right,1.06500601768494,269.69680975914,604.473372211456,607.233372211456,1631830025.42325,1631830025.42578,1631830036.86091,1631830036.86275,1631830038.9617,1631830043.16329,1631830043.16571,1631830044.24905,1631830044.24703,1631830379.02359,0
69,4,2,1,15,6,4,c4_HowHand,1,pressing button?,84,H_483.jpg,1631829771.79022,1631829771.79312,250.873030414581,11.4281616210938,262.310685863495,264.411479701996,0.3,270.013596525192,0.750284194946289,270.775727024078,1,left,0.736164093017578,270.763880720139,604.473372211456,607.233372211456,1631830025.42325,1631830025.42578,1631830036.86091,1631830036.86275,1631830038.9617,1631830044.56382,1631830044.56606,1631830045.32595,1631830045.3141,1631830379.02359,1
69,4,2,1,15,7,4,c4_HowHand,2,pressing button?,81,H_261.jpg,1631829771.79022,1631829771.79312,250.873030414581,11.4281616210938,262.310685863495,264.411479701996,0.3,271.080666770935,0.616899490356445,271.709108104706,3,right,0.604310989379883,271.697566261292,604.473372211456,607.233372211456,1631830025.42325,1631830025.42578,1631830036.86091,1631830036.86275,1631830038.9617,1631830045.63089,1631830045.63285,1631830046.25933,1631830046.24779,1631830379.02359,0
69,4,2,1,15,8,4,c4_HowHand,1,pressing button?,83,H_502.jpg,1631829771.79022,1631829771.79312,250.873030414581,11.4281616210938,262.310685863495,264.411479701996,0.3,272.014351358414,0.750285387039185,272.767209997177,1,left,0.730644941329956,272.764636745453,604.473372211456,607.233372211456,1631830025.42325,1631830025.42578,1631830036.86091,1631830036.86275,1631830038.9617,1631830046.56457,1631830046.56671,1631830047.31743,1631830047.31486,1631830379.02359,1
69,4,2,1,16,1,2,c2_WhyHand,1,self-protection?,89,H_443.jpg,1631829771.79022,1631829771.79312,272.86467455864,7.27632641792297,280.150760641098,282.25155424118,2.1007936000824,282.401611795425,0.633572101593018,283.038047065735,1,left,0.60242486000061,283.035183897018,604.473372211456,607.233372211456,1631830047.4149,1631830047.426,1631830054.70098,1631830054.70936,1631830056.80178,1631830056.95183,1631830056.95931,1631830057.58827,1631830057.58541,1631830379.02359,1
69,4,2,1,16,2,2,c2_WhyHand,1,self-protection?,94,H_189.jpg,1631829771.79022,1631829771.79312,272.86467455864,7.27632641792297,280.150760641098,282.25155424118,0.3,283.351970424652,0.800302267074585,284.159104099274,1,left,0.778820037841797,284.152272691727,604.473372211456,607.233372211456,1631830047.4149,1631830047.426,1631830054.70098,1631830054.70936,1631830056.80178,1631830057.90219,1631830057.90469,1631830058.70933,1631830058.70249,1631830379.02359,1
69,4,2,1,16,3,2,c2_WhyHand,1,self-protection?,96,H_027.jpg,1631829771.79022,1631829771.79312,272.86467455864,7.27632641792297,280.150760641098,282.25155424118,0.3,284.469059457779,0.68359112739563,285.159145107269,1,left,0.669740915298462,285.152650585175,604.473372211456,607.233372211456,1631830047.4149,1631830047.426,1631830054.70098,1631830054.70936,1631830056.80178,1631830059.01928,1631830059.02145,1631830059.70937,1631830059.70287,1631830379.02359,1
69,4,2,1,16,4,2,c2_WhyHand,2,self-protection?,92,H_532.jpg,1631829771.79022,1631829771.79312,272.86467455864,7.27632641792297,280.150760641098,282.25155424118,0.3,285.469437112808,0.750284671783447,286.225664129257,3,right,0.730955839157104,286.219721784592,604.473372211456,607.233372211456,1631830047.4149,1631830047.426,1631830054.70098,1631830054.70936,1631830056.80178,1631830060.01966,1631830060.02188,1631830060.77589,1631830060.76994,1631830379.02359,0
69,4,2,1,16,5,2,c2_WhyHand,1,self-protection?,93,H_038.jpg,1631829771.79022,1631829771.79312,272.86467455864,7.27632641792297,280.150760641098,282.25155424118,0.3,286.536506643295,0.700264453887939,287.239016046524,1,left,0.674548149108887,287.236771097183,604.473372211456,607.233372211456,1631830047.4149,1631830047.426,1631830054.70098,1631830054.70936,1631830056.80178,1631830061.08673,1631830061.08911,1631830061.78924,1631830061.78699,1631830379.02359,1
69,4,2,1,16,6,2,c2_WhyHand,2,self-protection?,90,H_006.jpg,1631829771.79022,1631829771.79312,272.86467455864,7.27632641792297,280.150760641098,282.25155424118,0.3,287.553558340073,0.733609914779663,288.292714109421,3,right,0.712532997131348,288.287168254852,604.473372211456,607.233372211456,1631830047.4149,1631830047.426,1631830054.70098,1631830054.70936,1631830056.80178,1631830062.10378,1631830062.10984,1631830062.84294,1631830062.83739,1631830379.02359,0
69,4,2,1,16,7,2,c2_WhyHand,2,self-protection?,95,H_332.jpg,1631829771.79022,1631829771.79312,272.86467455864,7.27632641792297,280.150760641098,282.25155424118,0.3,288.603956212997,0.783627510070801,289.392381181717,3,right,0.766029119491577,289.387583723068,604.473372211456,607.233372211456,1631830047.4149,1631830047.426,1631830054.70098,1631830054.70936,1631830056.80178,1631830063.15418,1631830063.15937,1631830063.9426,1631830063.93781,1631830379.02359,0
69,4,2,1,16,8,2,c2_WhyHand,1,self-protection?,91,H_581.jpg,1631829771.79022,1631829771.79312,272.86467455864,7.27632641792297,280.150760641098,282.25155424118,0.3,289.704370727539,0.783629655838013,290.492180099487,1,left,0.77065896987915,290.488000383377,604.473372211456,607.233372211456,1631830047.4149,1631830047.426,1631830054.70098,1631830054.70936,1631830056.80178,1631830064.25459,1631830064.25917,1631830065.0424,1631830065.03822,1631830379.02359,1
69,4,2,1,17,1,4,c4_HowHand,1,reaching?,107,H_007.jpg,1631829771.79022,1631829771.79312,290.604711761475,8.21230435371399,298.82448433876,300.925277938843,2.1007936000824,301.075334062576,0.733611345291138,301.811103096008,1,left,0.720409870147705,301.808945407867,604.473372211456,607.233372211456,1631830065.15493,1631830065.15719,1631830073.37471,1631830073.3769,1631830075.4755,1631830075.62556,1631830075.62762,1631830076.36133,1631830076.35917,1631830379.02359,1
69,4,2,1,17,2,4,c4_HowHand,2,reaching?,108,H_532.jpg,1631829771.79022,1631829771.79312,290.604711761475,8.21230435371399,298.82448433876,300.925277938843,0.3,302.125731220245,0.56688117980957,302.709783067703,1,left,0.555652856826782,302.692612400055,604.473372211456,607.233372211456,1631830065.15493,1631830065.15719,1631830073.37471,1631830073.3769,1631830075.4755,1631830076.67595,1631830076.67843,1631830077.26,1631830077.24283,1631830379.02359,0
69,4,2,1,17,3,4,c4_HowHand,1,reaching?,109,H_474.jpg,1631829771.79022,1631829771.79312,290.604711761475,8.21230435371399,298.82448433876,300.925277938843,0.3,303.009398927689,0.616899251937866,303.642704954147,1,left,0.605370044708252,303.626298179626,604.473372211456,607.233372211456,1631830065.15493,1631830065.15719,1631830073.37471,1631830073.3769,1631830075.4755,1631830077.55962,1631830077.56204,1631830078.19293,1631830078.17652,1631830379.02359,1
69,4,2,1,17,4,4,c4_HowHand,2,reaching?,105,H_438.jpg,1631829771.79022,1631829771.79312,290.604711761475,8.21230435371399,298.82448433876,300.925277938843,0.3,303.943085899353,0.650245666503906,304.59598897934,1,left,0.636432886123657,304.593331565857,604.473372211456,607.233372211456,1631830065.15493,1631830065.15719,1631830073.37471,1631830073.3769,1631830075.4755,1631830078.49331,1631830078.49554,1631830079.14621,1631830079.14355,1631830379.02359,0
69,4,2,1,17,5,4,c4_HowHand,1,reaching?,110,H_364.jpg,1631829771.79022,1631829771.79312,290.604711761475,8.21230435371399,298.82448433876,300.925277938843,0.3,304.910118570328,0.616899013519287,305.529199113846,1,left,0.601806879043579,305.527017583847,604.473372211456,607.233372211456,1631830065.15493,1631830065.15719,1631830073.37471,1631830073.3769,1631830075.4755,1631830079.46034,1631830079.4626,1631830080.07942,1631830080.07724,1631830379.02359,1
69,4,2,1,17,6,4,c4_HowHand,1,reaching?,106,H_006.jpg,1631829771.79022,1631829771.79312,290.604711761475,8.21230435371399,298.82448433876,300.925277938843,0.3,305.843803157806,0.700265169143677,306.5463621521,1,left,0.676820039749146,306.54406832695,604.473372211456,607.233372211456,1631830065.15493,1631830065.15719,1631830073.37471,1631830073.3769,1631830075.4755,1631830080.39403,1631830080.39617,1631830081.09658,1631830081.09429,1631830379.02359,1
69,4,2,1,17,7,4,c4_HowHand,1,reaching?,111,H_003.jpg,1631829771.79022,1631829771.79312,290.604711761475,8.21230435371399,298.82448433876,300.925277938843,0.3,306.860854854584,0.566880702972412,307.429846038818,1,left,0.550766944885254,307.427735557556,604.473372211456,607.233372211456,1631830065.15493,1631830065.15719,1631830073.37471,1631830073.3769,1631830075.4755,1631830081.41108,1631830081.41313,1631830081.98007,1631830081.97796,1631830379.02359,1
69,4,2,1,17,8,4,c4_HowHand,2,reaching?,112,H_132.jpg,1631829771.79022,1631829771.79312,290.604711761475,8.21230435371399,298.82448433876,300.925277938843,0.3,307.744522323608,0.800302028656006,308.547309150696,3,right,0.780920028686523,308.544824352264,604.473372211456,607.233372211456,1631830065.15493,1631830065.15719,1631830073.37471,1631830073.3769,1631830075.4755,1631830082.29474,1631830082.29657,1631830083.09753,1631830083.09505,1631830379.02359,0
69,4,2,1,18,1,2,c2_WhyHand,1,healthy?,21,H_627.jpg,1631829771.79022,1631829771.79312,308.644862165451,9.13667798042297,317.798321237564,319.899115791321,2.10079455375671,320.049172868729,0.800300598144531,320.859732141495,1,left,0.789803981781006,320.849473466873,604.473372211456,607.233372211456,1631830083.19508,1631830083.20968,1631830092.34854,1631830092.35095,1631830094.44934,1631830094.59939,1631830094.60159,1631830095.40995,1631830095.3997,1631830379.02359,1
69,4,2,1,18,2,2,c2_WhyHand,1,healthy?,18,H_438.jpg,1631829771.79022,1631829771.79312,308.644862165451,9.13667798042297,317.798321237564,319.899115791321,0.3,321.166261425018,0.666918277740479,321.836810102463,1,left,0.643740177154541,321.833179702759,604.473372211456,607.233372211456,1631830083.19508,1631830083.20968,1631830092.34854,1631830092.35095,1631830094.44934,1631830095.71648,1631830095.71868,1631830096.38703,1631830096.3834,1631830379.02359,1
69,4,2,1,18,3,2,c2_WhyHand,1,healthy?,23,H_364.jpg,1631829771.79022,1631829771.79312,308.644862165451,9.13667798042297,317.798321237564,319.899115791321,0.3,322.149966945648,0.600225448608398,322.752494087219,1,left,0.580021858215332,322.750192394257,604.473372211456,607.233372211456,1631830083.19508,1631830083.20968,1631830092.34854,1631830092.35095,1631830094.44934,1631830096.70019,1631830096.70257,1631830097.30272,1631830097.30041,1631830379.02359,1
69,4,2,1,18,4,2,c2_WhyHand,2,healthy?,22,H_130.jpg,1631829771.79022,1631829771.79312,308.644862165451,9.13667798042297,317.798321237564,319.899115791321,0.3,323.066979398727,0.800301790237427,323.869628181458,3,right,0.776105165481567,323.867281188965,604.473372211456,607.233372211456,1631830083.19508,1631830083.20968,1631830092.34854,1631830092.35095,1631830094.44934,1631830097.6172,1631830097.6194,1631830098.41985,1631830098.4175,1631830379.02359,0
69,4,2,1,18,5,2,c2_WhyHand,1,healthy?,17,H_362.jpg,1631829771.79022,1631829771.79312,308.644862165451,9.13667798042297,317.798321237564,319.899115791321,0.3,324.184068908691,0.633572816848755,324.819874038696,1,left,0.612556934356689,324.81764172554,604.473372211456,607.233372211456,1631830083.19508,1631830083.20968,1631830092.34854,1631830092.35095,1631830094.44934,1631830098.73429,1631830098.7363,1631830099.3701,1631830099.36786,1631830379.02359,1
69,4,2,1,18,6,2,c2_WhyHand,2,healthy?,20,H_007.jpg,1631829771.79022,1631829771.79312,308.644862165451,9.13667798042297,317.798321237564,319.899115791321,0.3,325.134426584244,0.666918992996216,325.803431024551,3,right,0.644002914428711,325.80134557724,604.473372211456,607.233372211456,1631830083.19508,1631830083.20968,1631830092.34854,1631830092.35095,1631830094.44934,1631830099.68465,1631830099.68675,1631830100.35365,1631830100.35157,1631830379.02359,0
69,4,2,1,18,7,2,c2_WhyHand,1,healthy?,19,H_167.jpg,1631829771.79022,1631829771.79312,308.644862165451,9.13667798042297,317.798321237564,319.899115791321,0.3,326.118131866455,0.60022759437561,326.720666160584,1,left,0.578516960144043,326.718359460831,604.473372211456,607.233372211456,1631830083.19508,1631830083.20968,1631830092.34854,1631830092.35095,1631830094.44934,1631830100.66835,1631830100.67079,1631830101.27089,1631830101.26858,1631830379.02359,1
69,4,2,1,18,8,2,c2_WhyHand,2,healthy?,24,H_019.jpg,1631829771.79022,1631829771.79312,308.644862165451,9.13667798042297,317.798321237564,319.899115791321,0.3,327.035145511627,0.733610868453979,327.77083896637,3,right,0.712522983551025,327.768756380081,604.473372211456,607.233372211456,1631830083.19508,1631830083.20968,1631830092.34854,1631830092.35095,1631830094.44934,1631830101.58537,1631830101.58742,1631830102.32106,1631830102.31898,1631830379.02359,0
69,4,2,1,19,1,1,c1_WhyFace,1,admiring?,4,F_779.jpg,1631829771.79022,1631829771.79312,327.868794670105,12.3942983150482,340.273482074738,342.374276866913,2.10079479217529,342.524335613251,0.666917085647583,343.19317697525,1,left,0.64307713508606,343.191252698898,604.473372211456,607.233372211456,1631830102.41902,1631830102.42635,1631830114.8237,1631830114.8261,1631830116.9245,1631830117.07456,1631830117.07668,1631830117.7434,1631830117.74147,1631830379.02359,1
69,4,2,1,19,2,1,c1_WhyFace,1,admiring?,1,F_593.jpg,1631829771.79022,1631829771.79312,327.868794670105,12.3942983150482,340.273482074738,342.374276866913,0.3,343.508037080765,0.700266361236572,344.225968112946,1,left,0.690201044082642,344.208303442001,604.473372211456,607.233372211456,1631830102.41902,1631830102.42635,1631830114.8237,1631830114.8261,1631830116.9245,1631830118.05826,1631830118.06077,1631830118.77619,1631830118.75853,1631830379.02359,1
69,4,2,1,19,3,1,c1_WhyFace,2,admiring?,3,F_110.jpg,1631829771.79022,1631829771.79312,327.868794670105,12.3942983150482,340.273482074738,342.374276866913,0.3,344.525088062286,0.750285863876343,345.277249088287,3,right,0.731492042541504,345.275373926163,604.473372211456,607.233372211456,1631830102.41902,1631830102.42635,1631830114.8237,1631830114.8261,1631830116.9245,1631830119.07531,1631830119.07779,1631830119.82747,1631830119.8256,1631830379.02359,0
69,4,2,1,19,4,1,c1_WhyFace,1,admiring?,8,F_590.jpg,1631829771.79022,1631829771.79312,327.868794670105,12.3942983150482,340.273482074738,342.374276866913,0.3,345.592159261704,0.650248050689697,346.244565954208,1,left,0.626578807830811,346.242407312393,604.473372211456,607.233372211456,1631830102.41902,1631830102.42635,1631830114.8237,1631830114.8261,1631830116.9245,1631830120.14238,1631830120.14432,1631830120.79479,1631830120.79263,1631830379.02359,1
69,4,2,1,19,5,1,c1_WhyFace,2,admiring?,6,F_692.jpg,1631829771.79022,1631829771.79312,327.868794670105,12.3942983150482,340.273482074738,342.374276866913,0.3,346.559190979004,0.733611822128296,347.295197000504,3,right,0.712520122528076,347.292802801132,604.473372211456,607.233372211456,1631830102.41902,1631830102.42635,1631830114.8237,1631830114.8261,1631830116.9245,1631830121.10941,1631830121.11153,1631830121.84542,1631830121.84302,1631830379.02359,0
69,4,2,1,19,6,1,c1_WhyFace,1,admiring?,5,F_759.jpg,1631829771.79022,1631829771.79312,327.868794670105,12.3942983150482,340.273482074738,342.374276866913,0.3,347.60958861351,0.666918277740479,348.278526058197,1,left,0.650579929351807,348.276506891251,604.473372211456,607.233372211456,1631830102.41902,1631830102.42635,1631830114.8237,1631830114.8261,1631830116.9245,1631830122.15981,1631830122.16217,1631830122.82875,1631830122.82673,1631830379.02359,1
69,4,2,1,19,7,1,c1_WhyFace,1,admiring?,7,F_648.jpg,1631829771.79022,1631829771.79312,327.868794670105,12.3942983150482,340.273482074738,342.374276866913,0.3,348.593294849396,0.650244951248169,349.245869150162,1,left,0.625846862792969,349.243539800644,604.473372211456,607.233372211456,1631830102.41902,1631830102.42635,1631830114.8237,1631830114.8261,1631830116.9245,1631830123.14352,1631830123.14564,1631830123.79609,1631830123.79376,1631830379.02359,1
69,4,2,1,19,8,1,c1_WhyFace,2,admiring?,2,F_129.jpg,1631829771.79022,1631829771.79312,327.868794670105,12.3942983150482,340.273482074738,342.374276866913,0.3,349.560326089859,0.683591842651367,350.245997180939,3,right,0.658761024475098,350.24391793251,604.473372211456,607.233372211456,1631830102.41902,1631830102.42635,1631830114.8237,1631830114.8261,1631830116.9245,1631830124.11055,1631830124.11272,1631830124.79622,1631830124.79414,1631830379.02359,0
69,4,2,1,20,1,3,c3_HowFace,1,smiling?,119,F_139.jpg,1631829771.79022,1631829771.79312,350.343955984116,7.79409408569336,358.146905651093,360.247699489594,2.10079383850098,360.397754898071,0.833649396896362,361.242727031708,1,left,0.809009075164795,361.231404294968,604.473372211456,607.233372211456,1631830124.89418,1631830124.90973,1631830132.69713,1631830132.71073,1631830134.79792,1631830134.94798,1631830134.96012,1631830135.79295,1631830135.78163,1631830379.02359,1
69,4,2,1,20,2,3,c3_HowFace,2,smiling?,113,F_712.jpg,1631829771.79022,1631829771.79312,350.343955984116,7.79409408569336,358.146905651093,360.247699489594,0.3,361.548190584183,0.616899490356445,362.167405118942,3,right,0.598611831665039,362.165090074539,604.473372211456,607.233372211456,1631830124.89418,1631830124.90973,1631830132.69713,1631830132.71073,1631830134.79792,1631830136.09841,1631830136.10058,1631830136.71763,1631830136.71531,1631830379.02359,0
69,4,2,1,20,3,3,c3_HowFace,1,smiling?,115,F_695.jpg,1631829771.79022,1631829771.79312,350.343955984116,7.79409408569336,358.146905651093,360.247699489594,0.3,362.481876125336,0.650246620178223,363.142980089188,1,left,0.635479927062988,363.132122745514,604.473372211456,607.233372211456,1631830124.89418,1631830124.90973,1631830132.69713,1631830132.71073,1631830134.79792,1631830137.0321,1631830137.0342,1631830137.6932,1631830137.68234,1631830379.02359,1
69,4,2,1,20,4,3,c3_HowFace,2,smiling?,120,F_758.jpg,1631829771.79022,1631829771.79312,350.343955984116,7.79409408569336,358.146905651093,360.247699489594,0.3,363.448909273148,0.666918039321899,364.118420114517,3,right,0.641978025436401,364.115827312469,604.473372211456,607.233372211456,1631830124.89418,1631830124.90973,1631830132.69713,1631830132.71073,1631830134.79792,1631830137.99913,1631830138.00132,1631830138.66864,1631830138.66605,1631830379.02359,0
69,4,2,1,20,5,3,c3_HowFace,1,smiling?,116,F_083.jpg,1631829771.79022,1631829771.79312,350.343955984116,7.79409408569336,358.146905651093,360.247699489594,0.3,364.432613363266,0.550209283828735,364.984996070862,1,left,0.529724836349487,364.982822647095,604.473372211456,607.233372211456,1631830124.89418,1631830124.90973,1631830132.69713,1631830132.71073,1631830134.79792,1631830138.98284,1631830138.98517,1631830139.53522,1631830139.53304,1631830379.02359,1
69,4,2,1,20,6,3,c3_HowFace,1,smiling?,118,F_759.jpg,1631829771.79022,1631829771.79312,350.343955984116,7.79409408569336,358.146905651093,360.247699489594,0.3,365.299608221054,0.53353476524353,365.835503091812,1,left,0.511735916137695,365.833142986298,604.473372211456,607.233372211456,1631830124.89418,1631830124.90973,1631830132.69713,1631830132.71073,1631830134.79792,1631830139.84983,1631830139.85196,1631830140.38573,1631830140.38336,1631830379.02359,1
69,4,2,1,20,7,3,c3_HowFace,2,smiling?,114,F_412.jpg,1631829771.79022,1631829771.79312,350.343955984116,7.79409408569336,358.146905651093,360.247699489594,0.3,366.149930706024,0.566880702972412,366.719063987732,3,right,0.542834043502808,366.716811408997,604.473372211456,607.233372211456,1631830124.89418,1631830124.90973,1631830132.69713,1631830132.71073,1631830134.79792,1631830140.70015,1631830140.70207,1631830141.26929,1631830141.26703,1631830379.02359,0
69,4,2,1,20,8,3,c3_HowFace,1,smiling?,117,F_593.jpg,1631829771.79022,1631829771.79312,350.343955984116,7.79409408569336,358.146905651093,360.247699489594,0.3,367.033597459793,0.66691780090332,367.703282108307,1,left,0.646707057952881,367.700515260696,604.473372211456,607.233372211456,1631830124.89418,1631830124.90973,1631830132.69713,1631830132.71073,1631830134.79792,1631830141.58382,1631830141.58626,1631830142.2535,1631830142.25074,1631830379.02359,1
69,4,2,1,21,1,4,c4_HowHand,1,lifting?,56,H_136.jpg,1631829771.79022,1631829771.79312,367.817226400375,9.42880272865295,377.254127492905,379.354921331406,2.10079383850098,379.504977693558,0.750283718109131,380.259159078598,1,left,0.727597951889038,380.255261411667,604.473372211456,607.233372211456,1631830142.36745,1631830142.37645,1631830151.80435,1631830151.80933,1631830153.90514,1631830154.0552,1631830154.05924,1631830154.80938,1631830154.80548,1631830379.02359,1
69,4,2,1,21,2,4,c4_HowHand,2,lifting?,51,H_038.jpg,1631829771.79022,1631829771.79312,367.817226400375,9.42880272865295,377.254127492905,379.354921331406,0.3,380.572048416138,0.866994142532349,381.442476978302,3,right,0.849735975265503,381.43904255867,604.473372211456,607.233372211456,1631830142.36745,1631830142.37645,1631830151.80435,1631830151.80933,1631830153.90514,1631830155.12227,1631830155.12594,1631830155.9927,1631830155.98926,1631830379.02359,0
69,4,2,1,21,3,4,c4_HowHand,1,lifting?,52,H_189.jpg,1631829771.79022,1631829771.79312,367.817226400375,9.42880272865295,377.254127492905,379.354921331406,0.3,381.755828609467,0.566880464553833,382.324122180939,1,left,0.542459964752197,382.32270907402,604.473372211456,607.233372211456,1631830142.36745,1631830142.37645,1631830151.80435,1631830151.80933,1631830153.90514,1631830156.30605,1631830156.30946,1631830156.87434,1631830156.87293,1631830379.02359,1
69,4,2,1,21,4,4,c4_HowHand,2,lifting?,53,H_077.jpg,1631829771.79022,1631829771.79312,367.817226400375,9.42880272865295,377.254127492905,379.354921331406,0.3,382.63949631691,0.733609199523926,383.375766983032,3,right,0.719685077667236,383.373105516434,604.473372211456,607.233372211456,1631830142.36745,1631830142.37645,1631830151.80435,1631830151.80933,1631830153.90514,1631830157.18972,1631830157.19263,1631830157.92599,1631830157.92333,1631830379.02359,0
69,4,2,1,21,5,4,c4_HowHand,1,lifting?,50,H_443.jpg,1631829771.79022,1631829771.79312,367.817226400375,9.42880272865295,377.254127492905,379.354921331406,0.3,383.68989323616,0.683590888977051,384.375627031326,1,left,0.664676904678345,384.373484125137,604.473372211456,607.233372211456,1631830142.36745,1631830142.37645,1631830151.80435,1631830151.80933,1631830153.90514,1631830158.24012,1631830158.24283,1631830158.92585,1631830158.92371,1631830379.02359,1
69,4,2,1,21,6,4,c4_HowHand,2,lifting?,55,H_012.jpg,1631829771.79022,1631829771.79312,367.817226400375,9.42880272865295,377.254127492905,379.354921331406,0.3,384.69027089119,0.666919946670532,385.358491172791,3,right,0.644804954528809,385.35719083786,604.473372211456,607.233372211456,1631830142.36745,1631830142.37645,1631830151.80435,1631830151.80933,1631830153.90514,1631830159.24049,1631830159.24254,1631830159.90871,1631830159.90741,1631830379.02359,0
69,4,2,1,21,7,4,c4_HowHand,1,lifting?,49,H_362.jpg,1631829771.79022,1631829771.79312,367.817226400375,9.42880272865295,377.254127492905,379.354921331406,0.3,385.673976650238,0.583553791046143,386.259390106201,1,left,0.562373161315918,386.257530441284,604.473372211456,607.233372211456,1631830142.36745,1631830142.37645,1631830151.80435,1631830151.80933,1631830153.90514,1631830160.2242,1631830160.22591,1631830160.80961,1631830160.80775,1631830379.02359,1
69,4,2,1,21,8,4,c4_HowHand,1,lifting?,54,H_170.jpg,1631829771.79022,1631829771.79312,367.817226400375,9.42880272865295,377.254127492905,379.354921331406,0.3,386.574317207336,1.08374238014221,387.659497966766,3,right,1.06231999397278,387.658059587479,604.473372211456,607.233372211456,1631830142.36745,1631830142.37645,1631830151.80435,1631830151.80933,1631830153.90514,1631830161.12454,1631830161.12613,1631830162.20972,1631830162.20828,1631830379.02359,0
69,4,2,1,22,1,2,c2_WhyHand,1,helping?,38,H_077.jpg,1631829771.79022,1631829771.79312,387.741423835754,7.02149629592896,394.777417650223,396.878212919235,2.10079526901245,397.028268089294,0.700265884399414,397.742716064453,1,left,0.6892249584198,397.728533973694,604.473372211456,607.233372211456,1631830162.29165,1631830162.29352,1631830169.32764,1631830169.32936,1631830171.42843,1631830171.57849,1631830171.58014,1631830172.29294,1631830172.27876,1631830379.02359,1
69,4,2,1,22,2,2,c2_WhyHand,1,helping?,36,H_349.jpg,1631829771.79022,1631829771.79312,387.741423835754,7.02149629592896,394.777417650223,396.878212919235,0.3,398.045318593979,0.566883087158203,398.613975038528,1,left,0.552915096282959,398.612201681137,604.473372211456,607.233372211456,1631830162.29165,1631830162.29352,1631830169.32764,1631830169.32936,1631830171.42843,1631830172.59554,1631830172.59736,1631830173.1642,1631830173.16242,1631830379.02359,1
69,4,2,1,22,3,2,c2_WhyHand,1,helping?,37,H_474.jpg,1631829771.79022,1631829771.79312,387.741423835754,7.02149629592896,394.777417650223,396.878212919235,0.3,398.928987970352,0.833647489547729,399.764459123611,1,left,0.820962190628052,399.7626354599,604.473372211456,607.233372211456,1631830162.29165,1631830162.29352,1631830169.32764,1631830169.32936,1631830171.42843,1631830173.47921,1631830173.48076,1631830174.31468,1631830174.31286,1631830379.02359,1
69,4,2,1,22,4,2,c2_WhyHand,1,helping?,39,H_024.jpg,1631829771.79022,1631829771.79312,387.741423835754,7.02149629592896,394.777417650223,396.878212919235,0.3,400.079422464371,0.800302028656006,400.881396045685,1,left,0.786755800247192,400.879724493027,604.473372211456,607.233372211456,1631830162.29165,1631830162.29352,1631830169.32764,1631830169.32936,1631830171.42843,1631830174.62964,1631830174.63106,1631830175.43162,1631830175.42995,1631830379.02359,1
69,4,2,1,22,5,2,c2_WhyHand,2,helping?,40,H_012.jpg,1631829771.79022,1631829771.79312,387.741423835754,7.02149629592896,394.777417650223,396.878212919235,0.3,401.19651102066,0.90034031867981,402.097961177826,3,right,0.877730131149292,402.09685133934,604.473372211456,607.233372211456,1631830162.29165,1631830162.29352,1631830169.32764,1631830169.32936,1631830171.42843,1631830175.74673,1631830175.74825,1631830176.64818,1631830176.64707,1631830379.02359,0
69,4,2,1,22,6,2,c2_WhyHand,2,helping?,35,H_159.jpg,1631829771.79022,1631829771.79312,387.741423835754,7.02149629592896,394.777417650223,396.878212919235,0.3,402.413637866974,0.800302505493164,403.225846996307,3,right,0.793040990829468,403.213940372467,604.473372211456,607.233372211456,1631830162.29165,1631830162.29352,1631830169.32764,1631830169.32936,1631830171.42843,1631830176.96386,1631830176.96542,1631830177.77607,1631830177.76416,1631830379.02359,0
69,4,2,1,22,7,2,c2_WhyHand,1,helping?,34,H_111.jpg,1631829771.79022,1631829771.79312,387.741423835754,7.02149629592896,394.777417650223,396.878212919235,0.3,403.530727138519,0.600226402282715,404.142812957764,1,left,0.586977005004883,404.130953540802,604.473372211456,607.233372211456,1631830162.29165,1631830162.29352,1631830169.32764,1631830169.32936,1631830171.42843,1631830178.08095,1631830178.08272,1631830178.69303,1631830178.68118,1631830379.02359,1
69,4,2,1,22,8,2,c2_WhyHand,2,helping?,33,H_091.jpg,1631829771.79022,1631829771.79312,387.741423835754,7.02149629592896,394.777417650223,396.878212919235,0.3,404.44773935318,0.866995096206665,405.315775146484,3,right,0.84925389289856,405.314734449387,604.473372211456,607.233372211456,1631830162.29165,1631830162.29352,1631830169.32764,1631830169.32936,1631830171.42843,1631830178.99796,1631830178.99941,1631830179.866,1631830179.86496,1631830379.02359,0
69,4,2,1,23,1,1,c1_WhyFace,1,proud?,104,F_598.jpg,1631829771.79022,1631829771.79312,405.398099651337,8.41884636878967,413.834622373581,415.935417165756,2.10079479217529,416.085472812653,0.516861915588379,416.609194030762,1,left,0.504194021224976,416.602334728241,604.473372211456,607.233372211456,1631830179.94832,1631830179.95005,1631830188.38484,1631830188.38734,1631830190.48564,1631830190.63569,1631830190.63801,1631830191.15942,1631830191.15256,1631830379.02359,1
69,4,2,1,23,2,1,c1_WhyFace,2,proud?,102,F_760.jpg,1631829771.79022,1631829771.79312,405.398099651337,8.41884636878967,413.834622373581,415.935417165756,0.3,416.919121494293,0.700263977050781,417.626016130447,3,right,0.689626932144165,417.619385471344,604.473372211456,607.233372211456,1631830179.94832,1631830179.95005,1631830188.38484,1631830188.38734,1631830190.48564,1631830191.46934,1631830191.47112,1631830192.17624,1631830192.16961,1631830379.02359,0
69,4,2,1,23,3,1,c1_WhyFace,1,proud?,97,F_582.jpg,1631829771.79022,1631829771.79312,405.398099651337,8.41884636878967,413.834622373581,415.935417165756,0.3,417.936172475815,0.600226640701294,418.542670955658,1,left,0.585694074630737,418.536399116516,604.473372211456,607.233372211456,1631830179.94832,1631830179.95005,1631830188.38484,1631830188.38734,1631830190.48564,1631830192.48639,1631830192.4882,1631830193.09289,1631830193.08662,1631830379.02359,1
69,4,2,1,23,4,1,c1_WhyFace,2,proud?,98,F_412.jpg,1631829771.79022,1631829771.79312,405.398099651337,8.41884636878967,413.834622373581,415.935417165756,0.3,418.853186359406,0.66691780090332,419.526095142365,3,right,0.648344993591309,419.520104160309,604.473372211456,607.233372211456,1631830179.94832,1631830179.95005,1631830188.38484,1631830188.38734,1631830190.48564,1631830193.40341,1631830193.40528,1631830194.07632,1631830194.07033,1631830379.02359,0
69,4,2,1,23,5,1,c1_WhyFace,1,proud?,101,F_083.jpg,1631829771.79022,1631829771.79312,405.398099651337,8.41884636878967,413.834622373581,415.935417165756,0.3,419.836890687943,0.666918754577637,420.50904797554,1,left,0.647446155548096,420.50380944252,604.473372211456,607.233372211456,1631830179.94832,1631830179.95005,1631830188.38484,1631830188.38734,1631830190.48564,1631830194.38711,1631830194.38876,1631830195.05927,1631830195.05403,1631830379.02359,1
69,4,2,1,23,6,1,c1_WhyFace,2,proud?,100,F_776.jpg,1631829771.79022,1631829771.79312,405.398099651337,8.41884636878967,413.834622373581,415.935417165756,0.3,420.820596446991,0.933686256408691,421.75930809021,3,right,0.915676832199097,421.7542827034,604.473372211456,607.233372211456,1631830179.94832,1631830179.95005,1631830188.38484,1631830188.38734,1631830190.48564,1631830195.37082,1631830195.37243,1631830196.30953,1631830196.3045,1631830379.02359,0
69,4,2,1,23,7,1,c1_WhyFace,1,proud?,103,F_618.jpg,1631829771.79022,1631829771.79312,405.398099651337,8.41884636878967,413.834622373581,415.935417165756,0.3,422.07106970787,0.700263977050781,422.775436153412,1,left,0.68287992477417,422.771333684921,604.473372211456,607.233372211456,1631830179.94832,1631830179.95005,1631830188.38484,1631830188.38734,1631830190.48564,1631830196.62129,1631830196.6261,1631830197.32566,1631830197.32156,1631830379.02359,1
69,4,2,1,23,8,1,c1_WhyFace,1,proud?,99,F_695.jpg,1631829771.79022,1631829771.79312,405.398099651337,8.41884636878967,413.834622373581,415.935417165756,0.3,423.088120212555,0.650244951248169,423.74287604332,1,left,0.631850004196167,423.738365163803,604.473372211456,607.233372211456,1631830179.94832,1631830179.95005,1631830188.38484,1631830188.38734,1631830190.48564,1631830197.63834,1631830197.64282,1631830198.2931,1631830198.28859,1631830379.02359,1
69,4,2,1,24,1,3,c3_HowFace,1,looking to side?,72,F_590.jpg,1631829771.79022,1631829771.79312,423.821730365753,7.78532361984253,431.624680271149,433.72547410965,2.10079383850098,433.875531663895,0.75028395652771,434.626878967285,1,left,0.732170820236206,434.625815620422,604.473372211456,607.233372211456,1631830198.37195,1631830198.37557,1631830206.1749,1631830206.17668,1631830208.2757,1631830208.42575,1631830208.42766,1631830209.1771,1631830209.17604,1631830379.02359,1
69,4,2,1,24,2,3,c3_HowFace,1,looking to side?,71,F_433.jpg,1631829771.79022,1631829771.79312,423.821730365753,7.78532361984253,431.624680271149,433.72547410965,0.3,434.942601671219,0.550207376480103,435.493870010376,1,left,0.529441118240356,435.492809047699,604.473372211456,607.233372211456,1631830198.37195,1631830198.37557,1631830206.1749,1631830206.17668,1631830208.2757,1631830209.49282,1631830209.49475,1631830210.04409,1631830210.04303,1631830379.02359,1
69,4,2,1,24,3,3,c3_HowFace,1,looking to side?,67,F_716.jpg,1631829771.79022,1631829771.79312,423.821730365753,7.78532361984253,431.624680271149,433.72547410965,0.3,435.809596529007,0.450170278549194,436.260835161209,1,left,0.434167146682739,436.259766807556,604.473372211456,607.233372211456,1631830198.37195,1631830198.37557,1631830206.1749,1631830206.17668,1631830208.2757,1631830210.35982,1631830210.3612,1631830210.81106,1631830210.80999,1631830379.02359,1
69,4,2,1,24,4,3,c3_HowFace,2,looking to side?,70,F_779.jpg,1631829771.79022,1631829771.79312,423.821730365753,7.78532361984253,431.624680271149,433.72547410965,0.3,436.576552381516,0.516862154006958,437.094467153549,1,left,0.498828172683716,437.093414535522,604.473372211456,607.233372211456,1631830198.37195,1631830198.37557,1631830206.1749,1631830206.17668,1631830208.2757,1631830211.12677,1631830211.12829,1631830211.64469,1631830211.64364,1631830379.02359,0
69,4,2,1,24,5,3,c3_HowFace,1,looking to side?,68,F_760.jpg,1631829771.79022,1631829771.79312,423.821730365753,7.78532361984253,431.624680271149,433.72547410965,0.3,437.410201301575,0.683592081069946,438.095195999146,1,left,0.667177200317383,438.093793382645,604.473372211456,607.233372211456,1631830198.37195,1631830198.37557,1631830206.1749,1631830206.17668,1631830208.2757,1631830211.96042,1631830211.96198,1631830212.64542,1631830212.64402,1631830379.02359,1
69,4,2,1,24,6,3,c3_HowFace,2,looking to side?,66,F_111.jpg,1631829771.79022,1631829771.79312,423.821730365753,7.78532361984253,431.624680271149,433.72547410965,0.3,438.410579195023,0.733611583709717,439.145287981033,3,right,0.719076871871948,439.144190778732,604.473372211456,607.233372211456,1631830198.37195,1631830198.37557,1631830206.1749,1631830206.17668,1631830208.2757,1631830212.9608,1631830212.96288,1631830213.69551,1631830213.69441,1631830379.02359,0
69,4,2,1,24,7,3,c3_HowFace,1,looking to side?,69,F_110.jpg,1631829771.79022,1631829771.79312,423.821730365753,7.78532361984253,431.624680271149,433.72547410965,0.3,439.460976352692,0.550208806991577,440.012628068924,1,left,0.534676074981689,440.011185159683,604.473372211456,607.233372211456,1631830198.37195,1631830198.37557,1631830206.1749,1631830206.17668,1631830208.2757,1631830214.0112,1631830214.01327,1631830214.56285,1631830214.56141,1631830379.02359,1
69,4,2,1,24,8,3,c3_HowFace,2,looking to side?,65,F_798.jpg,1631829771.79022,1631829771.79312,423.821730365753,7.78532361984253,431.624680271149,433.72547410965,0.3,440.327971687317,0.900339603424072,441.229956140518,3,right,0.882813930511475,441.228311290741,604.473372211456,607.233372211456,1631830198.37195,1631830198.37557,1631830206.1749,1631830206.17668,1631830208.2757,1631830214.87819,1631830214.87946,1631830215.78018,1631830215.77853,1631830379.02359,0
69,4,2,1,25,1,1,c1_WhyFace,1,argument?,43,F_716.jpg,1631829771.79022,1631829771.79312,441.311676492691,7.82533264160156,449.147972097397,451.248766174316,2.10079407691956,451.398823490143,0.983704805374146,452.392853012085,3,right,0.970991849899292,452.382528295517,604.473372211456,607.233372211456,1631830215.8619,1631830215.87628,1631830223.69819,1631830223.70008,1631830225.79899,1631830225.94905,1631830225.95048,1631830226.94307,1631830226.93275,1631830379.02359,0
69,4,2,1,25,2,1,c1_WhyFace,2,argument?,44,F_139.jpg,1631829771.79022,1631829771.79312,441.311676492691,7.82533264160156,449.147972097397,451.248766174316,0.3,452.699314346313,0.76695704460144,453.467902173996,3,right,0.747819185256958,453.466271390915,604.473372211456,607.233372211456,1631830215.8619,1631830215.87628,1631830223.69819,1631830223.70008,1631830225.79899,1631830227.24954,1631830227.25089,1631830228.01812,1631830228.01649,1631830379.02359,0
69,4,2,1,25,3,1,c1_WhyFace,1,argument?,41,F_712.jpg,1631829771.79022,1631829771.79312,441.311676492691,7.82533264160156,449.147972097397,451.248766174316,0.3,453.783058156967,0.816975355148315,454.601173152924,1,left,0.799920082092285,454.600033512115,604.473372211456,607.233372211456,1631830215.8619,1631830215.87628,1631830223.69819,1631830223.70008,1631830225.79899,1631830228.33328,1631830228.33459,1631830229.1514,1631830229.15026,1631830379.02359,1
69,4,2,1,25,4,1,c1_WhyFace,2,argument?,45,F_433.jpg,1631829771.79022,1631829771.79312,441.311676492691,7.82533264160156,449.147972097397,451.248766174316,0.3,454.916818370819,0.633574247360229,455.551813116074,3,right,0.613192081451416,455.550392618179,604.473372211456,607.233372211456,1631830215.8619,1631830215.87628,1631830223.69819,1631830223.70008,1631830225.79899,1631830229.46704,1631830229.46874,1631830230.10204,1631830230.10061,1631830379.02359,0
69,4,2,1,25,5,1,c1_WhyFace,1,argument?,42,F_403.jpg,1631829771.79022,1631829771.79312,441.311676492691,7.82533264160156,449.147972097397,451.248766174316,0.3,455.867178907394,0.583554983139038,456.452239980698,1,left,0.565347909927368,456.450733890533,604.473372211456,607.233372211456,1631830215.8619,1631830215.87628,1631830223.69819,1631830223.70008,1631830225.79899,1631830230.4174,1631830230.41899,1631830231.00246,1631830231.00096,1631830379.02359,1
69,4,2,1,25,6,1,c1_WhyFace,2,argument?,46,F_844.jpg,1631829771.79022,1631829771.79312,441.311676492691,7.82533264160156,449.147972097397,451.248766174316,0.3,456.767519702911,0.650245666503906,457.419363965988,3,right,0.631123065948486,457.417765369415,604.473372211456,607.233372211456,1631830215.8619,1631830215.87628,1631830223.69819,1631830223.70008,1631830225.79899,1631830231.31774,1631830231.31921,1631830231.96959,1631830231.96799,1631830379.02359,0
69,4,2,1,25,7,1,c1_WhyFace,1,argument?,47,F_743.jpg,1631829771.79022,1631829771.79312,441.311676492691,7.82533264160156,449.147972097397,451.248766174316,0.3,457.734551420212,0.683591842651367,458.419659128189,1,left,0.66359281539917,458.418143262863,604.473372211456,607.233372211456,1631830215.8619,1631830215.87628,1631830223.69819,1631830223.70008,1631830225.79899,1631830232.28477,1631830232.28652,1631830232.96988,1631830232.96837,1631830379.02359,1
69,4,2,1,25,8,1,c1_WhyFace,1,argument?,48,F_758.jpg,1631829771.79022,1631829771.79312,441.311676492691,7.82533264160156,449.147972097397,451.248766174316,0.3,458.734930267334,0.616899013519287,459.358963956833,1,left,0.609673023223877,459.351829280853,604.473372211456,607.233372211456,1631830215.8619,1631830215.87628,1631830223.69819,1631830223.70008,1631830225.79899,1631830233.28515,1631830233.28668,1631830233.90919,1631830233.90205,1631830379.02359,1
69,4,2,1,26,1,3,c3_HowFace,1,open mouth?,80,F_844.jpg,1631829771.79022,1631829771.79312,459.435195674896,8.49179840087891,467.938409080505,470.039204587936,2.10079550743103,470.189261188507,0.583552122116089,470.776314964294,1,left,0.562663078308105,470.772813310623,604.473372211456,607.233372211456,1631830233.98542,1631830233.99322,1631830242.48863,1631830242.49306,1631830244.58943,1631830244.73948,1631830244.74273,1631830245.32654,1631830245.32304,1631830379.02359,1
69,4,2,1,26,2,3,c3_HowFace,1,open mouth?,74,F_776.jpg,1631829771.79022,1631829771.79312,459.435195674896,8.49179840087891,467.938409080505,470.039204587936,0.3,471.089602222443,0.433495283126831,471.526077976227,1,left,0.41323184967041,471.523097505569,604.473372211456,607.233372211456,1631830233.98542,1631830233.99322,1631830242.48863,1631830242.49306,1631830244.58943,1631830245.63982,1631830245.64277,1631830246.0763,1631830246.07332,1631830379.02359,1
69,4,2,1,26,3,3,c3_HowFace,2,open mouth?,76,F_544.jpg,1631829771.79022,1631829771.79312,459.435195674896,8.49179840087891,467.938409080505,470.039204587936,0.3,471.839885463715,0.666918039321899,472.509315958023,3,right,0.64791202545166,472.506803503037,604.473372211456,607.233372211456,1631830233.98542,1631830233.99322,1631830242.48863,1631830242.49306,1631830244.58943,1631830246.39011,1631830246.39328,1631830247.05954,1631830247.05703,1631830379.02359,0
69,4,2,1,26,4,3,c3_HowFace,1,open mouth?,78,F_692.jpg,1631829771.79022,1631829771.79312,459.435195674896,8.49179840087891,467.938409080505,470.039204587936,0.3,472.823590269089,0.450170278549194,473.276036014557,1,left,0.442523002624512,473.273760547638,604.473372211456,607.233372211456,1631830233.98542,1631830233.99322,1631830242.48863,1631830242.49306,1631830244.58943,1631830247.37381,1631830247.37648,1631830247.82626,1631830247.82398,1631830379.02359,1
69,4,2,1,26,5,3,c3_HowFace,2,open mouth?,77,F_584.jpg,1631829771.79022,1631829771.79312,459.435195674896,8.49179840087891,467.938409080505,470.039204587936,0.3,473.590545883179,0.666919231414795,474.259642114639,3,right,0.653965950012207,474.257465114594,604.473372211456,607.233372211456,1631830233.98542,1631830233.99322,1631830242.48863,1631830242.49306,1631830244.58943,1631830248.14077,1631830248.1432,1631830248.80986,1631830248.80769,1631830379.02359,0
69,4,2,1,26,6,3,c3_HowFace,1,open mouth?,73,F_403.jpg,1631829771.79022,1631829771.79312,459.435195674896,8.49179840087891,467.938409080505,470.039204587936,0.3,474.57425116539,0.483517169952393,475.058974018097,1,left,0.471069812774658,475.057768335342,604.473372211456,607.233372211456,1631830233.98542,1631830233.99322,1631830242.48863,1631830242.49306,1631830244.58943,1631830249.12447,1631830249.12661,1631830249.6092,1631830249.60799,1631830379.02359,1
69,4,2,1,26,7,3,c3_HowFace,1,open mouth?,75,F_086.jpg,1631829771.79022,1631829771.79312,459.435195674896,8.49179840087891,467.938409080505,470.039204587936,0.3,475.374554386139,0.533535480499268,475.909038057327,1,left,0.522836208343506,475.908089866638,604.473372211456,607.233372211456,1631830233.98542,1631830233.99322,1631830242.48863,1631830242.49306,1631830244.58943,1631830249.92478,1631830249.92658,1631830250.45926,1631830250.45831,1631830379.02359,1
69,4,2,1,26,8,3,c3_HowFace,2,open mouth?,79,F_648.jpg,1631829771.79022,1631829771.79312,459.435195674896,8.49179840087891,467.938409080505,470.039204587936,0.3,476.224876394272,0.700264930725098,476.926172008514,1,left,0.680195093154907,476.925141324997,604.473372211456,607.233372211456,1631830233.98542,1631830233.99322,1631830242.48863,1631830242.49306,1631830244.58943,1631830250.7751,1631830250.7768,1631830251.47639,1631830251.47536,1631830379.02359,0
69,4,2,1,27,1,4,c4_HowHand,1,pressing button?,88,H_019.jpg,1631829771.79022,1631829771.79312,477.008505334854,8.98839664459229,486.011909713745,488.112704267502,2.10079455375671,488.262760391235,0.616899967193604,488.880715122223,1,left,0.601336002349854,488.879660358429,604.473372211456,607.233372211456,1631830251.55873,1631830251.56043,1631830260.56213,1631830260.56396,1631830262.66293,1631830262.81298,1631830262.81475,1631830263.43094,1631830263.42988,1631830379.02359,1
69,4,2,1,27,2,4,c4_HowHand,2,pressing button?,87,H_024.jpg,1631829771.79022,1631829771.79312,477.008505334854,8.98839664459229,486.011909713745,488.112704267502,0.3,489.196447124481,0.816975355148315,490.014671077728,3,right,0.804903030395508,490.01342247963,604.473372211456,607.233372211456,1631830251.55873,1631830251.56043,1631830260.56213,1631830260.56396,1631830262.66293,1631830263.74667,1631830263.74801,1631830264.56489,1631830264.56364,1631830379.02359,0
69,4,2,1,27,3,4,c4_HowHand,2,pressing button?,85,H_130.jpg,1631829771.79022,1631829771.79312,477.008505334854,8.98839664459229,486.011909713745,488.112704267502,0.3,490.3302094841,0.650245666503906,490.992369165421,3,right,0.639391899108887,490.980455150604,604.473372211456,607.233372211456,1631830251.55873,1631830251.56043,1631830260.56213,1631830260.56396,1631830262.66293,1631830264.88043,1631830264.88195,1631830265.54259,1631830265.53068,1631830379.02359,0
69,4,2,1,27,4,4,c4_HowHand,1,pressing button?,83,H_502.jpg,1631829771.79022,1631829771.79312,477.008505334854,8.98839664459229,486.011909713745,488.112704267502,0.3,491.297241678238,0.550207614898682,491.848581066132,1,left,0.530886888504028,491.847449293137,604.473372211456,607.233372211456,1631830251.55873,1631830251.56043,1631830260.56213,1631830260.56396,1631830262.66293,1631830265.84746,1631830265.84914,1631830266.3988,1631830266.39767,1631830379.02359,1
69,4,2,1,27,5,4,c4_HowHand,2,pressing button?,81,H_261.jpg,1631829771.79022,1631829771.79312,477.008505334854,8.98839664459229,486.011909713745,488.112704267502,0.3,492.164236774445,0.566880941390991,492.742683162689,3,right,0.559231996536255,492.731117715836,604.473372211456,607.233372211456,1631830251.55873,1631830251.56043,1631830260.56213,1631830260.56396,1631830262.66293,1631830266.71446,1631830266.71623,1631830267.29291,1631830267.28134,1631830379.02359,0
69,4,2,1,27,6,4,c4_HowHand,1,pressing button?,86,H_332.jpg,1631829771.79022,1631829771.79312,477.008505334854,8.98839664459229,486.011909713745,488.112704267502,0.3,493.047903528214,0.700265169143677,493.759196987152,1,left,0.689981937408447,493.748168697357,604.473372211456,607.233372211456,1631830251.55873,1631830251.56043,1631830260.56213,1631830260.56396,1631830262.66293,1631830267.59813,1631830267.59998,1631830268.30942,1631830268.29839,1631830379.02359,1
69,4,2,1,27,7,4,c4_HowHand,1,pressing button?,82,H_126.jpg,1631829771.79022,1631829771.79312,477.008505334854,8.98839664459229,486.011909713745,488.112704267502,0.3,494.064954748154,0.866995096206665,494.942711105347,1,left,0.859241008758545,494.93194984436,604.473372211456,607.233372211456,1631830251.55873,1631830251.56043,1631830260.56213,1631830260.56396,1631830262.66293,1631830268.61518,1631830268.61664,1631830269.49293,1631830269.48217,1631830379.02359,1
