src_subject_id,session_id,run_id,param_counterbalance_ver,param_block_num,param_trial_num,param_cond_type_num,param_cond_type_string,param_normative_response,param_ques_type_string,param_image_num,param_image_filename,param_trigger_onset,param_start_biopac,event01_fixation,event01_fixation_dur,event01_blockquestion_onset,event01_block_isi_blacksreen,event01_blockquestion_dur,event02_image_onset,event02_image_dur,event03_response_onset,event03_response_key,event03_response_keyname,event03_RT,event04_shortquestion_onset,param_end_instruct_onset,param_experiment_duration,RAW_e1_fixation,RAW_e1_fixation_biopac,RAW_e1_blockquestion_onset,RAW_e1_blockquestion_onset_biopac,RAW_e1_block_isi_blacksreen,RAW_e2_image_onset,RAW_e2_image_onset_biopac,RAW_e3_response_onset,RAW_e4_shortquestion_onset,RAW_param_end_instruct_onset,accuracy
109,4,1,3,1,1,4,c4_HowHand,1,reaching?,107,H_007.jpg,1646940765.58184,1646940765.59205,0.0460405254364011,0.0413875579833984,0.0960600280761716,2.11347817420959,2.01741814613342,2.2635321521759,1.31715893745422,3.58666109085083,1,left,1.29316091537476,3.58069108963013,604.471444358826,607.231444358826,1646940768.38788,1646940768.39641,1646940768.4379,1646940768.44446,1646940770.45532,1646940770.60538,1646940770.6105,1646940771.9285,1646940771.92253,1646941372.81329,1
109,4,1,3,1,2,4,c4_HowHand,2,reaching?,108,H_532.jpg,1646940765.58184,1646940765.59205,0.0460405254364011,0.0413875579833984,0.0960600280761716,2.11347817420959,0.3,3.89747594833374,1.1004102230072,5.00196217536926,3,right,1.08789587020874,4.99788617134094,604.471444358826,607.231444358826,1646940768.38788,1646940768.39641,1646940768.4379,1646940768.44446,1646940770.45532,1646940772.23932,1646940772.24453,1646940773.34381,1646940773.33973,1646941372.81329,0
109,4,1,3,1,3,4,c4_HowHand,1,reaching?,109,H_474.jpg,1646940765.58184,1646940765.59205,0.0460405254364011,0.0413875579833984,0.0960600280761716,2.11347817420959,0.3,5.31467126846313,0.967027187347412,6.28650616645813,1,left,0.956552028656006,6.28169845581055,604.471444358826,607.231444358826,1646940768.38788,1646940768.39641,1646940768.4379,1646940768.44446,1646940770.45532,1646940773.65651,1646940773.66102,1646940774.62835,1646940774.62354,1646941372.81329,1
109,4,1,3,1,4,4,c4_HowHand,2,reaching?,105,H_438.jpg,1646940765.58184,1646940765.59205,0.0460405254364011,0.0413875579833984,0.0960600280761716,2.11347817420959,0.3,6.59848355293274,0.683587789535522,7.28593205451965,1,left,0.671654939651489,7.28207134246826,604.471444358826,607.231444358826,1646940768.38788,1646940768.39641,1646940768.4379,1646940768.44446,1646940770.45532,1646940774.94033,1646940774.94453,1646940775.62777,1646940775.62391,1646941372.81329,0
109,4,1,3,1,5,4,c4_HowHand,1,reaching?,110,H_364.jpg,1646940765.58184,1646940765.59205,0.0460405254364011,0.0413875579833984,0.0960600280761716,2.11347817420959,0.3,7.59885787010193,0.783624410629272,8.38593410491943,1,left,0.767698049545288,8.3824822807312,604.471444358826,607.231444358826,1646940768.38788,1646940768.39641,1646940768.4379,1646940768.44446,1646940770.45532,1646940775.9407,1646940775.94564,1646940776.72778,1646940776.72433,1646941372.81329,1
109,4,1,3,1,6,4,c4_HowHand,1,reaching?,106,H_006.jpg,1646940765.58184,1646940765.59205,0.0460405254364011,0.0413875579833984,0.0960600280761716,2.11347817420959,0.3,8.69926713943481,0.833644151687622,9.53517507553101,1,left,0.810479164123535,9.53291129112244,604.471444358826,607.231444358826,1646940768.38788,1646940768.39641,1646940768.4379,1646940768.44446,1646940770.45532,1646940777.04111,1646940777.04416,1646940777.87702,1646940777.87475,1646941372.81329,1
109,4,1,3,1,7,4,c4_HowHand,1,reaching?,111,H_003.jpg,1646940765.58184,1646940765.59205,0.0460405254364011,0.0413875579833984,0.0960600280761716,2.11347817420959,0.3,9.84969662666321,0.983700037002563,10.8351361656189,1,left,0.96095609664917,10.8333966636658,604.471444358826,607.231444358826,1646940768.38788,1646940768.39641,1646940768.4379,1646940768.44446,1646940770.45532,1646940778.19154,1646940778.19414,1646940779.17698,1646940779.17524,1646941372.81329,1
109,4,1,3,1,8,4,c4_HowHand,2,reaching?,112,H_132.jpg,1646940765.58184,1646940765.59205,0.0460405254364011,0.0413875579833984,0.0960600280761716,2.11347817420959,0.3,11.1501812839508,0.816970586776733,11.9685861968994,3,right,0.809266090393066,11.9671518707275,604.471444358826,607.231444358826,1646940768.38788,1646940768.39641,1646940768.4379,1646940768.44446,1646940770.45532,1646940779.49202,1646940779.49414,1646940780.31043,1646940780.30899,1646941372.81329,0
109,4,1,3,2,1,2,c2_WhyHand,1,healthy?,21,H_627.jpg,1646940765.58184,1646940765.59205,12.1505544090271,5.38064074516296,17.5358950996399,19.6366791629791,2.10078406333923,19.7867350482941,1.21712064743042,21.0050640010834,1,left,1.19139289855957,21.0038556957245,604.471444358826,607.231444358826,1646940780.4924,1646940780.49499,1646940785.87774,1646940785.89508,1646940787.97852,1646940788.12858,1646940788.14486,1646940789.34691,1646940789.3457,1646941372.81329,1
109,4,1,3,2,2,2,c2_WhyHand,1,healthy?,18,H_438.jpg,1646940765.58184,1646940765.59205,12.1505544090271,5.38064074516296,17.5358950996399,19.6366791629791,0.3,21.3206407928467,1.33383059501648,22.6561560535431,1,left,1.3188579082489,22.6544713878632,604.471444358826,607.231444358826,1646940780.4924,1646940780.49499,1646940785.87774,1646940785.89508,1646940787.97852,1646940789.66248,1646940789.66426,1646940790.998,1646940790.99631,1646941372.81329,1
109,4,1,3,2,3,2,c2_WhyHand,1,healthy?,23,H_364.jpg,1646940765.58184,1646940765.59205,12.1505544090271,5.38064074516296,17.5358950996399,19.6366791629791,0.3,22.9712569618225,0.866989612579346,23.8520982170105,1,left,0.856322050094604,23.8382465744019,604.471444358826,607.231444358826,1646940780.4924,1646940780.49499,1646940785.87774,1646940785.89508,1646940787.97852,1646940791.3131,1646940791.31487,1646940792.19394,1646940792.18009,1646941372.81329,1
109,4,1,3,2,4,2,c2_WhyHand,2,healthy?,22,H_130.jpg,1646940765.58184,1646940765.59205,12.1505544090271,5.38064074516296,17.5358950996399,19.6366791629791,0.3,24.1550319099426,0.833643913269043,24.9903139972687,3,right,0.814502000808716,24.9886758232117,604.471444358826,607.231444358826,1646940780.4924,1646940780.49499,1646940785.87774,1646940785.89508,1646940787.97852,1646940792.49687,1646940792.49872,1646940793.33216,1646940793.33052,1646941372.81329,0
109,4,1,3,2,5,2,c2_WhyHand,1,healthy?,17,H_362.jpg,1646940765.58184,1646940765.59205,12.1505544090271,5.38064074516296,17.5358950996399,19.6366791629791,0.3,25.3054602050781,0.800298690795898,26.1073181533813,1,left,0.785136938095093,26.105758895874,604.471444358826,607.231444358826,1646940780.4924,1646940780.49499,1646940785.87774,1646940785.89508,1646940787.97852,1646940793.6473,1646940793.649,1646940794.44916,1646940794.4476,1646941372.81329,1
109,4,1,3,2,6,2,c2_WhyHand,2,healthy?,20,H_007.jpg,1646940765.58184,1646940765.59205,12.1505544090271,5.38064074516296,17.5358950996399,19.6366791629791,0.3,26.4225430393219,1.01704621315002,27.4523651504517,3,right,1.00832414627075,27.4395892524719,604.471444358826,607.231444358826,1646940780.4924,1646940780.49499,1646940785.87774,1646940785.89508,1646940787.97852,1646940794.76439,1646940794.76611,1646940795.79421,1646940795.78143,1646941372.81329,0
109,4,1,3,2,7,2,c2_WhyHand,1,healthy?,19,H_167.jpg,1646940765.58184,1646940765.59205,12.1505544090271,5.38064074516296,17.5358950996399,19.6366791629791,0.3,27.7563745880127,0.716932773590088,28.4744861030579,1,left,0.696330070495605,28.4733073616028,604.471444358826,607.231444358826,1646940780.4924,1646940780.49499,1646940785.87774,1646940785.89508,1646940787.97852,1646940796.09822,1646940796.09977,1646940796.81633,1646940796.81515,1646941372.81329,1
109,4,1,3,2,8,2,c2_WhyHand,2,healthy?,24,H_019.jpg,1646940765.58184,1646940765.59205,12.1505544090271,5.38064074516296,17.5358950996399,19.6366791629791,0.3,28.790092458725,1.01704740524292,29.819302072525,3,right,1.0097930431366,29.8071398639679,604.471444358826,607.231444358826,1646940780.4924,1646940780.49499,1646940785.87774,1646940785.89508,1646940787.97852,1646940797.13194,1646940797.13361,1646940798.16114,1646940798.14898,1646941372.81329,0
109,4,1,3,3,1,1,c1_WhyFace,1,admiring?,4,F_779.jpg,1646940765.58184,1646940765.59205,29.9238490962982,6.71522402763367,36.6430208587647,38.7438056373596,2.10078477859497,38.8938605690002,1.71730804443359,40.6286160850525,1,left,1.70441002845764,40.6111686134338,604.471444358826,607.231444358826,1646940798.26569,1646940798.27734,1646940804.98486,1646940804.99428,1646940807.08565,1646940807.2357,1646940807.24447,1646940808.97046,1646940808.95301,1646941372.81329,1
109,4,1,3,3,2,1,c1_WhyFace,1,admiring?,1,F_593.jpg,1646940765.58184,1646940765.59205,29.9238490962982,6.71522402763367,36.6430208587647,38.7438056373596,0.3,40.9279522800446,0.750280380249023,41.6857001686096,1,left,0.734458923339844,41.6782326602936,604.471444358826,607.231444358826,1646940798.26569,1646940798.27734,1646940804.98486,1646940804.99428,1646940807.08565,1646940809.2698,1646940809.27147,1646940810.02754,1646940810.02008,1646941372.81329,1
109,4,1,3,3,3,1,c1_WhyFace,2,admiring?,3,F_110.jpg,1646940765.58184,1646940765.59205,29.9238490962982,6.71522402763367,36.6430208587647,38.7438056373596,0.3,41.9950175189972,1.11708498001099,43.1192250156403,3,right,1.10920691490173,43.1121024990082,604.471444358826,607.231444358826,1646940798.26569,1646940798.27734,1646940804.98486,1646940804.99428,1646940807.08565,1646940810.33686,1646940810.33864,1646940811.46107,1646940811.45395,1646941372.81329,0
109,4,1,3,3,4,1,c1_WhyFace,1,admiring?,8,F_590.jpg,1646940765.58184,1646940765.59205,29.9238490962982,6.71522402763367,36.6430208587647,38.7438056373596,0.3,43.4288859272003,0.766952276229858,44.202464094162,1,left,0.757452011108398,44.1958382034302,604.471444358826,607.231444358826,1646940798.26569,1646940798.27734,1646940804.98486,1646940804.99428,1646940807.08565,1646940811.77073,1646940811.77269,1646940812.54431,1646940812.53768,1646941372.81329,1
109,4,1,3,3,5,1,c1_WhyFace,2,admiring?,6,F_692.jpg,1646940765.58184,1646940765.59205,29.9238490962982,6.71522402763367,36.6430208587647,38.7438056373596,0.3,44.5126223468781,1.06706500053406,45.5856001281738,3,right,1.05260682106018,45.5796873474121,604.471444358826,607.231444358826,1646940798.26569,1646940798.27734,1646940804.98486,1646940804.99428,1646940807.08565,1646940812.85447,1646940812.85648,1646940813.92744,1646940813.92153,1646941372.81329,0
109,4,1,3,3,6,1,c1_WhyFace,1,admiring?,5,F_759.jpg,1646940765.58184,1646940765.59205,29.9238490962982,6.71522402763367,36.6430208587647,38.7438056373596,0.3,45.8964722061157,0.68358850479126,46.5854101085663,1,left,0.665148019790649,46.580060710907,604.471444358826,607.231444358826,1646940798.26569,1646940798.27734,1646940804.98486,1646940804.99428,1646940807.08565,1646940814.23832,1646940814.23997,1646940814.92725,1646940814.9219,1646941372.81329,1
109,4,1,3,3,7,1,c1_WhyFace,1,admiring?,7,F_648.jpg,1646940765.58184,1646940765.59205,29.9238490962982,6.71522402763367,36.6430208587647,38.7438056373596,0.3,46.896845331192,0.750277996063232,47.6520361804962,1,left,0.740141868591309,47.6471233272553,604.471444358826,607.231444358826,1646940798.26569,1646940798.27734,1646940804.98486,1646940804.99428,1646940807.08565,1646940815.23869,1646940815.24062,1646940815.99388,1646940815.98897,1646941372.81329,1
109,4,1,3,3,8,1,c1_WhyFace,2,admiring?,2,F_129.jpg,1646940765.58184,1646940765.59205,29.9238490962982,6.71522402763367,36.6430208587647,38.7438056373596,0.3,47.9639103317261,0.950354099273682,48.9193332099915,3,right,0.936516046524048,48.9142644309998,604.471444358826,607.231444358826,1646940798.26569,1646940798.27734,1646940804.98486,1646940804.99428,1646940807.08565,1646940816.30575,1646940816.31088,1646940817.26118,1646940817.25611,1646941372.81329,0
109,4,1,3,4,1,3,c3_HowFace,1,smiling?,119,F_139.jpg,1646940765.58184,1646940765.59205,49.0143015289307,6.58903360366821,55.6167635822296,57.7175478839874,2.10078430175781,57.8676030540466,0.733607530593872,58.6022632026672,1,left,0.715358018875122,58.6012105846405,604.471444358826,607.231444358826,1646940817.35614,1646940817.36081,1646940823.95861,1646940823.96125,1646940826.05939,1646940826.20945,1646940826.21153,1646940826.94411,1646940826.94305,1646941372.81329,1
109,4,1,3,4,2,3,c3_HowFace,2,smiling?,113,F_712.jpg,1646940765.58184,1646940765.59205,49.0143015289307,6.58903360366821,55.6167635822296,57.7175478839874,0.3,58.9179954433441,0.68358850479126,59.6026379966736,3,right,0.668416976928711,59.6015839481354,604.471444358826,607.231444358826,1646940817.35614,1646940817.36081,1646940823.95861,1646940823.96125,1646940826.05939,1646940827.25984,1646940827.26108,1646940827.94448,1646940827.94343,1646941372.81329,0
109,4,1,3,4,3,3,c3_HowFace,1,smiling?,115,F_695.jpg,1646940765.58184,1646940765.59205,49.0143015289307,6.58903360366821,55.6167635822296,57.7175478839874,0.3,59.9183668994904,0.800299406051636,60.7200391197205,1,left,0.790971994400024,60.718666305542,604.471444358826,607.231444358826,1646940817.35614,1646940817.36081,1646940823.95861,1646940823.96125,1646940826.05939,1646940828.26021,1646940828.26178,1646940829.06188,1646940829.06051,1646941372.81329,1
109,4,1,3,4,4,3,c3_HowFace,2,smiling?,120,F_758.jpg,1646940765.58184,1646940765.59205,49.0143015289307,6.58903360366821,55.6167635822296,57.7175478839874,0.3,61.0354514026642,0.783624649047852,61.820108165741,3,right,0.768476963043213,61.819076051712,604.471444358826,607.231444358826,1646940817.35614,1646940817.36081,1646940823.95861,1646940823.96125,1646940826.05939,1646940829.37729,1646940829.37915,1646940830.16195,1646940830.16092,1646941372.81329,0
109,4,1,3,4,5,3,c3_HowFace,1,smiling?,116,F_083.jpg,1646940765.58184,1646940765.59205,49.0143015289307,6.58903360366821,55.6167635822296,57.7175478839874,0.3,62.1358613872528,0.633570194244385,62.7705759906769,1,left,0.610366106033325,62.7694315814972,604.471444358826,607.231444358826,1646940817.35614,1646940817.36081,1646940823.95861,1646940823.96125,1646940826.05939,1646940830.4777,1646940830.4797,1646940831.11242,1646940831.11127,1646941372.81329,1
109,4,1,3,4,6,3,c3_HowFace,1,smiling?,118,F_759.jpg,1646940765.58184,1646940765.59205,49.0143015289307,6.58903360366821,55.6167635822296,57.7175478839874,0.3,63.086216917038,0.650241374969482,63.7379431629181,1,left,0.630465030670166,63.7364582920074,604.471444358826,607.231444358826,1646940817.35614,1646940817.36081,1646940823.95861,1646940823.96125,1646940826.05939,1646940831.42806,1646940831.42965,1646940832.07979,1646940832.0783,1646941372.81329,1
109,4,1,3,4,7,3,c3_HowFace,2,smiling?,114,F_412.jpg,1646940765.58184,1646940765.59205,49.0143015289307,6.58903360366821,55.6167635822296,57.7175478839874,0.3,64.0532431507111,0.700261354446411,64.755202999115,3,right,0.679211139678955,64.7535045051575,604.471444358826,607.231444358826,1646940817.35614,1646940817.36081,1646940823.95861,1646940823.96125,1646940826.05939,1646940832.39509,1646940832.39667,1646940833.09705,1646940833.09535,1646941372.81329,0
109,4,1,3,4,8,3,c3_HowFace,1,smiling?,117,F_593.jpg,1646940765.58184,1646940765.59205,49.0143015289307,6.58903360366821,55.6167635822296,57.7175478839874,0.3,65.0702888870239,0.783626079559326,65.8549921417236,1,left,0.767369985580444,65.8539149665832,604.471444358826,607.231444358826,1646940817.35614,1646940817.36081,1646940823.95861,1646940823.96125,1646940826.05939,1646940833.41213,1646940833.41368,1646940834.19684,1646940834.19576,1646941372.81329,1
109,4,1,3,5,1,4,c4_HowHand,1,lifting?,56,H_136.jpg,1646940765.58184,1646940765.59205,65.920606842041,7.21327328681946,73.1399652862549,75.2407486343384,2.1007833480835,75.3908047580719,1.00037384033203,76.3926601314545,3,right,0.970355033874512,76.3911785984039,604.471444358826,607.231444358826,1646940834.26245,1646940834.26472,1646940841.48181,1646940841.49509,1646940843.58259,1646940843.73265,1646940843.74453,1646940844.7345,1646940844.73302,1646941372.81329,0
109,4,1,3,5,2,4,c4_HowHand,2,lifting?,51,H_038.jpg,1646940765.58184,1646940765.59205,65.920606842041,7.21327328681946,73.1399652862549,75.2407486343384,0.3,76.7079625034332,1.38384914398193,78.1021971607208,3,right,1.37295317649841,78.0918116474152,604.471444358826,607.231444358826,1646940834.26245,1646940834.26472,1646940841.48181,1646940841.49509,1646940843.58259,1646940845.04981,1646940845.05171,1646940846.44404,1646940846.43365,1646941372.81329,0
109,4,1,3,5,3,4,c4_HowHand,1,lifting?,52,H_189.jpg,1646940765.58184,1646940765.59205,65.920606842041,7.21327328681946,73.1399652862549,75.2407486343384,0.3,78.4085965061188,0.933681964874268,79.3520080947876,1,left,0.92106294631958,79.342278470993,604.471444358826,607.231444358826,1646940834.26245,1646940834.26472,1646940841.48181,1646940841.49509,1646940843.58259,1646940846.75044,1646940846.75225,1646940847.69385,1646940847.68412,1646941372.81329,1
109,4,1,3,5,4,4,c4_HowHand,2,lifting?,53,H_077.jpg,1646940765.58184,1646940765.59205,65.920606842041,7.21327328681946,73.1399652862549,75.2407486343384,0.3,79.6590626144409,0.716934680938721,80.3779671096802,3,right,0.694674968719482,80.3759972953796,604.471444358826,607.231444358826,1646940834.26245,1646940834.26472,1646940841.48181,1646940841.49509,1646940843.58259,1646940848.00091,1646940848.00257,1646940848.71981,1646940848.71784,1646941372.81329,0
109,4,1,3,5,5,4,c4_HowHand,1,lifting?,50,H_443.jpg,1646940765.58184,1646940765.59205,65.920606842041,7.21327328681946,73.1399652862549,75.2407486343384,0.3,80.6927814388275,0.967028379440308,81.6614990139008,1,left,0.945904970169067,81.6598098182678,604.471444358826,607.231444358826,1646940834.26245,1646940834.26472,1646940841.48181,1646940841.49509,1646940843.58259,1646940849.03462,1646940849.03632,1646940850.00334,1646940850.00165,1646941372.81329,1
109,4,1,3,5,6,4,c4_HowHand,2,lifting?,55,H_012.jpg,1646940765.58184,1646940765.59205,65.920606842041,7.21327328681946,73.1399652862549,75.2407486343384,0.3,81.9765942001343,0.80029821395874,82.7780132198334,3,right,0.776674032211304,82.776892414093,604.471444358826,607.231444358826,1646940834.26245,1646940834.26472,1646940841.48181,1646940841.49509,1646940843.58259,1646940850.31844,1646940850.32068,1646940851.11986,1646940851.11874,1646941372.81329,0
109,4,1,3,5,7,4,c4_HowHand,1,lifting?,49,H_362.jpg,1646940765.58184,1646940765.59205,65.920606842041,7.21327328681946,73.1399652862549,75.2407486343384,0.3,83.0936751270294,0.750281810760498,83.8525011444092,1,left,0.737071990966797,83.8439569377899,604.471444358826,607.231444358826,1646940834.26245,1646940834.26472,1646940841.48181,1646940841.49509,1646940843.58259,1646940851.43552,1646940851.43777,1646940852.19434,1646940852.1858,1646941372.81329,1
109,4,1,3,5,8,4,c4_HowHand,1,lifting?,54,H_170.jpg,1646940765.58184,1646940765.59205,65.920606842041,7.21327328681946,73.1399652862549,75.2407486343384,0.3,84.1607417964935,0.933680534362793,85.1025400066376,3,right,0.91831111907959,85.0944223308563,604.471444358826,607.231444358826,1646940834.26245,1646940834.26472,1646940841.48181,1646940841.49509,1646940843.58259,1646940852.50258,1646940852.5041,1646940853.44438,1646940853.43627,1646941372.81329,0
109,4,1,3,6,1,2,c2_WhyHand,1,helping?,38,H_077.jpg,1646940765.58184,1646940765.59205,85.1944603824615,10.4205586910248,95.6316864395142,97.7324695491791,2.10078310966492,97.8825259113312,0.816970586776733,98.7016501331329,1,left,0.808042049407959,98.6994964981079,604.471444358826,607.231444358826,1646940853.5363,1646940853.53772,1646940863.97353,1646940863.97787,1646940866.07431,1646940866.22437,1646940866.22798,1646940867.04349,1646940867.04134,1646941372.81329,1
109,4,1,3,6,2,2,c2_WhyHand,1,helping?,36,H_349.jpg,1646940765.58184,1646940765.59205,85.1944603824615,10.4205586910248,95.6316864395142,97.7324695491791,0.3,99.0162818336487,0.983700752258301,100.001661052704,1,left,0.974486112594604,99.999982585907,604.471444358826,607.231444358826,1646940853.5363,1646940853.53772,1646940863.97353,1646940863.97787,1646940866.07431,1646940867.35812,1646940867.36073,1646940868.3435,1646940868.34183,1646941372.81329,1
109,4,1,3,6,3,2,c2_WhyHand,1,helping?,37,H_474.jpg,1646940765.58184,1646940765.59205,85.1944603824615,10.4205586910248,95.6316864395142,97.7324695491791,0.3,100.316766014099,1.13375639915466,101.451763143539,3,right,1.11795091629028,101.450522413254,604.471444358826,607.231444358826,1646940853.5363,1646940853.53772,1646940863.97353,1646940863.97787,1646940866.07431,1646940868.65861,1646940868.66079,1646940869.79361,1646940869.79237,1646941372.81329,0
109,4,1,3,6,4,2,c2_WhyHand,1,helping?,39,H_024.jpg,1646940765.58184,1646940765.59205,85.1944603824615,10.4205586910248,95.6316864395142,97.7324695491791,0.3,101.767307033539,1.70063400268555,103.469602098465,1,left,1.68117189407349,103.467941036224,604.471444358826,607.231444358826,1646940853.5363,1646940853.53772,1646940863.97353,1646940863.97787,1646940866.07431,1646940870.10915,1646940870.11082,1646940871.81144,1646940871.80978,1646941372.81329,1
109,4,1,3,6,5,2,c2_WhyHand,2,helping?,40,H_012.jpg,1646940765.58184,1646940765.59205,85.1944603824615,10.4205586910248,95.6316864395142,97.7324695491791,0.3,103.784726133347,1.20044827461243,104.986205091476,3,right,1.17851591110229,104.985174407959,604.471444358826,607.231444358826,1646940853.5363,1646940853.53772,1646940863.97353,1646940863.97787,1646940866.07431,1646940872.12657,1646940872.12819,1646940873.32805,1646940873.32702,1646941372.81329,0
109,4,1,3,6,6,2,c2_WhyHand,2,helping?,35,H_159.jpg,1646940765.58184,1646940765.59205,85.1944603824615,10.4205586910248,95.6316864395142,97.7324695491791,0.3,105.301958789825,1.33383131027222,106.636811008453,3,right,1.31136202812195,106.635790100098,604.471444358826,607.231444358826,1646940853.5363,1646940853.53772,1646940863.97353,1646940863.97787,1646940866.07431,1646940873.6438,1646940873.64559,1646940874.97865,1646940874.97763,1646941372.81329,0
109,4,1,3,6,7,2,c2_WhyHand,1,helping?,34,H_111.jpg,1646940765.58184,1646940765.59205,85.1944603824615,10.4205586910248,95.6316864395142,97.7324695491791,0.3,106.95257352829,1.08373832702637,108.037399044037,1,left,1.06281900405884,108.036311855316,604.471444358826,607.231444358826,1646940853.5363,1646940853.53772,1646940863.97353,1646940863.97787,1646940866.07431,1646940875.29442,1646940875.29582,1646940876.37924,1646940876.37815,1646941372.81329,1
109,4,1,3,6,8,2,c2_WhyHand,2,helping?,33,H_091.jpg,1646940765.58184,1646940765.59205,85.1944603824615,10.4205586910248,95.6316864395142,97.7324695491791,0.3,108.353095283508,1.26714086532593,109.621312131882,3,right,1.24679398536682,109.620236148834,604.471444358826,607.231444358826,1646940853.5363,1646940853.53772,1646940863.97353,1646940863.97787,1646940866.07431,1646940876.69494,1646940876.69668,1646940877.96316,1646940877.96208,1646941372.81329,0
109,4,1,3,7,1,1,c1_WhyFace,1,proud?,104,F_598.jpg,1646940765.58184,1646940765.59205,109.686928501129,3.80302548408508,113.505017986298,115.605802049637,2.10078406333923,115.755857219696,0.917009353637695,116.673981180191,1,left,0.896038055419922,116.672866573334,604.471444358826,607.231444358826,1646940878.02877,1646940878.03023,1646940881.84686,1646940881.84899,1646940883.94764,1646940884.0977,1646940884.09954,1646940885.01582,1646940885.01471,1646941372.81329,1
109,4,1,3,7,2,1,c1_WhyFace,2,proud?,102,F_760.jpg,1646940765.58184,1646940765.59205,109.686928501129,3.80302548408508,113.505017986298,115.605802049637,0.3,116.989651670456,0.0166714191436768,117.007854213715,1,left,0.000324010848999023,117.0063230896,604.471444358826,607.231444358826,1646940878.02877,1646940878.03023,1646940881.84686,1646940881.84899,1646940883.94764,1646940885.33149,1646940885.3334,1646940885.3497,1646940885.34817,1646941372.81329,0
109,4,1,3,7,3,1,c1_WhyFace,1,proud?,97,F_582.jpg,1646940765.58184,1646940765.59205,109.686928501129,3.80302548408508,113.505017986298,115.605802049637,0.3,117.323110570908,1.71730470657349,119.119909992218,1,left,1.77574009895325,119.040415277481,604.471444358826,607.231444358826,1646940878.02877,1646940878.03023,1646940881.84686,1646940881.84899,1646940883.94764,1646940885.66495,1646940885.66673,1646940887.46175,1646940887.38226,1646941372.81329,1
109,4,1,3,7,4,1,c1_WhyFace,2,proud?,98,F_412.jpg,1646940765.58184,1646940765.59205,109.686928501129,3.80302548408508,113.505017986298,115.605802049637,0.3,119.357200136185,0.733607530593872,120.102192153931,3,right,0.724029064178467,120.090807666779,604.471444358826,607.231444358826,1646940878.02877,1646940878.03023,1646940881.84686,1646940881.84899,1646940883.94764,1646940887.69904,1646940887.70101,1646940888.44404,1646940888.43265,1646941372.81329,0
109,4,1,3,7,5,1,c1_WhyFace,1,proud?,101,F_083.jpg,1646940765.58184,1646940765.59205,109.686928501129,3.80302548408508,113.505017986298,115.605802049637,0.3,120.407592763901,0.866989135742188,121.275717010498,1,left,0.848102807998657,121.274581899643,604.471444358826,607.231444358826,1646940878.02877,1646940878.03023,1646940881.84686,1646940881.84899,1646940883.94764,1646940888.74944,1646940888.75118,1646940889.61756,1646940889.61642,1646941372.81329,1
109,4,1,3,7,6,1,c1_WhyFace,2,proud?,100,F_776.jpg,1646940765.58184,1646940765.59205,109.686928501129,3.80302548408508,113.505017986298,115.605802049637,0.3,121.591367712021,1.03371739387512,122.626136054993,3,right,1.01177597045898,122.625085105896,604.471444358826,607.231444358826,1646940878.02877,1646940878.03023,1646940881.84686,1646940881.84899,1646940883.94764,1646940889.93321,1646940889.93502,1646940890.96798,1646940890.96693,1646941372.81329,0
109,4,1,3,7,7,1,c1_WhyFace,1,proud?,103,F_618.jpg,1646940765.58184,1646940765.59205,109.686928501129,3.80302548408508,113.505017986298,115.605802049637,0.3,122.941870203018,0.833644866943359,123.77665804863,1,left,0.818864107131958,123.775515069962,604.471444358826,607.231444358826,1646940878.02877,1646940878.03023,1646940881.84686,1646940881.84899,1646940883.94764,1646940891.28371,1646940891.28536,1646940892.1185,1646940892.11736,1646941372.81329,1
109,4,1,3,7,8,1,c1_WhyFace,1,proud?,99,F_695.jpg,1646940765.58184,1646940765.59205,109.686928501129,3.80302548408508,113.505017986298,115.605802049637,0.3,124.092299213409,1.28381371498108,125.377540102005,1,left,1.26290678977966,125.37611292839,604.471444358826,607.231444358826,1646940878.02877,1646940878.03023,1646940881.84686,1646940881.84899,1646940883.94764,1646940892.43414,1646940892.43572,1646940893.71938,1646940893.71796,1646941372.81329,1
109,4,1,3,8,1,3,c3_HowFace,1,looking to side?,72,F_590.jpg,1646940765.58184,1646940765.59205,125.442803373337,5.5771746635437,131.028219451904,133.129003276825,2.10078382492065,133.279059638977,0.600223064422607,133.880436172485,1,left,0.575752973556519,133.8792827034,604.471444358826,607.231444358826,1646940893.78465,1646940893.78624,1646940899.37006,1646940899.37787,1646940901.47085,1646940901.6209,1646940901.62776,1646940902.22228,1646940902.22113,1646941372.81329,1
109,4,1,3,8,2,3,c3_HowFace,1,looking to side?,71,F_433.jpg,1646940765.58184,1646940765.59205,125.442803373337,5.5771746635437,131.028219451904,133.129003276825,0.3,134.196067562103,0.650243043899536,134.85187005043,1,left,0.639564990997314,134.846310606003,604.471444358826,607.231444358826,1646940893.78465,1646940893.78624,1646940899.37006,1646940899.37787,1646940901.47085,1646940902.53791,1646940902.53922,1646940903.19371,1646940903.18815,1646941372.81329,1
109,4,1,3,8,3,3,c3_HowFace,1,looking to side?,67,F_716.jpg,1646940765.58184,1646940765.59205,125.442803373337,5.5771746635437,131.028219451904,133.129003276825,0.3,135.163095703125,0.683587312698364,135.848574151993,1,left,0.662046909332275,135.846683015823,604.471444358826,607.231444358826,1646940893.78465,1646940893.78624,1646940899.37006,1646940899.37787,1646940901.47085,1646940903.50494,1646940903.50656,1646940904.19042,1646940904.18853,1646941372.81329,1
109,4,1,3,8,4,3,c3_HowFace,2,looking to side?,70,F_779.jpg,1646940765.58184,1646940765.59205,125.442803373337,5.5771746635437,131.028219451904,133.129003276825,0.3,136.163468589783,1.60059642791748,137.769204130173,1,left,1.57896614074707,137.7640650177,604.471444358826,607.231444358826,1646940893.78465,1646940893.78624,1646940899.37006,1646940899.37787,1646940901.47085,1646940904.50531,1646940904.50703,1646940906.11105,1646940906.10591,1646941372.81329,0
109,4,1,3,8,5,3,c3_HowFace,1,looking to side?,68,F_760.jpg,1646940765.58184,1646940765.59205,125.442803373337,5.5771746635437,131.028219451904,133.129003276825,0.3,138.080849399567,0.96702766418457,139.05223320961,3,right,0.956881046295166,139.047877063751,604.471444358826,607.231444358826,1646940893.78465,1646940893.78624,1646940899.37006,1646940899.37787,1646940901.47085,1646940906.42269,1646940906.42445,1646940907.39408,1646940907.38972,1646941372.81329,0
109,4,1,3,8,6,3,c3_HowFace,2,looking to side?,66,F_111.jpg,1646940765.58184,1646940765.59205,125.442803373337,5.5771746635437,131.028219451904,133.129003276825,0.3,139.364661445618,1.08373808860779,140.452412118912,3,right,1.06346607208252,140.448399534225,604.471444358826,607.231444358826,1646940893.78465,1646940893.78624,1646940899.37006,1646940899.37787,1646940901.47085,1646940907.7065,1646940907.71118,1646940908.79426,1646940908.79024,1646941372.81329,0
109,4,1,3,8,7,3,c3_HowFace,1,looking to side?,69,F_110.jpg,1646940765.58184,1646940765.59205,125.442803373337,5.5771746635437,131.028219451904,133.129003276825,0.3,140.765182247162,1.45054268836975,142.217166175842,3,right,1.42497110366821,142.215724935532,604.471444358826,607.231444358826,1646940893.78465,1646940893.78624,1646940899.37006,1646940899.37787,1646940901.47085,1646940909.10703,1646940909.11102,1646940910.55901,1646940910.55757,1646941372.81329,0
109,4,1,3,8,8,3,c3_HowFace,2,looking to side?,65,F_798.jpg,1646940765.58184,1646940765.59205,125.442803373337,5.5771746635437,131.028219451904,133.129003276825,0.3,142.532509555817,1.08373761177063,143.618822088242,3,right,1.06839394569397,143.616247167587,604.471444358826,607.231444358826,1646940893.78465,1646940893.78624,1646940899.37006,1646940899.37787,1646940901.47085,1646940910.87435,1646940910.87739,1646940911.96066,1646940911.95809,1646941372.81329,0
109,4,1,3,9,1,1,c1_WhyFace,1,argument?,43,F_716.jpg,1646940765.58184,1646940765.59205,143.682938327789,6.44504380226135,150.135345687866,152.236128320694,2.10078263282776,152.386184444427,0.80029821395874,153.188010206223,1,left,0.790076017379761,153.186482658386,604.471444358826,607.231444358826,1646940912.02478,1646940912.02747,1646940918.47719,1646940918.47917,1646940920.57797,1646940920.72803,1646940920.72996,1646940921.52985,1646940921.52833,1646941372.81329,1
109,4,1,3,9,2,1,c1_WhyFace,2,argument?,44,F_139.jpg,1646940765.58184,1646940765.59205,143.682938327789,6.44504380226135,150.135345687866,152.236128320694,0.3,153.503268232346,0.666915416717529,154.185119142532,3,right,0.658627986907959,154.170183649063,604.471444358826,607.231444358826,1646940912.02478,1646940912.02747,1646940918.47719,1646940918.47917,1646940920.57797,1646940921.84511,1646940921.84676,1646940922.52696,1646940922.51203,1646941372.81329,0
109,4,1,3,9,3,1,c1_WhyFace,1,argument?,41,F_712.jpg,1646940765.58184,1646940765.59205,143.682938327789,6.44504380226135,150.135345687866,152.236128320694,0.3,154.486967315674,0.633570432662964,155.122213115692,1,left,0.621634006500244,155.120537748337,604.471444358826,607.231444358826,1646940912.02478,1646940912.02747,1646940918.47719,1646940918.47917,1646940920.57797,1646940922.82881,1646940922.83028,1646940923.46406,1646940923.46238,1646941372.81329,1
109,4,1,3,9,4,1,c1_WhyFace,2,argument?,45,F_433.jpg,1646940765.58184,1646940765.59205,143.682938327789,6.44504380226135,150.135345687866,152.236128320694,0.3,155.437322845459,1.03371858596802,156.472154130936,1,left,1.01204800605774,156.471041431427,604.471444358826,607.231444358826,1646940912.02478,1646940912.02747,1646940918.47719,1646940918.47917,1646940920.57797,1646940923.77917,1646940923.78122,1646940924.814,1646940924.81288,1646941372.81329,0
109,4,1,3,9,5,1,c1_WhyFace,1,argument?,42,F_403.jpg,1646940765.58184,1646940765.59205,143.682938327789,6.44504380226135,150.135345687866,152.236128320694,0.3,156.787826290131,0.766951560974121,157.556009044647,1,left,0.756801128387451,157.554777851105,604.471444358826,607.231444358826,1646940912.02478,1646940912.02747,1646940918.47719,1646940918.47917,1646940920.57797,1646940925.12967,1646940925.13101,1646940925.89785,1646940925.89662,1646941372.81329,1
109,4,1,3,9,6,1,c1_WhyFace,2,argument?,46,F_844.jpg,1646940765.58184,1646940765.59205,143.682938327789,6.44504380226135,150.135345687866,152.236128320694,0.3,157.871563186646,1.00037336349487,158.873246183395,3,right,0.985942125320435,158.87193655014,604.471444358826,607.231444358826,1646940912.02478,1646940912.02747,1646940918.47719,1646940918.47917,1646940920.57797,1646940926.21341,1646940926.21523,1646940927.21509,1646940927.21378,1646941372.81329,0
109,4,1,3,9,7,1,c1_WhyFace,1,argument?,47,F_743.jpg,1646940765.58184,1646940765.59205,143.682938327789,6.44504380226135,150.135345687866,152.236128320694,0.3,159.188720932007,0.68358850479126,159.885542144775,1,left,0.673420906066895,159.872309436798,604.471444358826,607.231444358826,1646940912.02478,1646940912.02747,1646940918.47719,1646940918.47917,1646940920.57797,1646940927.53056,1646940927.53216,1646940928.22739,1646940928.21415,1646941372.81329,1
109,4,1,3,9,8,1,c1_WhyFace,1,argument?,48,F_758.jpg,1646940765.58184,1646940765.59205,143.682938327789,6.44504380226135,150.135345687866,152.236128320694,0.3,160.18909453392,0.950353622436523,161.15213798523,1,left,0.939836978912354,161.139448156357,604.471444358826,607.231444358826,1646940912.02478,1646940912.02747,1646940918.47719,1646940918.47917,1646940920.57797,1646940928.53094,1646940928.53275,1646940929.49398,1646940929.48129,1646941372.81329,1
109,4,1,3,10,1,3,c3_HowFace,1,open mouth?,80,F_844.jpg,1646940765.58184,1646940765.59205,161.222813358307,6.74509882926941,167.975331296921,170.076115598679,2.10078430175781,170.226169815063,0.917009830474854,171.144585123062,1,left,0.88907790184021,171.143179645538,604.471444358826,607.231444358826,1646940929.56466,1646940929.56565,1646940936.31717,1646940936.32762,1646940938.41796,1646940938.56801,1646940938.57803,1646940939.48643,1646940939.48502,1646941372.81329,1
109,4,1,3,10,2,3,c3_HowFace,1,open mouth?,74,F_776.jpg,1646940765.58184,1646940765.59205,161.222813358307,6.74509882926941,167.975331296921,170.076115598679,0.3,171.459964742661,0.750280141830444,172.211419095993,1,left,0.732403039932251,172.210244884491,604.471444358826,607.231444358826,1646940929.56466,1646940929.56565,1646940936.31717,1646940936.32762,1646940938.41796,1646940939.80181,1646940939.80347,1646940940.55326,1646940940.55209,1646941372.81329,1
109,4,1,3,10,3,3,c3_HowFace,2,open mouth?,76,F_544.jpg,1646940765.58184,1646940765.59205,161.222813358307,6.74509882926941,167.975331296921,170.076115598679,0.3,172.527029504776,0.733605861663818,173.26232003212,3,right,0.711466073989868,173.26063536644,604.471444358826,607.231444358826,1646940929.56466,1646940929.56565,1646940936.31717,1646940936.32762,1646940938.41796,1646940940.86887,1646940940.87058,1646940941.60416,1646940941.60248,1646941372.81329,0
109,4,1,3,10,4,3,c3_HowFace,1,open mouth?,78,F_692.jpg,1646940765.58184,1646940765.59205,161.222813358307,6.74509882926941,167.975331296921,170.076115598679,0.3,173.577420701981,0.533531904220581,174.118811120987,1,left,0.516376972198486,174.110952606201,604.471444358826,607.231444358826,1646940929.56466,1646940929.56565,1646940936.31717,1646940936.32762,1646940938.41796,1646940941.91926,1646940941.92134,1646940942.46065,1646940942.4528,1646941372.81329,1
109,4,1,3,10,5,3,c3_HowFace,2,open mouth?,77,F_584.jpg,1646940765.58184,1646940765.59205,161.222813358307,6.74509882926941,167.975331296921,170.076115598679,0.3,174.427737703323,0.633569478988647,175.068643083572,3,right,0.625594139099121,175.061307182312,604.471444358826,607.231444358826,1646940929.56466,1646940929.56565,1646940936.31717,1646940936.32762,1646940938.41796,1646940942.76958,1646940942.77137,1646940943.41049,1646940943.40315,1646941372.81329,0
109,4,1,3,10,6,3,c3_HowFace,1,open mouth?,73,F_403.jpg,1646940765.58184,1646940765.59205,161.222813358307,6.74509882926941,167.975331296921,170.076115598679,0.3,175.378092279434,0.583551168441772,175.969188203812,1,left,0.573533058166504,175.961643447876,604.471444358826,607.231444358826,1646940929.56466,1646940929.56565,1646940936.31717,1646940936.32762,1646940938.41796,1646940943.71994,1646940943.72155,1646940944.31103,1646940944.30349,1646941372.81329,1
109,4,1,3,10,7,3,c3_HowFace,1,open mouth?,75,F_086.jpg,1646940765.58184,1646940765.59205,161.222813358307,6.74509882926941,167.975331296921,170.076115598679,0.3,176.278427591324,0.583550691604614,176.869496097565,1,left,0.567106008529663,176.861978282928,604.471444358826,607.231444358826,1646940929.56466,1646940929.56565,1646940936.31717,1646940936.32762,1646940938.41796,1646940944.62027,1646940944.62202,1646940945.21134,1646940945.20382,1646941372.81329,1
109,4,1,3,10,8,3,c3_HowFace,2,open mouth?,79,F_648.jpg,1646940765.58184,1646940765.59205,161.222813358307,6.74509882926941,167.975331296921,170.076115598679,0.3,177.178763856888,0.616896629333496,177.802583208084,3,right,0.602037906646729,177.795660486221,604.471444358826,607.231444358826,1646940929.56466,1646940929.56565,1646940936.31717,1646940936.32762,1646940938.41796,1646940945.52061,1646940945.52206,1646940946.14443,1646940946.1375,1646941372.81329,0
109,4,1,3,11,1,4,c4_HowHand,1,pressing button?,88,H_019.jpg,1646940765.58184,1646940765.59205,177.879024734497,7.97889232635498,185.865336170197,187.966119756699,2.10078358650208,188.116175403595,0.833645105361938,188.952417125702,1,left,0.817998886108398,188.949820508957,604.471444358826,607.231444358826,1646940946.22087,1646940946.2226,1646940954.20718,1646940954.21113,1646940956.30796,1646940956.45802,1646940956.4609,1646940957.29426,1646940957.29166,1646941372.81329,1
109,4,1,3,11,2,4,c4_HowHand,2,pressing button?,87,H_024.jpg,1646940765.58184,1646940765.59205,177.879024734497,7.97889232635498,185.865336170197,187.966119756699,0.3,189.266604175568,0.750279903411865,190.01844619751,3,right,0.729393005371094,190.01688407898,604.471444358826,607.231444358826,1646940946.22087,1646940946.2226,1646940954.20718,1646940954.21113,1646940956.30796,1646940957.60845,1646940957.61102,1646940958.36029,1646940958.35873,1646941372.81329,0
109,4,1,3,11,3,4,c4_HowHand,2,pressing button?,85,H_130.jpg,1646940765.58184,1646940765.59205,177.879024734497,7.97889232635498,185.865336170197,187.966119756699,0.3,190.333670129776,0.700260400772095,191.035134067535,3,right,0.685590982437134,191.033930530548,604.471444358826,607.231444358826,1646940946.22087,1646940946.2226,1646940954.20718,1646940954.21113,1646940956.30796,1646940958.67551,1646940958.67757,1646940959.37698,1646940959.37577,1646941372.81329,0
109,4,1,3,11,4,4,c4_HowHand,1,pressing button?,83,H_502.jpg,1646940765.58184,1646940765.59205,177.879024734497,7.97889232635498,185.865336170197,187.966119756699,0.3,191.350715389252,0.616897106170654,191.968557109833,1,left,0.607145071029663,191.967612495422,604.471444358826,607.231444358826,1646940946.22087,1646940946.2226,1646940954.20718,1646940954.21113,1646940956.30796,1646940959.69256,1646940959.69447,1646940960.3104,1646940960.30946,1646941372.81329,1
109,4,1,3,11,5,4,c4_HowHand,2,pressing button?,81,H_261.jpg,1646940765.58184,1646940765.59205,177.879024734497,7.97889232635498,185.865336170197,187.966119756699,0.3,192.284397115707,1.01704573631287,193.302939167023,3,right,1.00425910949707,193.30144285202,604.471444358826,607.231444358826,1646940946.22087,1646940946.2226,1646940954.20718,1646940954.21113,1646940956.30796,1646940960.62624,1646940960.62791,1646940961.64478,1646940961.64329,1646941372.81329,0
109,4,1,3,11,6,4,c4_HowHand,1,pressing button?,86,H_332.jpg,1646940765.58184,1646940765.59205,177.879024734497,7.97889232635498,185.865336170197,187.966119756699,0.3,193.618227949142,0.666915893554688,194.286820163727,1,left,0.654993057250977,194.285143842697,604.471444358826,607.231444358826,1646940946.22087,1646940946.2226,1646940954.20718,1646940954.21113,1646940956.30796,1646940961.96007,1646940961.96172,1646940962.62866,1646940962.62699,1646941372.81329,1
109,4,1,3,11,7,4,c4_HowHand,1,pressing button?,82,H_126.jpg,1646940765.58184,1646940765.59205,177.879024734497,7.97889232635498,185.865336170197,187.966119756699,0.3,194.601927032471,0.716934442520142,195.319849004745,1,left,0.705822944641113,195.318861474991,604.471444358826,607.231444358826,1646940946.22087,1646940946.2226,1646940954.20718,1646940954.21113,1646940956.30796,1646940962.94377,1646940962.94563,1646940963.66169,1646940963.6607,1646941372.81329,1
109,4,1,3,11,8,4,c4_HowHand,1,pressing button?,84,H_483.jpg,1646940765.58184,1646940765.59205,177.879024734497,7.97889232635498,185.865336170197,187.966119756699,0.3,195.635646572113,0.80029821395874,196.437452068329,1,left,0.785361051559448,196.435944786072,604.471444358826,607.231444358826,1646940946.22087,1646940946.2226,1646940954.20718,1646940954.21113,1646940956.30796,1646940963.97749,1646940963.9785,1646940964.77929,1646940964.77779,1646941372.81329,1
109,4,1,3,12,1,2,c2_WhyHand,1,competing?,9,H_261.jpg,1646940765.58184,1646940765.59205,196.53598236084,7.11197781562805,203.65530418396,205.756087293625,2.10078310966492,205.90614317894,0.566878318786621,206.474573125839,1,left,0.535932064056396,206.473021497726,604.471444358826,607.231444358826,1646940964.87783,1646940964.87907,1646940971.99715,1646940972.01084,1646940974.09793,1646940974.24799,1646940974.2615,1646940974.81642,1646940974.81486,1646941372.81329,1
109,4,1,3,12,2,2,c2_WhyHand,2,competing?,12,H_483.jpg,1646940765.58184,1646940765.59205,196.53598236084,7.11197781562805,203.65530418396,205.756087293625,0.3,206.789806118011,0.700261831283569,207.49154709816,3,right,0.68602991104126,207.490067949295,604.471444358826,607.231444358826,1646940964.87783,1646940964.87907,1646940971.99715,1646940972.01084,1646940974.09793,1646940975.13165,1646940975.13334,1646940975.83339,1646940975.83191,1646941372.81329,0
109,4,1,3,12,3,2,c2_WhyHand,1,competing?,14,H_132.jpg,1646940765.58184,1646940765.59205,196.53598236084,7.11197781562805,203.65530418396,205.756087293625,0.3,207.806852331162,0.600222587585449,208.418932189941,1,left,0.591841220855713,208.407074918747,604.471444358826,607.231444358826,1646940964.87783,1646940964.87907,1646940971.99715,1646940972.01084,1646940974.09793,1646940976.1487,1646940976.15025,1646940976.76078,1646940976.74892,1646941372.81329,1
109,4,1,3,12,4,2,c2_WhyHand,2,competing?,10,H_126.jpg,1646940765.58184,1646940765.59205,196.53598236084,7.11197781562805,203.65530418396,205.756087293625,0.3,208.723861684799,0.933680772781372,209.658603181839,3,right,0.91840386390686,209.657542457581,604.471444358826,607.231444358826,1646940964.87783,1646940964.87907,1646940971.99715,1646940972.01084,1646940974.09793,1646940977.0657,1646940977.0675,1646940978.00045,1646940977.99939,1646941372.81329,0
109,4,1,3,12,5,2,c2_WhyHand,1,competing?,16,H_136.jpg,1646940765.58184,1646940765.59205,196.53598236084,7.11197781562805,203.65530418396,205.756087293625,0.3,209.974326601028,0.700261354446411,210.675698032379,1,left,0.684062004089355,210.674587955475,604.471444358826,607.231444358826,1646940964.87783,1646940964.87907,1646940971.99715,1646940972.01084,1646940974.09793,1646940978.31617,1646940978.31782,1646940979.01754,1646940979.01643,1646941372.81329,1
109,4,1,3,12,6,2,c2_WhyHand,2,competing?,11,H_502.jpg,1646940765.58184,1646940765.59205,196.53598236084,7.11197781562805,203.65530418396,205.756087293625,0.3,210.991372098923,1.11708498001099,212.109590044022,3,right,1.09697699546814,212.108457078934,604.471444358826,607.231444358826,1646940964.87783,1646940964.87907,1646940971.99715,1646940972.01084,1646940974.09793,1646940979.33321,1646940979.33513,1646940980.45143,1646940980.4503,1646941372.81329,0
109,4,1,3,12,7,2,c2_WhyHand,1,competing?,13,H_003.jpg,1646940765.58184,1646940765.59205,196.53598236084,7.11197781562805,203.65530418396,205.756087293625,0.3,212.425241699219,0.666914701461792,213.093207111359,1,left,0.647725105285645,213.092156400681,604.471444358826,607.231444358826,1646940964.87783,1646940964.87907,1646940971.99715,1646940972.01084,1646940974.09793,1646940980.76708,1646940980.76902,1646940981.43505,1646940981.434,1646941372.81329,1
109,4,1,3,12,8,2,c2_WhyHand,1,competing?,15,H_170.jpg,1646940765.58184,1646940765.59205,196.53598236084,7.11197781562805,203.65530418396,205.756087293625,0.3,213.408941259384,0.600224256515503,214.018481006622,1,left,0.589812994003296,214.0091655159,604.471444358826,607.231444358826,1646940964.87783,1646940964.87907,1646940971.99715,1646940972.01084,1646940974.09793,1646940981.75078,1646940981.75228,1646940982.36032,1646940982.35101,1646941372.81329,1
109,4,1,3,13,1,1,c1_WhyFace,1,self-doubt?,29,F_544.jpg,1646940765.58184,1646940765.59205,214.09252904892,7.6253809928894,221.728709926605,223.829493751526,2.10078382492065,223.979550113678,0.833643913269043,224.818615188599,1,left,0.818521976470947,224.813194026947,604.471444358826,607.231444358826,1646940982.43437,1646940982.43647,1646940990.07055,1646940990.07745,1646940992.17134,1646940992.32139,1646940992.32829,1646940993.16046,1646940993.15504,1646941372.81329,1
109,4,1,3,13,2,1,c1_WhyFace,2,self-doubt?,27,F_086.jpg,1646940765.58184,1646940765.59205,214.09252904892,7.6253809928894,221.728709926605,223.829493751526,0.3,225.129979124069,0.766952514648438,225.902350177765,3,right,0.747956991195679,225.896931638718,604.471444358826,607.231444358826,1646940982.43437,1646940982.43647,1646940990.07055,1646940990.07745,1646940992.17134,1646940993.47182,1646940993.47353,1646940994.24419,1646940994.23877,1646941372.81329,0
109,4,1,3,13,3,1,c1_WhyFace,1,self-doubt?,25,F_798.jpg,1646940765.58184,1646940765.59205,214.09252904892,7.6253809928894,221.728709926605,223.829493751526,0.3,226.213716259003,0.633568525314331,226.852420082092,1,left,0.614793062210083,226.847284784317,604.471444358826,607.231444358826,1646940982.43437,1646940982.43647,1646940990.07055,1646940990.07745,1646940992.17134,1646940994.55556,1646940994.55755,1646940995.19426,1646940995.18913,1646941372.81329,1
109,4,1,3,13,4,1,c1_WhyFace,1,self-doubt?,26,F_111.jpg,1646940765.58184,1646940765.59205,214.09252904892,7.6253809928894,221.728709926605,223.829493751526,0.3,227.164071311951,0.633569002151489,227.80164598465,1,left,0.627262115478516,227.797640314102,604.471444358826,607.231444358826,1646940982.43437,1646940982.43647,1646940990.07055,1646940990.07745,1646940992.17134,1646940995.50591,1646940995.50738,1646940996.14349,1646940996.13948,1646941372.81329,1
109,4,1,3,13,5,1,c1_WhyFace,2,self-doubt?,31,F_774.jpg,1646940765.58184,1646940765.59205,214.09252904892,7.6253809928894,221.728709926605,223.829493751526,0.3,228.114425411224,0.750278949737549,228.869124164581,3,right,0.739367961883545,228.864704360962,604.471444358826,607.231444358826,1646940982.43437,1646940982.43647,1646940990.07055,1646940990.07745,1646940992.17134,1646940996.45627,1646940996.46083,1646940997.21097,1646940997.20655,1646941372.81329,0
109,4,1,3,13,6,1,c1_WhyFace,1,self-doubt?,28,F_754.jpg,1646940765.58184,1646940765.59205,214.09252904892,7.6253809928894,221.728709926605,223.829493751526,0.3,229.181489219666,0.800299167633057,229.985197057724,1,left,0.786338806152344,229.981788387299,604.471444358826,607.231444358826,1646940982.43437,1646940982.43647,1646940990.07055,1646940990.07745,1646940992.17134,1646940997.52333,1646940997.5281,1646940998.32704,1646940998.32363,1646941372.81329,1
109,4,1,3,13,7,1,c1_WhyFace,2,self-doubt?,32,F_128.jpg,1646940765.58184,1646940765.59205,214.09252904892,7.6253809928894,221.728709926605,223.829493751526,0.3,230.298573246002,0.983700513839722,231.285044183731,3,right,0.973161935806274,231.282273759842,604.471444358826,607.231444358826,1646940982.43437,1646940982.43647,1646940990.07055,1646940990.07745,1646940992.17134,1646940998.64042,1646940998.64443,1646940999.62689,1646940999.62412,1646941372.81329,0
109,4,1,3,13,8,1,c1_WhyFace,1,self-doubt?,30,F_584.jpg,1646940765.58184,1646940765.59205,214.09252904892,7.6253809928894,221.728709926605,223.829493751526,0.3,231.599058380127,1.1004102230072,232.702481021881,3,right,1.0789201259613,232.699468603134,604.471444358826,607.231444358826,1646940982.43437,1646940982.43647,1646940990.07055,1646940990.07745,1646940992.17134,1646940999.9409,1646940999.94413,1646941001.04432,1646941001.04131,1646941372.81329,0
109,4,1,3,14,1,3,c3_HowFace,1,looking at camera?,64,F_128.jpg,1646940765.58184,1646940765.59205,232.766160717011,8.00571131706238,240.785817136765,242.886601200104,2.10078406333923,243.036656608582,1.01704525947571,244.054682006836,1,left,1.00596213340759,244.053701868057,604.471444358826,607.231444358826,1646941001.108,1646941001.11028,1646941009.12766,1646941009.12983,1646941011.22844,1646941011.3785,1646941011.38027,1646941012.39652,1646941012.39554,1646941372.81329,1
109,4,1,3,14,2,3,c3_HowFace,1,looking at camera?,60,F_618.jpg,1646940765.58184,1646940765.59205,232.766160717011,8.00571131706238,240.785817136765,242.886601200104,0.3,244.370487203598,0.583550930023193,244.955463161469,1,left,0.569030046463013,244.954038133621,604.471444358826,607.231444358826,1646941001.108,1646941001.11028,1646941009.12766,1646941009.12983,1646941011.22844,1646941012.71233,1646941012.71402,1646941013.29731,1646941013.29588,1646941372.81329,1
109,4,1,3,14,3,3,c3_HowFace,1,looking at camera?,62,F_598.jpg,1646940765.58184,1646940765.59205,232.766160717011,8.00571131706238,240.785817136765,242.886601200104,0.3,245.270822992325,0.733607530593872,246.018927087784,1,left,0.725690841674805,246.004430522919,604.471444358826,607.231444358826,1646941001.108,1646941001.11028,1646941009.12766,1646941009.12983,1646941011.22844,1646941013.61267,1646941013.61409,1646941014.36077,1646941014.34627,1646941372.81329,1
109,4,1,3,14,4,3,c3_HowFace,2,looking at camera?,63,F_743.jpg,1646940765.58184,1646940765.59205,232.766160717011,8.00571131706238,240.785817136765,242.886601200104,0.3,246.321215858459,0.550204277038574,246.885498037338,3,right,0.539299011230469,246.871420135498,604.471444358826,607.231444358826,1646941001.108,1646941001.11028,1646941009.12766,1646941009.12983,1646941011.22844,1646941014.66306,1646941014.66468,1646941015.22734,1646941015.21326,1646941372.81329,0
109,4,1,3,14,5,3,c3_HowFace,1,looking at camera?,61,F_774.jpg,1646940765.58184,1646940765.59205,232.766160717011,8.00571131706238,240.785817136765,242.886601200104,0.3,247.188204278946,0.700261831283569,247.890053024292,1,left,0.689406871795654,247.88846611023,604.471444358826,607.231444358826,1646941001.108,1646941001.11028,1646941009.12766,1646941009.12983,1646941011.22844,1646941015.53005,1646941015.53129,1646941016.2319,1646941016.23031,1646941372.81329,1
109,4,1,3,14,6,3,c3_HowFace,2,looking at camera?,57,F_582.jpg,1646940765.58184,1646940765.59205,232.766160717011,8.00571131706238,240.785817136765,242.886601200104,0.3,248.205251922607,1.08373641967773,249.29060505867,3,right,1.06475400924683,249.288988342285,604.471444358826,607.231444358826,1646941001.108,1646941001.11028,1646941009.12766,1646941009.12983,1646941011.22844,1646941016.54709,1646941016.54891,1646941017.63245,1646941017.63083,1646941372.81329,0
109,4,1,3,14,7,3,c3_HowFace,2,looking at camera?,58,F_754.jpg,1646940765.58184,1646940765.59205,232.766160717011,8.00571131706238,240.785817136765,242.886601200104,0.3,249.605773439407,0.766952991485596,250.385192146301,3,right,0.757976055145264,250.372726430893,604.471444358826,607.231444358826,1646941001.108,1646941001.11028,1646941009.12766,1646941009.12983,1646941011.22844,1646941017.94762,1646941017.94934,1646941018.72704,1646941018.71457,1646941372.81329,0
109,4,1,3,14,8,3,c3_HowFace,1,looking at camera?,59,F_129.jpg,1646940765.58184,1646940765.59205,232.766160717011,8.00571131706238,240.785817136765,242.886601200104,0.3,250.689510574341,0.700260639190674,251.391642084122,1,left,0.68815279006958,251.389771213532,604.471444358826,607.231444358826,1646941001.108,1646941001.11028,1646941009.12766,1646941009.12983,1646941011.22844,1646941019.03135,1646941019.03266,1646941019.73348,1646941019.73161,1646941372.81329,1
109,4,1,3,15,1,4,c4_HowHand,1,both hands?,123,H_167.jpg,1646940765.58184,1646940765.59205,251.4731366539,8.08874750137329,259.576158037186,261.676941146851,2.10078310966492,261.826997270584,1.08373808860779,262.918450107574,1,left,1.07652497291565,262.910735359192,604.471444358826,607.231444358826,1646941019.81498,1646941019.81614,1646941027.918,1646941027.92003,1646941030.01878,1646941030.16884,1646941030.17045,1646941031.26029,1646941031.25258,1646941372.81329,1
109,4,1,3,15,2,4,c4_HowHand,2,both hands?,121,H_091.jpg,1646940765.58184,1646940765.59205,251.4731366539,8.08874750137329,259.576158037186,261.676941146851,0.3,263.227519741058,0.83364462852478,264.068463077545,3,right,0.818097114562988,264.061164369583,604.471444358826,607.231444358826,1646941019.81498,1646941019.81614,1646941027.918,1646941027.92003,1646941030.01878,1646941031.56936,1646941031.5709,1646941032.41031,1646941032.40301,1646941372.81329,0
109,4,1,3,15,3,4,c4_HowHand,2,both hands?,125,H_627.jpg,1646940765.58184,1646940765.59205,251.4731366539,8.08874750137329,259.576158037186,261.676941146851,0.3,264.377948036194,0.833644390106201,265.218599071503,3,right,0.823997020721436,265.2115924263,604.471444358826,607.231444358826,1646941019.81498,1646941019.81614,1646941027.918,1646941027.92003,1646941030.01878,1646941032.71979,1646941032.72171,1646941033.56044,1646941033.55344,1646941372.81329,0
109,4,1,3,15,4,4,c4_HowHand,1,both hands?,128,H_027.jpg,1646940765.58184,1646940765.59205,251.4731366539,8.08874750137329,259.576158037186,261.676941146851,0.3,265.528378715515,0.816971063613892,266.347266187668,1,left,0.796409130096436,266.345349779129,604.471444358826,607.231444358826,1646941019.81498,1646941019.81614,1646941027.918,1646941027.92003,1646941030.01878,1646941033.87022,1646941033.8717,1646941034.68911,1646941034.68719,1646941372.81329,1
109,4,1,3,15,5,4,c4_HowHand,1,both hands?,122,H_111.jpg,1646940765.58184,1646940765.59205,251.4731366539,8.08874750137329,259.576158037186,261.676941146851,0.3,266.662133922577,0.850316762924194,267.514147987366,1,left,0.830111980438232,267.512450685501,604.471444358826,607.231444358826,1646941019.81498,1646941019.81614,1646941027.918,1646941027.92003,1646941030.01878,1646941035.00398,1646941035.00558,1646941035.85599,1646941035.85429,1646941372.81329,1
109,4,1,3,15,6,4,c4_HowHand,2,both hands?,126,H_159.jpg,1646940765.58184,1646940765.59205,251.4731366539,8.08874750137329,259.576158037186,261.676941146851,0.3,267.829234828949,0.750280618667603,268.585177173615,3,right,0.733689069747925,268.579515447617,604.471444358826,607.231444358826,1646941019.81498,1646941019.81614,1646941027.918,1646941027.92003,1646941030.01878,1646941036.17108,1646941036.17309,1646941036.92702,1646941036.92136,1646941372.81329,0
109,4,1,3,15,7,4,c4_HowHand,1,both hands?,124,H_581.jpg,1646940765.58184,1646940765.59205,251.4731366539,8.08874750137329,259.576158037186,261.676941146851,0.3,268.896300783157,0.850316286087036,269.751998176575,1,left,0.838783979415894,269.746617069244,604.471444358826,607.231444358826,1646941019.81498,1646941019.81614,1646941027.918,1646941027.92003,1646941030.01878,1646941037.23814,1646941037.24071,1646941038.09384,1646941038.08846,1646941372.81329,1
109,4,1,3,15,8,4,c4_HowHand,1,both hands?,127,H_349.jpg,1646940765.58184,1646940765.59205,251.4731366539,8.08874750137329,259.576158037186,261.676941146851,0.3,270.063402643204,0.700260639190674,270.76893614769,1,left,0.687035083770752,270.763663282394,604.471444358826,607.231444358826,1646941019.81498,1646941019.81614,1646941027.918,1646941027.92003,1646941030.01878,1646941038.40525,1646941038.40686,1646941039.11078,1646941039.10551,1646941372.81329,1
109,4,1,3,16,1,2,c2_WhyHand,1,self-protection?,89,H_443.jpg,1646940765.58184,1646940765.59205,270.847027292252,7.50502681732178,278.366497983933,280.467282524109,2.10078454017639,280.617338647842,1.48388576507568,282.102571001053,1,left,1.47292399406433,282.101224412918,604.471444358826,607.231444358826,1646941039.18887,1646941039.19361,1646941046.70834,1646941046.71117,1646941048.80913,1646941048.95918,1646941048.96124,1646941050.44441,1646941050.44307,1646941372.81329,1
109,4,1,3,16,2,2,c2_WhyHand,2,self-protection?,90,H_006.jpg,1646940765.58184,1646940765.59205,270.847027292252,7.50502681732178,278.366497983933,280.467282524109,0.3,282.418009271622,1.10041165351868,283.519458999634,3,right,1.08610486984253,283.51842092514,604.471444358826,607.231444358826,1646941039.18887,1646941039.19361,1646941046.70834,1646941046.71117,1646941048.80913,1646941050.75985,1646941050.76148,1646941051.8613,1646941051.86026,1646941372.81329,0
109,4,1,3,16,3,2,c2_WhyHand,1,self-protection?,91,H_581.jpg,1646940765.58184,1646940765.59205,270.847027292252,7.50502681732178,278.366497983933,280.467282524109,0.3,283.835205307007,1.35050344467163,285.187197198868,1,left,1.33744096755981,285.185708751678,604.471444358826,607.231444358826,1646941039.18887,1646941039.19361,1646941046.70834,1646941046.71117,1646941048.80913,1646941052.17705,1646941052.17872,1646941053.52904,1646941053.52755,1646941372.81329,1
109,4,1,3,16,4,2,c2_WhyHand,2,self-protection?,92,H_532.jpg,1646940765.58184,1646940765.59205,270.847027292252,7.50502681732178,278.366497983933,280.467282524109,0.3,285.502493371964,1.21712040901184,286.720733156204,3,right,1.19519901275635,286.719613780975,604.471444358826,607.231444358826,1646941039.18887,1646941039.19361,1646941046.70834,1646941046.71117,1646941048.80913,1646941053.84434,1646941053.84617,1646941055.06258,1646941055.06146,1646941372.81329,0
109,4,1,3,16,5,2,c2_WhyHand,1,self-protection?,96,H_027.jpg,1646940765.58184,1646940765.59205,270.847027292252,7.50502681732178,278.366497983933,280.467282524109,0.3,287.036398162842,0.850317478179932,287.888593187332,1,left,0.830623865127563,287.886715641022,604.471444358826,607.231444358826,1646941039.18887,1646941039.19361,1646941046.70834,1646941046.71117,1646941048.80913,1646941055.37824,1646941055.38039,1646941056.23044,1646941056.22856,1646941372.81329,1
109,4,1,3,16,6,2,c2_WhyHand,1,self-protection?,93,H_038.jpg,1646940765.58184,1646940765.59205,270.847027292252,7.50502681732178,278.366497983933,280.467282524109,0.3,288.203500022888,0.900336503982544,289.118450155258,1,left,0.892108917236328,289.103836526871,604.471444358826,607.231444358826,1646941039.18887,1646941039.19361,1646941046.70834,1646941046.71117,1646941048.80913,1646941056.54534,1646941056.54707,1646941057.46029,1646941057.44568,1646941372.81329,1
109,4,1,3,16,7,2,c2_WhyHand,2,self-protection?,95,H_332.jpg,1646940765.58184,1646940765.59205,270.847027292252,7.50502681732178,278.366497983933,280.467282524109,0.3,289.420620670319,0.917008399963379,290.339361181259,3,right,0.905642986297607,290.337629070282,604.471444358826,607.231444358826,1646941039.18887,1646941039.19361,1646941046.70834,1646941046.71117,1646941048.80913,1646941057.76246,1646941057.76417,1646941058.6812,1646941058.67947,1646941372.81329,0
109,4,1,3,16,8,2,c2_WhyHand,1,self-protection?,94,H_189.jpg,1646940765.58184,1646940765.59205,270.847027292252,7.50502681732178,278.366497983933,280.467282524109,0.3,290.654413690567,1.4338686466217,292.089855184555,1,left,1.41270303726196,292.088282337189,604.471444358826,607.231444358826,1646941039.18887,1646941039.19361,1646941046.70834,1646941046.71117,1646941048.80913,1646941058.99626,1646941058.9979,1646941060.4317,1646941060.43013,1646941372.81329,1
109,4,1,3,17,1,3,c3_HowFace,1,smiling?,118,F_759.jpg,1646940765.58184,1646940765.59205,292.171646347046,7.66034078598022,299.841174116135,301.941957702637,2.10078358650208,302.092013587952,0.967026710510254,303.060456981659,1,left,0.936192989349365,303.059040298462,604.471444358826,607.231444358826,1646941060.51349,1646941060.51529,1646941068.18302,1646941068.19479,1646941070.2838,1646941070.43386,1646941070.44405,1646941071.4023,1646941071.40088,1646941372.81329,1
109,4,1,3,17,2,3,c3_HowFace,2,smiling?,114,F_412.jpg,1646940765.58184,1646940765.59205,292.171646347046,7.66034078598022,299.841174116135,301.941957702637,0.3,303.375825634003,0.566878080368042,303.952233066559,3,right,0.555132150650024,303.942703714371,604.471444358826,607.231444358826,1646941060.51349,1646941060.51529,1646941068.18302,1646941068.19479,1646941070.2838,1646941071.71767,1646941071.71943,1646941072.29408,1646941072.28455,1646941372.81329,0
109,4,1,3,17,3,3,c3_HowFace,1,smiling?,117,F_593.jpg,1646940765.58184,1646940765.59205,292.171646347046,7.66034078598022,299.841174116135,301.941957702637,0.3,304.259488573074,0.967026948928833,305.235119094849,1,left,0.951050996780396,305.226515522003,604.471444358826,607.231444358826,1646941060.51349,1646941060.51529,1646941068.18302,1646941068.19479,1646941070.2838,1646941072.60133,1646941072.60303,1646941073.57696,1646941073.56836,1646941372.81329,1
109,4,1,3,17,4,3,c3_HowFace,2,smiling?,113,F_712.jpg,1646940765.58184,1646940765.59205,292.171646347046,7.66034078598022,299.841174116135,301.941957702637,0.3,305.543300619125,0.833644390106201,306.385856142044,3,right,0.81850004196167,306.376945009232,604.471444358826,607.231444358826,1646941060.51349,1646941060.51529,1646941068.18302,1646941068.19479,1646941070.2838,1646941073.88514,1646941073.88684,1646941074.7277,1646941074.71879,1646941372.81329,0
109,4,1,3,17,5,3,c3_HowFace,1,smiling?,115,F_695.jpg,1646940765.58184,1646940765.59205,292.171646347046,7.66034078598022,299.841174116135,301.941957702637,0.3,306.693729391098,0.65024209022522,307.345637073517,1,left,0.633631944656372,307.343971481323,604.471444358826,607.231444358826,1646941060.51349,1646941060.51529,1646941068.18302,1646941068.19479,1646941070.2838,1646941075.03557,1646941075.03736,1646941075.68748,1646941075.68581,1646941372.81329,1
109,4,1,3,17,6,3,c3_HowFace,1,smiling?,119,F_139.jpg,1646940765.58184,1646940765.59205,292.171646347046,7.66034078598022,299.841174116135,301.941957702637,0.3,307.660756340027,0.633569955825806,308.302197208405,1,left,0.623986005783081,308.294326295853,604.471444358826,607.231444358826,1646941060.51349,1646941060.51529,1646941068.18302,1646941068.19479,1646941070.2838,1646941076.0026,1646941076.00473,1646941076.64404,1646941076.63617,1646941372.81329,1
109,4,1,3,17,7,3,c3_HowFace,1,smiling?,116,F_083.jpg,1646940765.58184,1646940765.59205,292.171646347046,7.66034078598022,299.841174116135,301.941957702637,0.3,308.611112346649,0.583549022674561,309.196071138382,1,left,0.565458059310913,309.194661369324,604.471444358826,607.231444358826,1646941060.51349,1646941060.51529,1646941068.18302,1646941068.19479,1646941070.2838,1646941076.95296,1646941076.95434,1646941077.53791,1646941077.5365,1646941372.81329,1
109,4,1,3,17,8,3,c3_HowFace,2,smiling?,120,F_758.jpg,1646940765.58184,1646940765.59205,292.171646347046,7.66034078598022,299.841174116135,301.941957702637,0.3,309.511446228027,0.900336503982544,310.418871154785,3,right,0.883380174636841,310.41178273201,604.471444358826,607.231444358826,1646941060.51349,1646941060.51529,1646941068.18302,1646941068.19479,1646941070.2838,1646941077.85329,1646941077.85527,1646941078.76071,1646941078.75363,1646941372.81329,0
109,4,1,3,18,1,1,c1_WhyFace,1,admiring?,1,F_593.jpg,1646940765.58184,1646940765.59205,310.495146026611,7.12682509422302,317.631141653061,319.731925001144,2.1007833480835,319.881980171204,0.800299644470215,320.685800065994,1,left,0.780794143676758,320.682279815674,604.471444358826,607.231444358826,1646941078.83699,1646941078.83871,1646941085.97298,1646941085.97787,1646941088.07377,1646941088.22382,1646941088.22752,1646941089.02764,1646941089.02412,1646941372.81329,1
109,4,1,3,18,2,1,c1_WhyFace,2,admiring?,2,F_129.jpg,1646940765.58184,1646940765.59205,310.495146026611,7.12682509422302,317.631141653061,319.731925001144,0.3,320.999063959122,0.80029821395874,321.802246084213,3,right,0.784893989562988,321.79936217308,604.471444358826,607.231444358826,1646941078.83699,1646941078.83871,1646941085.97298,1646941085.97787,1646941088.07377,1646941089.34091,1646941089.34419,1646941090.14409,1646941090.14121,1646941372.81329,0
109,4,1,3,18,3,1,c1_WhyFace,1,admiring?,5,F_759.jpg,1646940765.58184,1646940765.59205,310.495146026611,7.12682509422302,317.631141653061,319.731925001144,0.3,322.116147270203,0.583551406860352,322.701680173874,1,left,0.572058916091919,322.699698677063,604.471444358826,607.231444358826,1646941078.83699,1646941078.83871,1646941085.97298,1646941085.97787,1646941088.07377,1646941090.45799,1646941090.46078,1646941091.04352,1646941091.04154,1646941372.81329,1
109,4,1,3,18,4,1,c1_WhyFace,2,admiring?,6,F_692.jpg,1646940765.58184,1646940765.59205,310.495146026611,7.12682509422302,317.631141653061,319.731925001144,0.3,323.016483297348,1.2504665851593,324.26889919281,3,right,1.23015785217285,324.266949882507,604.471444358826,607.231444358826,1646941078.83699,1646941078.83871,1646941085.97298,1646941085.97787,1646941088.07377,1646941091.35833,1646941091.36077,1646941092.61074,1646941092.60879,1646941372.81329,0
109,4,1,3,18,5,1,c1_WhyFace,1,admiring?,4,F_779.jpg,1646940765.58184,1646940765.59205,310.495146026611,7.12682509422302,317.631141653061,319.731925001144,0.3,324.583734502792,0.650242567062378,325.235220184326,1,left,0.627413034439087,325.233977069855,604.471444358826,607.231444358826,1646941078.83699,1646941078.83871,1646941085.97298,1646941085.97787,1646941088.07377,1646941092.92558,1646941092.92777,1646941093.57706,1646941093.57582,1646941372.81329,1
109,4,1,3,18,6,1,c1_WhyFace,1,admiring?,8,F_590.jpg,1646940765.58184,1646940765.59205,310.495146026611,7.12682509422302,317.631141653061,319.731925001144,0.3,325.550761451721,1.03371810913086,326.585946073532,1,left,1.02170896530151,326.584479560852,604.471444358826,607.231444358826,1646941078.83699,1646941078.83871,1646941085.97298,1646941085.97787,1646941088.07377,1646941093.8926,1646941093.89441,1646941094.92779,1646941094.92632,1646941372.81329,1
109,4,1,3,18,7,1,c1_WhyFace,1,admiring?,7,F_648.jpg,1646940765.58184,1646940765.59205,310.495146026611,7.12682509422302,317.631141653061,319.731925001144,0.3,326.901265611649,1.21711993217468,328.119818201065,1,left,1.19733786582947,328.118385543823,604.471444358826,607.231444358826,1646941078.83699,1646941078.83871,1646941085.97298,1646941085.97787,1646941088.07377,1646941095.24311,1646941095.24512,1646941096.46166,1646941096.46023,1646941372.81329,1
109,4,1,3,18,8,1,c1_WhyFace,2,admiring?,3,F_110.jpg,1646940765.58184,1646940765.59205,310.495146026611,7.12682509422302,317.631141653061,319.731925001144,0.3,328.435170402527,0.933681488037109,329.370357027054,3,right,0.914289951324463,329.368851890564,604.471444358826,607.231444358826,1646941078.83699,1646941078.83871,1646941085.97298,1646941085.97787,1646941088.07377,1646941096.77701,1646941096.77851,1646941097.7122,1646941097.71069,1646941372.81329,0
109,4,1,3,19,1,2,c2_WhyHand,1,competing?,9,H_261.jpg,1646940765.58184,1646940765.59205,329.435543766022,6.07640933990479,335.5211460495,337.621929397583,2.1007833480835,337.771985044479,0.96702766418457,338.752392997742,1,left,0.955143928527832,338.739012708664,604.471444358826,607.231444358826,1646941097.77739,1646941097.7783,1646941103.86299,1646941103.86454,1646941105.96377,1646941106.11383,1646941106.11578,1646941107.09424,1646941107.08086,1646941372.81329,1
109,4,1,3,19,2,2,c2_WhyHand,1,competing?,15,H_170.jpg,1646940765.58184,1646940765.59205,329.435543766022,6.07640933990479,335.5211460495,337.621929397583,0.3,339.055797328949,0.616896867752075,339.673928012848,1,left,0.598623037338257,339.672694196701,604.471444358826,607.231444358826,1646941097.77739,1646941097.7783,1646941103.86299,1646941103.86454,1646941105.96377,1646941107.39764,1646941107.39903,1646941108.01577,1646941108.01454,1646941372.81329,1
109,4,1,3,19,3,2,c2_WhyHand,2,competing?,12,H_483.jpg,1646940765.58184,1646940765.59205,329.435543766022,6.07640933990479,335.5211460495,337.621929397583,0.3,339.989479293823,0.766952991485596,340.768923034668,3,right,0.756778001785278,340.756432285309,604.471444358826,607.231444358826,1646941097.77739,1646941097.7783,1646941103.86299,1646941103.86454,1646941105.96377,1646941108.33132,1646941108.33314,1646941109.11077,1646941109.09828,1646941372.81329,0
109,4,1,3,19,4,2,c2_WhyHand,1,competing?,14,H_132.jpg,1646940765.58184,1646940765.59205,329.435543766022,6.07640933990479,335.5211460495,337.621929397583,0.3,341.073216428757,0.566878318786621,341.652500143051,1,left,0.554979801177979,341.640094747543,604.471444358826,607.231444358826,1646941097.77739,1646941097.7783,1646941103.86299,1646941103.86454,1646941105.96377,1646941109.41506,1646941109.41673,1646941109.99434,1646941109.98194,1646941372.81329,1
109,4,1,3,19,5,2,c2_WhyHand,1,competing?,16,H_136.jpg,1646940765.58184,1646940765.59205,329.435543766022,6.07640933990479,335.5211460495,337.621929397583,0.3,341.956879367828,0.650243043899536,342.609007110596,1,left,0.627743005752563,342.607122411728,604.471444358826,607.231444358826,1646941097.77739,1646941097.7783,1646941103.86299,1646941103.86454,1646941105.96377,1646941110.29872,1646941110.30055,1646941110.95085,1646941110.94897,1646941372.81329,1
109,4,1,3,19,6,2,c2_WhyHand,1,competing?,13,H_003.jpg,1646940765.58184,1646940765.59205,329.435543766022,6.07640933990479,335.5211460495,337.621929397583,0.3,342.923907032013,0.600224256515503,343.535761108398,1,left,0.592066049575806,343.524131288528,604.471444358826,607.231444358826,1646941097.77739,1646941097.7783,1646941103.86299,1646941103.86454,1646941105.96377,1646941111.26575,1646941111.26742,1646941111.8776,1646941111.86597,1646941372.81329,1
109,4,1,3,19,7,2,c2_WhyHand,2,competing?,10,H_126.jpg,1646940765.58184,1646940765.59205,329.435543766022,6.07640933990479,335.5211460495,337.621929397583,0.3,343.840915431976,0.750279903411865,344.602228155136,3,right,0.739869117736816,344.591195335388,604.471444358826,607.231444358826,1646941097.77739,1646941097.7783,1646941103.86299,1646941103.86454,1646941105.96377,1646941112.18276,1646941112.1847,1646941112.94407,1646941112.93304,1646941372.81329,0
109,4,1,3,19,8,2,c2_WhyHand,2,competing?,11,H_502.jpg,1646940765.58184,1646940765.59205,329.435543766022,6.07640933990479,335.5211460495,337.621929397583,0.3,344.90798043251,1.08373689651489,345.992907037735,3,right,1.06627297401428,345.991717329025,604.471444358826,607.231444358826,1646941097.77739,1646941097.7783,1646941103.86299,1646941103.86454,1646941105.96377,1646941113.24982,1646941113.25158,1646941114.33475,1646941114.33356,1646941372.81329,0
109,4,1,3,20,1,4,c4_HowHand,1,reaching?,111,H_003.jpg,1646940765.58184,1646940765.59205,346.058408966064,10.9334552288055,356.995821466446,359.096604576111,2.10078310966492,359.246660699844,0.816972017288208,360.069118013382,1,left,0.794710159301758,360.063632717133,604.471444358826,607.231444358826,1646941114.40025,1646941114.41068,1646941125.33766,1646941125.34443,1646941127.43845,1646941127.5885,1646941127.59434,1646941128.41096,1646941128.40548,1646941372.81329,1
109,4,1,3,20,2,4,c4_HowHand,1,reaching?,110,H_364.jpg,1646940765.58184,1646940765.59205,346.058408966064,10.9334552288055,356.995821466446,359.096604576111,0.3,360.380417575836,0.716933250427246,361.102513065338,1,left,0.705933094024658,361.097350826263,604.471444358826,607.231444358826,1646941114.40025,1646941114.41068,1646941125.33766,1646941125.34443,1646941127.43845,1646941128.72226,1646941128.72372,1646941129.44436,1646941129.43919,1646941372.81329,1
109,4,1,3,20,3,4,c4_HowHand,2,reaching?,108,H_532.jpg,1646940765.58184,1646940765.59205,346.058408966064,10.9334552288055,356.995821466446,359.096604576111,0.3,361.41413520813,0.766952991485596,362.185726156235,3,right,0.76018214225769,362.181088199615,604.471444358826,607.231444358826,1646941114.40025,1646941114.41068,1646941125.33766,1646941125.34443,1646941127.43845,1646941129.75598,1646941129.75782,1646941130.52757,1646941130.52293,1646941372.81329,0
109,4,1,3,20,4,4,c4_HowHand,1,reaching?,106,H_006.jpg,1646940765.58184,1646940765.59205,346.058408966064,10.9334552288055,356.995821466446,359.096604576111,0.3,362.497873535156,1.20044803619385,363.702428092957,1,left,1.1777811050415,363.69832157135,604.471444358826,607.231444358826,1646941114.40025,1646941114.41068,1646941125.33766,1646941125.34443,1646941127.43845,1646941130.83972,1646941130.84418,1646941132.04427,1646941132.04016,1646941372.81329,1
109,4,1,3,20,5,4,c4_HowHand,2,reaching?,105,H_438.jpg,1646940765.58184,1646940765.59205,346.058408966064,10.9334552288055,356.995821466446,359.096604576111,0.3,364.015105476379,0.983699798583984,365.002454032898,3,right,0.963787078857422,364.998805274963,604.471444358826,607.231444358826,1646941114.40025,1646941114.41068,1646941125.33766,1646941125.34443,1646941127.43845,1646941132.35695,1646941132.36085,1646941133.3443,1646941133.34065,1646941372.81329,0
109,4,1,3,20,6,4,c4_HowHand,1,reaching?,107,H_007.jpg,1646940765.58184,1646940765.59205,346.058408966064,10.9334552288055,356.995821466446,359.096604576111,0.3,365.315590133667,0.800299644470215,366.118460168839,1,left,0.777081966400146,366.115889778137,604.471444358826,607.231444358826,1646941114.40025,1646941114.41068,1646941125.33766,1646941125.34443,1646941127.43845,1646941133.65743,1646941133.66091,1646941134.4603,1646941134.45773,1646941372.81329,1
109,4,1,3,20,7,4,c4_HowHand,1,reaching?,109,H_474.jpg,1646940765.58184,1646940765.59205,346.058408966064,10.9334552288055,356.995821466446,359.096604576111,0.3,366.432673683167,0.917008876800537,367.352550020218,1,left,0.897638082504272,367.349682559967,604.471444358826,607.231444358826,1646941114.40025,1646941114.41068,1646941125.33766,1646941125.34443,1646941127.43845,1646941134.77452,1646941134.77761,1646941135.69439,1646941135.69153,1646941372.81329,1
109,4,1,3,20,8,4,c4_HowHand,2,reaching?,112,H_132.jpg,1646940765.58184,1646940765.59205,346.058408966064,10.9334552288055,356.995821466446,359.096604576111,0.3,367.666466941834,0.883663415908813,368.552388181686,3,right,0.873353958129883,368.550130357742,604.471444358826,607.231444358826,1646941114.40025,1646941114.41068,1646941125.33766,1646941125.34443,1646941127.43845,1646941136.00831,1646941136.01103,1646941136.89423,1646941136.89197,1646941372.81329,0
109,4,1,3,21,1,3,c3_HowFace,1,open mouth?,73,F_403.jpg,1646940765.58184,1646940765.59205,368.633494844437,6.19843316078186,374.8358070755,376.936590185165,2.10078310966492,377.086647500992,0.81696891784668,377.905395021439,1,left,0.781703948974609,377.903616418839,604.471444358826,607.231444358826,1646941136.97534,1646941136.97761,1646941143.17765,1646941143.19505,1646941145.27843,1646941145.42849,1646941145.44487,1646941146.24724,1646941146.24546,1646941372.81329,1
109,4,1,3,21,2,3,c3_HowFace,2,open mouth?,79,F_648.jpg,1646940765.58184,1646940765.59205,368.633494844437,6.19843316078186,374.8358070755,376.936590185165,0.3,378.220403661728,0.63356876373291,378.855413188934,3,right,0.62117600440979,378.853972425461,604.471444358826,607.231444358826,1646941136.97534,1646941136.97761,1646941143.17765,1646941143.19505,1646941145.27843,1646941146.56225,1646941146.56385,1646941147.19726,1646941147.19582,1646941372.81329,0
109,4,1,3,21,3,3,c3_HowFace,1,open mouth?,74,F_776.jpg,1646940765.58184,1646940765.59205,368.633494844437,6.19843316078186,374.8358070755,376.936590185165,0.3,379.170757761002,0.550204992294312,379.735182991028,1,left,0.540493011474609,379.720962753296,604.471444358826,607.231444358826,1646941136.97534,1646941136.97761,1646941143.17765,1646941143.19505,1646941145.27843,1646941147.5126,1646941147.51436,1646941148.07703,1646941148.06281,1646941372.81329,1
109,4,1,3,21,4,3,c3_HowFace,2,open mouth?,77,F_584.jpg,1646940765.58184,1646940765.59205,368.633494844437,6.19843316078186,374.8358070755,376.936590185165,0.3,380.037747850418,0.700260639190674,380.75226401329,3,right,0.6907639503479,380.738008489609,604.471444358826,607.231444358826,1646941136.97534,1646941136.97761,1646941143.17765,1646941143.19505,1646941145.27843,1646941148.37959,1646941148.38115,1646941149.09411,1646941149.07985,1646941372.81329,0
109,4,1,3,21,5,3,c3_HowFace,1,open mouth?,80,F_844.jpg,1646940765.58184,1646940765.59205,368.633494844437,6.19843316078186,374.8358070755,376.936590185165,0.3,381.054793586731,0.683588027954102,381.739449014664,1,left,0.662400007247925,381.738381614685,604.471444358826,607.231444358826,1646941136.97534,1646941136.97761,1646941143.17765,1646941143.19505,1646941145.27843,1646941149.39664,1646941149.39821,1646941150.08129,1646941150.08022,1646941372.81329,1
109,4,1,3,21,6,3,c3_HowFace,1,open mouth?,78,F_692.jpg,1646940765.58184,1646940765.59205,368.633494844437,6.19843316078186,374.8358070755,376.936590185165,0.3,382.055166711807,0.950358629226685,383.019195070267,1,left,0.942529916763306,383.005525341034,604.471444358826,607.231444358826,1646941136.97534,1646941136.97761,1646941143.17765,1646941143.19505,1646941145.27843,1646941150.39701,1646941150.39874,1646941151.36104,1646941151.34737,1646941372.81329,1
109,4,1,3,21,7,3,c3_HowFace,1,open mouth?,75,F_086.jpg,1646940765.58184,1646940765.59205,368.633494844437,6.19843316078186,374.8358070755,376.936590185165,0.3,383.322305669785,0.600224018096924,383.923932065964,1,left,0.58406400680542,383.922529687881,604.471444358826,607.231444358826,1646941136.97534,1646941136.97761,1646941143.17765,1646941143.19505,1646941145.27843,1646941151.66415,1646941151.66572,1646941152.26577,1646941152.26437,1646941372.81329,1
109,4,1,3,21,8,3,c3_HowFace,2,open mouth?,76,F_544.jpg,1646940765.58184,1646940765.59205,368.633494844437,6.19843316078186,374.8358070755,376.936590185165,0.3,384.239314785004,0.816971063613892,385.058042039871,3,right,0.796957015991211,385.056285848618,604.471444358826,607.231444358826,1646941136.97534,1646941136.97761,1646941143.17765,1646941143.19505,1646941145.27843,1646941152.58116,1646941152.58282,1646941153.39988,1646941153.39813,1646941372.81329,0
109,4,1,3,22,1,1,c1_WhyFace,1,argument?,42,F_403.jpg,1646940765.58184,1646940765.59205,385.139651050568,8.36831712722778,393.526110877991,395.610221614838,2.08411073684692,395.776950349808,1.38384914398193,397.169139137268,1,left,1.36782097816467,397.16079949379,604.471444358826,607.231444358826,1646941153.48149,1646941153.49417,1646941161.86795,1646941161.86978,1646941163.95206,1646941164.11879,1646941164.12107,1646941165.51098,1646941165.50264,1646941372.81329,1
109,4,1,3,22,2,1,c1_WhyFace,2,argument?,46,F_844.jpg,1646940765.58184,1646940765.59205,385.139651050568,8.36831712722778,393.526110877991,395.610221614838,0.3,397.477584114075,0.600224018096924,398.085731019974,3,right,0.591089963912964,398.077808132172,604.471444358826,607.231444358826,1646941153.48149,1646941153.49417,1646941161.86795,1646941161.86978,1646941163.95206,1646941165.81943,1646941165.82181,1646941166.42757,1646941166.41965,1646941372.81329,0
109,4,1,3,22,3,1,c1_WhyFace,1,argument?,41,F_712.jpg,1646940765.58184,1646940765.59205,385.139651050568,8.36831712722778,393.526110877991,395.610221614838,0.3,398.394593229294,0.583551645278931,398.979670038223,1,left,0.565433979034424,398.978144874573,604.471444358826,607.231444358826,1646941153.48149,1646941153.49417,1646941161.86795,1646941161.86978,1646941163.95206,1646941166.73644,1646941166.73777,1646941167.32151,1646941167.31999,1646941372.81329,1
109,4,1,3,22,4,1,c1_WhyFace,1,argument?,48,F_758.jpg,1646940765.58184,1646940765.59205,385.139651050568,8.36831712722778,393.526110877991,395.610221614838,0.3,399.294928302765,0.700262069702148,400.001797189713,1,left,0.69362998008728,399.995190372467,604.471444358826,607.231444358826,1646941153.48149,1646941153.49417,1646941161.86795,1646941161.86978,1646941163.95206,1646941167.63677,1646941167.63822,1646941168.34364,1646941168.33703,1646941372.81329,1
109,4,1,3,22,5,1,c1_WhyFace,2,argument?,45,F_433.jpg,1646940765.58184,1646940765.59205,385.139651050568,8.36831712722778,393.526110877991,395.610221614838,0.3,400.311974515915,0.883662939071655,401.202309122086,1,left,0.87548303604126,401.195637454987,604.471444358826,607.231444358826,1646941153.48149,1646941153.49417,1646941161.86795,1646941161.86978,1646941163.95206,1646941168.65382,1646941168.65551,1646941169.54415,1646941169.53748,1646941372.81329,0
109,4,1,3,22,6,1,c1_WhyFace,1,argument?,43,F_716.jpg,1646940765.58184,1646940765.59205,385.139651050568,8.36831712722778,393.526110877991,395.610221614838,0.3,401.512422552109,0.633569478988647,402.146998157501,1,left,0.614768981933594,402.145992031097,604.471444358826,607.231444358826,1646941153.48149,1646941153.49417,1646941161.86795,1646941161.86978,1646941163.95206,1646941169.85427,1646941169.85623,1646941170.48884,1646941170.48783,1646941372.81329,1
109,4,1,3,22,7,1,c1_WhyFace,2,argument?,44,F_139.jpg,1646940765.58184,1646940765.59205,385.139651050568,8.36831712722778,393.526110877991,395.610221614838,0.3,402.462777366638,0.650242328643799,403.114706983566,3,right,0.630926847457886,403.113019695282,604.471444358826,607.231444358826,1646941153.48149,1646941153.49417,1646941161.86795,1646941161.86978,1646941163.95206,1646941170.80462,1646941170.80642,1646941171.45655,1646941171.45486,1646941372.81329,0
109,4,1,3,22,8,1,c1_WhyFace,1,argument?,47,F_743.jpg,1646940765.58184,1646940765.59205,385.139651050568,8.36831712722778,393.526110877991,395.610221614838,0.3,403.429804792404,0.666914224624634,404.10227107048,1,left,0.648338079452515,404.096719017029,604.471444358826,607.231444358826,1646941153.48149,1646941153.49417,1646941161.86795,1646941161.86978,1646941163.95206,1646941171.77165,1646941171.77331,1646941172.44411,1646941172.43856,1646941372.81329,1
109,4,1,3,23,1,2,c2_WhyHand,1,helping?,39,H_024.jpg,1646940765.58184,1646940765.59205,404.180084457397,7.54786252975464,411.732899894714,413.833684911728,2.10078501701355,413.983738889694,1.50056052207947,415.485632171631,1,left,1.4906051158905,415.484299411774,604.471444358826,607.231444358826,1646941172.52193,1646941172.52759,1646941180.07474,1646941180.0778,1646941182.17553,1646941182.32558,1646941182.32807,1646941183.82748,1646941183.82614,1646941372.81329,1
109,4,1,3,23,2,2,c2_WhyHand,1,helping?,36,H_349.jpg,1646940765.58184,1646940765.59205,404.180084457397,7.54786252975464,411.732899894714,413.833684911728,0.3,415.801084270477,0.866990089416504,416.669724216461,1,left,0.845923900604248,416.668074359894,604.471444358826,607.231444358826,1646941172.52193,1646941172.52759,1646941180.07474,1646941180.0778,1646941182.17553,1646941184.14293,1646941184.14461,1646941185.01157,1646941185.00992,1646941372.81329,1
109,4,1,3,23,3,2,c2_WhyHand,1,helping?,38,H_077.jpg,1646940765.58184,1646940765.59205,404.180084457397,7.54786252975464,411.732899894714,413.833684911728,0.3,416.984859933853,0.816967487335205,417.803098192215,1,left,0.796875,417.801827421188,604.471444358826,607.231444358826,1646941172.52193,1646941172.52759,1646941180.07474,1646941180.0778,1646941182.17553,1646941185.3267,1646941185.32863,1646941186.14494,1646941186.14367,1646941372.81329,1
109,4,1,3,23,4,2,c2_WhyHand,1,helping?,37,H_474.jpg,1646940765.58184,1646940765.59205,404.180084457397,7.54786252975464,411.732899894714,413.833684911728,0.3,418.118615856171,0.983699083328247,419.103362073898,1,left,0.966439962387085,419.102314939499,604.471444358826,607.231444358826,1646941172.52193,1646941172.52759,1646941180.07474,1646941180.0778,1646941182.17553,1646941186.46046,1646941186.46145,1646941187.4452,1646941187.44416,1646941372.81329,1
109,4,1,3,23,5,2,c2_WhyHand,2,helping?,33,H_091.jpg,1646940765.58184,1646940765.59205,404.180084457397,7.54786252975464,411.732899894714,413.833684911728,0.3,419.41910027504,0.933680772781372,420.353869190216,3,right,0.921611070632935,420.352781047821,604.471444358826,607.231444358826,1646941172.52193,1646941172.52759,1646941180.07474,1646941180.0778,1646941182.17553,1646941187.76094,1646941187.76257,1646941188.69571,1646941188.69462,1646941372.81329,0
109,4,1,3,23,6,2,c2_WhyHand,2,helping?,35,H_159.jpg,1646940765.58184,1646940765.59205,404.180084457397,7.54786252975464,411.732899894714,413.833684911728,0.3,420.66956662178,0.850317716598511,421.521306028366,3,right,0.838443994522095,421.519884338379,604.471444358826,607.231444358826,1646941172.52193,1646941172.52759,1646941180.07474,1646941180.0778,1646941182.17553,1646941189.01141,1646941189.01304,1646941189.86315,1646941189.86173,1646941372.81329,0
109,4,1,3,23,7,2,c2_WhyHand,1,helping?,34,H_111.jpg,1646940765.58184,1646940765.59205,404.180084457397,7.54786252975464,411.732899894714,413.833684911728,0.3,421.836668481827,0.750279903411865,422.588060131073,1,left,0.728334903717041,422.586948385239,604.471444358826,607.231444358826,1646941172.52193,1646941172.52759,1646941180.07474,1646941180.0778,1646941182.17553,1646941190.17851,1646941190.18021,1646941190.9299,1646941190.92879,1646941372.81329,1
109,4,1,3,23,8,2,c2_WhyHand,2,helping?,40,H_012.jpg,1646940765.58184,1646940765.59205,404.180084457397,7.54786252975464,411.732899894714,413.833684911728,0.3,422.903733720779,0.850316762924194,423.755067100525,3,right,0.834189891815186,423.754050483704,604.471444358826,607.231444358826,1646941172.52193,1646941172.52759,1646941180.07474,1646941180.0778,1646941182.17553,1646941191.24558,1646941191.24705,1646941192.09691,1646941192.09589,1646941372.81329,0
109,4,1,3,24,1,4,c4_HowHand,1,both hands?,122,H_111.jpg,1646940765.58184,1646940765.59205,423.820741643906,5.97719955444336,429.806307783127,431.907090892792,2.10078310966492,432.057146062851,0.917008399963379,432.975954046249,1,left,0.889434099197388,432.974154462814,604.471444358826,607.231444358826,1646941192.16258,1646941192.17707,1646941198.14815,1646941198.16133,1646941200.24893,1646941200.39899,1646941200.41132,1646941201.3178,1646941201.316,1646941372.81329,1
109,4,1,3,24,2,4,c4_HowHand,1,both hands?,128,H_027.jpg,1646940765.58184,1646940765.59205,423.820741643906,5.97719955444336,429.806307783127,431.907090892792,0.3,433.290940275192,0.616896152496338,433.909610023499,1,left,0.600816011428833,433.907836427689,604.471444358826,607.231444358826,1646941192.16258,1646941192.17707,1646941198.14815,1646941198.16133,1646941200.24893,1646941201.63278,1646941201.63456,1646941202.25145,1646941202.24968,1646941372.81329,1
109,4,1,3,24,3,4,c4_HowHand,2,both hands?,121,H_091.jpg,1646940765.58184,1646940765.59205,423.820741643906,5.97719955444336,429.806307783127,431.907090892792,0.3,434.224621286392,0.716934442520142,434.952061166763,3,right,0.705006837844849,434.941555728912,604.471444358826,607.231444358826,1646941192.16258,1646941192.17707,1646941198.14815,1646941198.16133,1646941200.24893,1646941202.56646,1646941202.56828,1646941203.2939,1646941203.2834,1646941372.81329,0
109,4,1,3,24,4,4,c4_HowHand,1,both hands?,123,H_167.jpg,1646940765.58184,1646940765.59205,423.820741643906,5.97719955444336,429.806307783127,431.907090892792,0.3,435.258340110779,0.766952753067017,436.035849084854,1,left,0.758414030075073,436.025292863846,604.471444358826,607.231444358826,1646941192.16258,1646941192.17707,1646941198.14815,1646941198.16133,1646941200.24893,1646941203.60018,1646941203.60148,1646941204.37769,1646941204.36714,1646941372.81329,1
109,4,1,3,24,5,4,c4_HowHand,1,both hands?,124,H_581.jpg,1646940765.58184,1646940765.59205,423.820741643906,5.97719955444336,429.806307783127,431.907090892792,0.3,436.342077484131,0.850316762924194,437.201849212646,1,left,0.837037086486816,437.192394247055,604.471444358826,607.231444358826,1646941192.16258,1646941192.17707,1646941198.14815,1646941198.16133,1646941200.24893,1646941204.68392,1646941204.68606,1646941205.54369,1646941205.53424,1646941372.81329,1
109,4,1,3,24,6,4,c4_HowHand,2,both hands?,126,H_159.jpg,1646940765.58184,1646940765.59205,423.820741643906,5.97719955444336,429.806307783127,431.907090892792,0.3,437.509180059433,0.666915655136108,438.177157154083,3,right,0.645933151245117,438.176095714569,604.471444358826,607.231444358826,1646941192.16258,1646941192.17707,1646941198.14815,1646941198.16133,1646941200.24893,1646941205.85102,1646941205.85315,1646941206.519,1646941206.51794,1646941372.81329,0
109,4,1,3,24,7,4,c4_HowHand,1,both hands?,127,H_349.jpg,1646940765.58184,1646940765.59205,423.820741643906,5.97719955444336,429.806307783127,431.907090892792,0.3,438.49288271904,0.650240182876587,439.144255151749,1,left,0.630293846130371,439.143122901917,604.471444358826,607.231444358826,1646941192.16258,1646941192.17707,1646941198.14815,1646941198.16133,1646941200.24893,1646941206.83473,1646941206.83663,1646941207.4861,1646941207.48497,1646941372.81329,1
109,4,1,3,24,8,4,c4_HowHand,2,both hands?,125,H_627.jpg,1646940765.58184,1646940765.59205,423.820741643906,5.97719955444336,429.806307783127,431.907090892792,0.3,439.459906806946,0.700262308120728,440.161177148819,3,right,0.680410861968994,440.160169115067,604.471444358826,607.231444358826,1646941192.16258,1646941192.17707,1646941198.14815,1646941198.16133,1646941200.24893,1646941207.80175,1646941207.80364,1646941208.50302,1646941208.50201,1646941372.81329,0
109,4,1,3,25,1,2,c2_WhyHand,1,healthy?,18,H_438.jpg,1646940765.58184,1646940765.59205,440.226860275269,7.08806490898132,447.329507818222,449.430292835236,2.10078501701355,449.580348482132,1.13375568389893,450.7188210392,1,left,1.12053179740906,450.714104166031,604.471444358826,607.231444358826,1646941208.5687,1646941208.57707,1646941215.67135,1646941215.67821,1646941217.77214,1646941217.92219,1646941217.92764,1646941219.06066,1646941219.05595,1646941372.81329,1
109,4,1,3,25,2,2,c2_WhyHand,1,healthy?,23,H_364.jpg,1646940765.58184,1646940765.59205,440.226860275269,7.08806490898132,447.329507818222,449.430292835236,0.3,451.03088973999,0.850316524505615,451.882245054245,1,left,0.824285984039307,451.881206264496,604.471444358826,607.231444358826,1646941208.5687,1646941208.57707,1646941215.67135,1646941215.67821,1646941217.77214,1646941219.37273,1646941219.3776,1646941220.22409,1646941220.22305,1646941372.81329,1
109,4,1,3,25,3,2,c2_WhyHand,1,healthy?,17,H_362.jpg,1646940765.58184,1646940765.59205,440.226860275269,7.08806490898132,447.329507818222,449.430292835236,0.3,452.197991123199,0.733607053756714,452.935046186447,1,left,0.722939968109131,452.931598176956,604.471444358826,607.231444358826,1646941208.5687,1646941208.57707,1646941215.67135,1646941215.67821,1646941217.77214,1646941220.53983,1646941220.54413,1646941221.27689,1646941221.27344,1646941372.81329,1
109,4,1,3,25,4,2,c2_WhyHand,2,healthy?,24,H_019.jpg,1646940765.58184,1646940765.59205,440.226860275269,7.08806490898132,447.329507818222,449.430292835236,0.3,453.248382558823,0.833642482757568,454.083787193298,3,right,0.809663057327271,454.08202504158,604.471444358826,607.231444358826,1646941208.5687,1646941208.57707,1646941215.67135,1646941215.67821,1646941217.77214,1646941221.59023,1646941221.59435,1646941222.42563,1646941222.42387,1646941372.81329,0
109,4,1,3,25,5,2,c2_WhyHand,1,healthy?,19,H_167.jpg,1646940765.58184,1646940765.59205,440.226860275269,7.08806490898132,447.329507818222,449.430292835236,0.3,454.398811092377,0.733607292175293,455.133539190292,1,left,0.708621025085449,455.132418384552,604.471444358826,607.231444358826,1646941208.5687,1646941208.57707,1646941215.67135,1646941215.67821,1646941217.77214,1646941222.74065,1646941222.74404,1646941223.47538,1646941223.47426,1646941372.81329,1
109,4,1,3,25,6,2,c2_WhyHand,2,healthy?,20,H_007.jpg,1646940765.58184,1646940765.59205,440.226860275269,7.08806490898132,447.329507818222,449.430292835236,0.3,455.449203958511,0.950354337692261,456.402614107132,3,right,0.937562942504883,456.399558296204,604.471444358826,607.231444358826,1646941208.5687,1646941208.57707,1646941215.67135,1646941215.67821,1646941217.77214,1646941223.79105,1646941223.79419,1646941224.74446,1646941224.7414,1646941372.81329,0
109,4,1,3,25,7,2,c2_WhyHand,1,healthy?,21,H_627.jpg,1646940765.58184,1646940765.59205,440.226860275269,7.08806490898132,447.329507818222,449.430292835236,0.3,456.716343393326,0.700260162353516,457.418462982178,1,left,0.685202121734619,457.416603555679,604.471444358826,607.231444358826,1646941208.5687,1646941208.57707,1646941215.67135,1646941215.67821,1646941217.77214,1646941225.05819,1646941225.06088,1646941225.76031,1646941225.75845,1646941372.81329,1
109,4,1,3,25,8,2,c2_WhyHand,2,healthy?,22,H_130.jpg,1646940765.58184,1646940765.59205,440.226860275269,7.08806490898132,447.329507818222,449.430292835236,0.3,457.733387937546,0.716935634613037,458.452333202362,3,right,0.703742027282715,458.450323572159,604.471444358826,607.231444358826,1646941208.5687,1646941208.57707,1646941215.67135,1646941215.67821,1646941217.77214,1646941226.07523,1646941226.07766,1646941226.79418,1646941226.79217,1646941372.81329,0
109,4,1,3,26,1,4,c4_HowHand,1,pressing button?,82,H_126.jpg,1646940765.58184,1646940765.59205,458.533687582016,7.8351845741272,466.386615505219,468.487399091721,2.10078358650208,468.63745593071,0.566876649856567,469.205466022491,1,left,0.550301074981689,469.204332580566,604.471444358826,607.231444358826,1646941226.87553,1646941226.87758,1646941234.72846,1646941234.73025,1646941236.82924,1646941236.9793,1646941236.98123,1646941237.54731,1646941237.54618,1646941372.81329,1
109,4,1,3,26,2,4,c4_HowHand,2,pressing button?,85,H_130.jpg,1646940765.58184,1646940765.59205,458.533687582016,7.8351845741272,466.386615505219,468.487399091721,0.3,469.521117916107,0.583550930023193,470.106209030151,3,right,0.571078062057495,470.10466884613,604.471444358826,607.231444358826,1646941226.87553,1646941226.87758,1646941234.72846,1646941234.73025,1646941236.82924,1646941237.86296,1646941237.8647,1646941238.44805,1646941238.44651,1646941372.81329,0
109,4,1,3,26,3,4,c4_HowHand,1,pressing button?,84,H_483.jpg,1646940765.58184,1646940765.59205,458.533687582016,7.8351845741272,466.386615505219,468.487399091721,0.3,470.421453704834,0.633569717407227,471.056805124283,1,left,0.609461784362793,471.055023422241,604.471444358826,607.231444358826,1646941226.87553,1646941226.87758,1646941234.72846,1646941234.73025,1646941236.82924,1646941238.7633,1646941238.76506,1646941239.39865,1646941239.39687,1646941372.81329,1
109,4,1,3,26,4,4,c4_HowHand,2,pressing button?,87,H_024.jpg,1646940765.58184,1646940765.59205,458.533687582016,7.8351845741272,466.386615505219,468.487399091721,0.3,471.371808519363,0.900335073471069,472.273544063568,3,right,0.888492822647095,472.272143592834,604.471444358826,607.231444358826,1646941226.87553,1646941226.87758,1646941234.72846,1646941234.73025,1646941236.82924,1646941239.71365,1646941239.71551,1646941240.61539,1646941240.61399,1646941372.81329,0
109,4,1,3,26,5,4,c4_HowHand,1,pressing button?,86,H_332.jpg,1646940765.58184,1646940765.59205,458.533687582016,7.8351845741272,466.386615505219,468.487399091721,0.3,472.588928928375,0.566877365112305,473.168936004639,1,left,0.55771803855896,473.155806293488,604.471444358826,607.231444358826,1646941226.87553,1646941226.87758,1646941234.72846,1646941234.73025,1646941236.82924,1646941240.93077,1646941240.93239,1646941241.51078,1646941241.49765,1646941372.81329,1
109,4,1,3,26,6,4,c4_HowHand,1,pressing button?,88,H_019.jpg,1646940765.58184,1646940765.59205,458.533687582016,7.8351845741272,466.386615505219,468.487399091721,0.3,473.47259139061,0.55020546913147,474.023784151077,1,left,0.528841972351074,474.022796859741,604.471444358826,607.231444358826,1646941226.87553,1646941226.87758,1646941234.72846,1646941234.73025,1646941236.82924,1646941241.81443,1646941241.81616,1646941242.36563,1646941242.36464,1646941372.81329,1
109,4,1,3,26,7,4,c4_HowHand,2,pressing button?,81,H_261.jpg,1646940765.58184,1646940765.59205,458.533687582016,7.8351845741272,466.386615505219,468.487399091721,0.3,474.339582195282,0.716933250427246,475.058330049515,3,right,0.701613903045654,475.056515445709,604.471444358826,607.231444358826,1646941226.87553,1646941226.87758,1646941234.72846,1646941234.73025,1646941236.82924,1646941242.68143,1646941242.68312,1646941243.40017,1646941243.39836,1646941372.81329,0
109,4,1,3,26,8,4,c4_HowHand,1,pressing button?,83,H_502.jpg,1646940765.58184,1646940765.59205,458.533687582016,7.8351845741272,466.386615505219,468.487399091721,0.3,475.37330078125,0.600223064422607,475.986052026749,1,left,0.589438915252686,475.973523845673,604.471444358826,607.231444358826,1646941226.87553,1646941226.87758,1646941234.72846,1646941234.73025,1646941236.82924,1646941243.71514,1646941243.71722,1646941244.32789,1646941244.31537,1646941372.81329,1
109,4,1,3,27,1,3,c3_HowFace,1,looking at camera?,60,F_618.jpg,1646940765.58184,1646940765.59205,476.056888570786,7.84227442741394,483.909817447662,486.01060008049,2.10078263282776,486.160656919479,0.700259447097778,486.862229099274,1,left,0.675559043884277,486.860916366577,604.471444358826,607.231444358826,1646941244.39873,1646941244.41105,1646941252.25166,1646941252.26122,1646941254.35244,1646941254.5025,1646941254.51116,1646941255.20407,1646941255.20276,1646941372.81329,1
109,4,1,3,27,2,3,c3_HowFace,2,looking at camera?,58,F_754.jpg,1646940765.58184,1646940765.59205,476.056888570786,7.84227442741394,483.909817447662,486.01060008049,0.3,487.177702655792,0.63356876373291,487.818621149063,3,right,0.617446899414062,487.811271419525,604.471444358826,607.231444358826,1646941244.39873,1646941244.41105,1646941252.25166,1646941252.26122,1646941254.35244,1646941255.51955,1646941255.52145,1646941256.16046,1646941256.15311,1646941372.81329,0
109,4,1,3,27,3,3,c3_HowFace,1,looking at camera?,59,F_129.jpg,1646940765.58184,1646940765.59205,476.056888570786,7.84227442741394,483.909817447662,486.01060008049,0.3,488.128056755066,0.600223302841187,488.735537042618,1,left,0.592878818511963,488.728280057907,604.471444358826,607.231444358826,1646941244.39873,1646941244.41105,1646941252.25166,1646941252.26122,1646941254.35244,1646941256.4699,1646941256.47169,1646941257.07738,1646941257.07012,1646941372.81329,1
109,4,1,3,27,4,3,c3_HowFace,1,looking at camera?,62,F_598.jpg,1646940765.58184,1646940765.59205,476.056888570786,7.84227442741394,483.909817447662,486.01060008049,0.3,489.045065393448,1.05039215087891,490.102493991852,1,left,1.03191685676575,490.095457544327,604.471444358826,607.231444358826,1646941244.39873,1646941244.41105,1646941252.25166,1646941252.26122,1646941254.35244,1646941257.38691,1646941257.38906,1646941258.44434,1646941258.4373,1646941372.81329,1
109,4,1,3,27,5,3,c3_HowFace,1,looking at camera?,64,F_128.jpg,1646940765.58184,1646940765.59205,476.056888570786,7.84227442741394,483.909817447662,486.01060008049,0.3,490.412240972519,0.800300121307373,491.218610992432,1,left,0.783643007278442,491.212541093826,604.471444358826,607.231444358826,1646941244.39873,1646941244.41105,1646941252.25166,1646941252.26122,1646941254.35244,1646941258.75408,1646941258.75589,1646941259.56045,1646941259.55438,1646941372.81329,1
109,4,1,3,27,6,3,c3_HowFace,2,looking at camera?,57,F_582.jpg,1646940765.58184,1646940765.59205,476.056888570786,7.84227442741394,483.909817447662,486.01060008049,0.3,491.529325475693,0.950353622436523,492.480735054016,3,right,0.930704116821289,492.479679098129,604.471444358826,607.231444358826,1646941244.39873,1646941244.41105,1646941252.25166,1646941252.26122,1646941254.35244,1646941259.87117,1646941259.87306,1646941260.82258,1646941260.82152,1646941372.81329,0
109,4,1,3,27,7,3,c3_HowFace,1,looking at camera?,61,F_774.jpg,1646940765.58184,1646940765.59205,476.056888570786,7.84227442741394,483.909817447662,486.01060008049,0.3,492.79646443367,0.550204753875732,493.348408212662,1,left,0.527168035507202,493.346669187546,604.471444358826,607.231444358826,1646941244.39873,1646941244.41105,1646941252.25166,1646941252.26122,1646941254.35244,1646941261.13831,1646941261.14016,1646941261.69025,1646941261.68851,1646941372.81329,1
