src_subject_id,session_id,run_id,param_counterbalance_ver,param_block_num,param_trial_num,param_cond_type_num,param_cond_type_string,param_normative_response,param_ques_type_string,param_image_num,param_image_filename,param_trigger_onset,param_start_biopac,event01_fixation,event01_fixation_dur,event01_blockquestion_onset,event01_block_isi_blacksreen,event01_blockquestion_dur,event02_image_onset,event02_image_dur,event03_response_onset,event03_response_key,event03_response_keyname,event03_RT,event04_shortquestion_onset,param_end_instruct_onset,param_experiment_duration,RAW_e1_fixation,RAW_e1_fixation_biopac,RAW_e1_blockquestion_onset,RAW_e1_blockquestion_onset_biopac,RAW_e1_block_isi_blacksreen,RAW_e2_image_onset,RAW_e2_image_onset_biopac,RAW_e3_response_onset,RAW_e4_shortquestion_onset,RAW_param_end_instruct_onset,accuracy
55,4,2,3,1,1,4,c4_HowHand,1,reaching?,107,H_007.jpg,1629914852.7757,1629914852.77839,0.0247452163696287,0.0322377681732178,0.0747628116607664,2.10885499954224,2.03409218788147,2.25891183853149,1.10040974617004,3.36149715423584,1,left,1.07797002792358,3.35932158470154,604.483493556976,607.243493556976,1629914855.56044,1629914855.56546,1629914855.61046,1629914855.61274,1629914857.64455,1629914857.79461,1629914857.79663,1629914858.8972,1629914858.89502,1629915460.01919,1
55,4,2,3,1,2,4,c4_HowHand,2,reaching?,108,H_532.jpg,1629914852.7757,1629914852.77839,0.0247452163696287,0.0322377681732178,0.0747628116607664,2.10885499954224,0.3,3.67610692024231,0.866989850997925,4.54510902404785,3,right,0.852910995483398,4.54309677124023,604.483493556976,607.243493556976,1629914855.56044,1629914855.56546,1629914855.61046,1629914855.61274,1629914857.64455,1629914859.2118,1629914859.21344,1629914860.08081,1629914860.07879,1629915460.01919,0
55,4,2,3,1,3,4,c4_HowHand,1,reaching?,109,H_474.jpg,1629914852.7757,1629914852.77839,0.0247452163696287,0.0322377681732178,0.0747628116607664,2.10885499954224,0.3,4.85988139152527,0.800298690795898,5.66216610908508,1,left,0.780874013900757,5.66018008232117,604.483493556976,607.243493556976,1629914855.56044,1629914855.56546,1629914855.61046,1629914855.61274,1629914857.64455,1629914860.39558,1629914860.39717,1629914861.19786,1629914861.19588,1629915460.01919,1
55,4,2,3,1,4,4,c4_HowHand,2,reaching?,105,H_438.jpg,1629914852.7757,1629914852.77839,0.0247452163696287,0.0322377681732178,0.0747628116607664,2.10885499954224,0.3,5.97696422576904,1.06706500053406,7.0455100440979,1,left,1.05500507354736,7.0440292263031,604.483493556976,607.243493556976,1629914855.56044,1629914855.56546,1629914855.61046,1629914855.61274,1629914857.64455,1629914861.51266,1629914861.51418,1629914862.58121,1629914862.57973,1629915460.01919,0
55,4,2,3,1,5,4,c4_HowHand,1,reaching?,110,H_364.jpg,1629914852.7757,1629914852.77839,0.0247452163696287,0.0322377681732178,0.0747628116607664,2.10885499954224,0.3,7.36081336975098,1.00037360191345,8.37814306259155,3,right,0.986752986907959,8.36118697166443,604.483493556976,607.243493556976,1629914855.56044,1629914855.56546,1629914855.61046,1629914855.61274,1629914857.64455,1629914862.89651,1629914862.89958,1629914863.91384,1629914863.89688,1629915460.01919,0
55,4,2,3,1,6,4,c4_HowHand,1,reaching?,106,H_006.jpg,1629914852.7757,1629914852.77839,0.0247452163696287,0.0322377681732178,0.0747628116607664,2.10885499954224,0.3,8.67797159194946,0.933681964874268,9.61331104278564,1,left,0.923362970352173,9.61165355682373,604.483493556976,607.243493556976,1629914855.56044,1629914855.56546,1629914855.61046,1629914855.61274,1629914857.64455,1629914864.21367,1629914864.21457,1629914865.14901,1629914865.14735,1629915460.01919,1
55,4,2,3,1,7,4,c4_HowHand,1,reaching?,111,H_003.jpg,1629914852.7757,1629914852.77839,0.0247452163696287,0.0322377681732178,0.0747628116607664,2.10885499954224,0.3,9.92843865394592,0.683587074279785,10.6135020160675,1,left,0.670796871185303,10.6120257282257,604.483493556976,607.243493556976,1629914855.56044,1629914855.56546,1629914855.61046,1629914855.61274,1629914857.64455,1629914865.46414,1629914865.46582,1629914866.1492,1629914866.14772,1629915460.01919,1
55,4,2,3,1,8,4,c4_HowHand,2,reaching?,112,H_132.jpg,1629914852.7757,1629914852.77839,0.0247452163696287,0.0322377681732178,0.0747628116607664,2.10885499954224,0.3,10.9288108253479,0.883663177490234,11.8136911296844,3,right,0.871137142181396,11.8124740028381,604.483493556976,607.243493556976,1629914855.56044,1629914855.56546,1629914855.61046,1629914855.61274,1629914857.64455,1629914866.46451,1629914866.4665,1629914867.34939,1629914867.34817,1629915460.01919,0
55,4,2,3,2,1,2,c2_WhyHand,1,healthy?,21,H_627.jpg,1629914852.7757,1629914852.77839,11.9291837120056,5.60187745094299,17.547945728302,19.6487297916412,2.10078406333923,19.7987859153748,0.883662700653076,20.6931481266022,1,left,0.871094942092896,20.6824486160278,604.483493556976,607.243493556976,1629914867.46488,1629914867.4792,1629914873.08364,1629914873.0857,1629914875.18443,1629914875.33448,1629914875.3363,1629914876.22885,1629914876.21815,1629915460.01919,1
55,4,2,3,2,2,2,c2_WhyHand,1,healthy?,18,H_438.jpg,1629914852.7757,1629914852.77839,11.9291837120056,5.60187745094299,17.547945728302,19.6487297916412,0.3,20.9992332363129,0.93368124961853,21.9427781009674,1,left,0.925140142440796,21.9329144859314,604.483493556976,607.243493556976,1629914867.46488,1629914867.4792,1629914873.08364,1629914873.0857,1629914875.18443,1629914876.53493,1629914876.53649,1629914877.47848,1629914877.46861,1629915460.01919,1
55,4,2,3,2,3,2,c2_WhyHand,1,healthy?,23,H_364.jpg,1629914852.7757,1629914852.77839,11.9291837120056,5.60187745094299,17.547945728302,19.6487297916412,0.3,22.2497007751465,1.25046563148499,23.5093719863892,1,left,1.23677015304565,23.5001664066315,604.483493556976,607.243493556976,1629914867.46488,1629914867.4792,1629914873.08364,1629914873.0857,1629914875.18443,1629914877.7854,1629914877.78693,1629914879.04507,1629914879.03586,1629915460.01919,1
55,4,2,3,2,4,2,c2_WhyHand,2,healthy?,22,H_130.jpg,1629914852.7757,1629914852.77839,11.9291837120056,5.60187745094299,17.547945728302,19.6487297916412,0.3,23.8169510269165,0.850316762924194,24.6769649887085,3,right,0.837626934051514,24.6672677898407,604.483493556976,607.243493556976,1629914867.46488,1629914867.4792,1629914873.08364,1629914873.0857,1629914875.18443,1629914879.35265,1629914879.35475,1629914880.21266,1629914880.20297,1629915460.01919,0
55,4,2,3,2,5,2,c2_WhyHand,1,healthy?,17,H_362.jpg,1629914852.7757,1629914852.77839,11.9291837120056,5.60187745094299,17.547945728302,19.6487297916412,0.3,24.9840528869629,0.816971063613892,25.8094379806519,1,left,0.810616970062256,25.8010239505768,604.483493556976,607.243493556976,1629914867.46488,1629914867.4792,1629914873.08364,1629914873.0857,1629914875.18443,1629914880.51975,1629914880.52131,1629914881.34514,1629914881.33672,1629915460.01919,1
55,4,2,3,2,6,2,c2_WhyHand,2,healthy?,20,H_007.jpg,1629914852.7757,1629914852.77839,11.9291837120056,5.60187745094299,17.547945728302,19.6487297916412,0.3,26.117809047699,0.783626079559326,26.9030711555481,1,left,0.766923904418945,26.9014351272583,604.483493556976,607.243493556976,1629914867.46488,1629914867.4792,1629914873.08364,1629914873.0857,1629914875.18443,1629914881.65351,1629914881.65482,1629914882.43877,1629914882.43713,1629915460.01919,0
55,4,2,3,2,7,2,c2_WhyHand,1,healthy?,19,H_167.jpg,1629914852.7757,1629914852.77839,11.9291837120056,5.60187745094299,17.547945728302,19.6487297916412,0.3,27.218218793869,0.650243043899536,27.8701980018616,1,left,0.630578994750977,27.8684618377686,604.483493556976,607.243493556976,1629914867.46488,1629914867.4792,1629914873.08364,1629914873.0857,1629914875.18443,1629914882.75392,1629914882.75558,1629914883.4059,1629914883.40416,1629915460.01919,1
55,4,2,3,2,8,2,c2_WhyHand,2,healthy?,24,H_019.jpg,1629914852.7757,1629914852.77839,11.9291837120056,5.60187745094299,17.547945728302,19.6487297916412,0.3,28.1852457427978,0.616896867752075,28.81000207901,3,right,0.601222038269043,28.8021426105499,604.483493556976,607.243493556976,1629914867.46488,1629914867.4792,1629914873.08364,1629914873.0857,1629914875.18443,1629914883.72094,1629914883.7227,1629914884.3457,1629914884.33784,1629915460.01919,0
55,4,2,3,3,1,1,c1_WhyFace,1,admiring?,4,F_779.jpg,1629914852.7757,1629914852.77839,28.8855068588257,7.75354909896851,36.6550722026825,38.7558545970917,2.10078239440918,38.9059107208252,0.766952753067017,39.6761679553986,1,left,0.743983030319214,39.6728634738922,604.483493556976,607.243493556976,1629914884.4212,1629914884.42292,1629914892.19077,1629914892.19623,1629914894.29155,1629914894.44161,1629914894.44557,1629914895.21187,1629914895.20856,1629915460.01919,1
55,4,2,3,3,2,1,c1_WhyFace,1,admiring?,1,F_593.jpg,1629914852.7757,1629914852.77839,28.8855068588257,7.75354909896851,36.6550722026825,38.7558545970917,0.3,39.989648809433,0.716933012008667,40.7102000617981,1,left,0.700478076934814,40.7065818214417,604.483493556976,607.243493556976,1629914884.4212,1629914884.42292,1629914892.19077,1629914892.19623,1629914894.29155,1629914895.52535,1629914895.52892,1629914896.2459,1629914896.24228,1629915460.01919,1
55,4,2,3,3,3,1,c1_WhyFace,2,admiring?,3,F_110.jpg,1629914852.7757,1629914852.77839,28.8855068588257,7.75354909896851,36.6550722026825,38.7558545970917,0.3,41.0233666801453,0.683589220046997,41.7094390296936,3,right,0.664523839950562,41.7069559001923,604.483493556976,607.243493556976,1629914884.4212,1629914884.42292,1629914892.19077,1629914892.19623,1629914894.29155,1629914896.55906,1629914896.56248,1629914897.24514,1629914897.24265,1629915460.01919,0
55,4,2,3,3,4,1,c1_WhyFace,1,admiring?,8,F_590.jpg,1629914852.7757,1629914852.77839,28.8855068588257,7.75354909896851,36.6550722026825,38.7558545970917,0.3,42.0237409973145,0.850315809249878,42.8765139484406,1,left,0.831331968307495,42.8740568065643,604.483493556976,607.243493556976,1629914884.4212,1629914884.42292,1629914892.19077,1629914892.19623,1629914894.29155,1629914897.55944,1629914897.56227,1629914898.41221,1629914898.40975,1629915460.01919,1
55,4,2,3,3,5,1,c1_WhyFace,2,admiring?,6,F_692.jpg,1629914852.7757,1629914852.77839,28.8855068588257,7.75354909896851,36.6550722026825,38.7558545970917,0.3,43.1908397579193,0.833646774291992,44.0261640453339,3,right,0.813414096832275,44.0244865322113,604.483493556976,607.243493556976,1629914884.4212,1629914884.42292,1629914892.19077,1629914892.19623,1629914894.29155,1629914898.72654,1629914898.72914,1629914899.56186,1629914899.56018,1629915460.01919,0
55,4,2,3,3,6,1,c1_WhyFace,1,admiring?,5,F_759.jpg,1629914852.7757,1629914852.77839,28.8855068588257,7.75354909896851,36.6550722026825,38.7558545970917,0.3,44.3412706756592,0.766953468322754,45.1092581653595,1,left,0.756983041763306,45.1082241439819,604.483493556976,607.243493556976,1629914884.4212,1629914884.42292,1629914892.19077,1629914892.19623,1629914894.29155,1629914899.87697,1629914899.87895,1629914900.64496,1629914900.64392,1629915460.01919,1
55,4,2,3,3,7,1,c1_WhyFace,1,admiring?,7,F_648.jpg,1629914852.7757,1629914852.77839,28.8855068588257,7.75354909896851,36.6550722026825,38.7558545970917,0.3,45.425008764267,0.766952514648438,46.1928729915619,1,left,0.758634805679321,46.1919612789154,604.483493556976,607.243493556976,1629914884.4212,1629914884.42292,1629914892.19077,1629914892.19623,1629914894.29155,1629914900.96071,1629914900.96288,1629914901.72857,1629914901.72766,1629915460.01919,1
55,4,2,3,3,8,1,c1_WhyFace,2,admiring?,2,F_129.jpg,1629914852.7757,1629914852.77839,28.8855068588257,7.75354909896851,36.6550722026825,38.7558545970917,0.3,46.5087473297119,0.616894960403442,47.1273419761658,3,right,0.598886013031006,47.1256422901154,604.483493556976,607.243493556976,1629914884.4212,1629914884.42292,1629914892.19077,1629914892.19623,1629914894.29155,1629914902.04445,1629914902.04592,1629914902.66304,1629914902.66134,1629915460.01919,0
55,4,2,3,4,1,3,c3_HowFace,1,smiling?,119,F_139.jpg,1629914852.7757,1629914852.77839,47.1923346424103,8.41078042984009,55.6121396923065,57.7129251861572,2.10078549385071,57.8629810714722,0.48351263999939,58.3600590133667,1,left,0.475243091583252,58.3464937114716,604.483493556976,607.243493556976,1629914902.72803,1629914902.7296,1629914911.14784,1629914911.14993,1629914913.24862,1629914913.39868,1629914913.40003,1629914913.89576,1629914913.88219,1629915460.01919,1
55,4,2,3,4,2,3,c3_HowFace,2,smiling?,113,F_712.jpg,1629914852.7757,1629914852.77839,47.1923346424103,8.41078042984009,55.6121396923065,57.7129251861572,0.3,58.6632788085938,0.700261116027832,59.3646161460876,3,right,0.68091607093811,59.3635399246216,604.483493556976,607.243493556976,1629914902.72803,1629914902.7296,1629914911.14784,1629914911.14993,1629914913.24862,1629914914.19898,1629914914.20067,1629914914.90031,1629914914.89924,1629915460.01919,0
55,4,2,3,4,3,3,c3_HowFace,1,smiling?,115,F_695.jpg,1629914852.7757,1629914852.77839,47.1923346424103,8.41078042984009,55.6121396923065,57.7129251861572,0.3,59.6803254985809,0.600223302841187,60.2817671203613,1,left,0.580424785614014,60.2805488014221,604.483493556976,607.243493556976,1629914902.72803,1629914902.7296,1629914911.14784,1629914911.14993,1629914913.24862,1629914915.21602,1629914915.2176,1629914915.81747,1629914915.81625,1629915460.01919,1
55,4,2,3,4,4,3,c3_HowFace,2,smiling?,120,F_758.jpg,1629914852.7757,1629914852.77839,47.1923346424103,8.41078042984009,55.6121396923065,57.7129251861572,0.3,60.5973338985443,0.666914939880371,61.265239944458,3,right,0.644854068756104,61.2642488384247,604.483493556976,607.243493556976,1629914902.72803,1629914902.7296,1629914911.14784,1629914911.14993,1629914913.24862,1629914916.13303,1629914916.13471,1629914916.80094,1629914916.79995,1629915460.01919,0
55,4,2,3,4,5,3,c3_HowFace,1,smiling?,116,F_083.jpg,1629914852.7757,1629914852.77839,47.1923346424103,8.41078042984009,55.6121396923065,57.7129251861572,0.3,61.5810334587097,0.533532381057739,62.1164009475708,1,left,0.518689155578613,62.1145658397675,604.483493556976,607.243493556976,1629914902.72803,1629914902.7296,1629914911.14784,1629914911.14993,1629914913.24862,1629914917.11673,1629914917.11863,1629914917.6521,1629914917.65026,1629915460.01919,1
55,4,2,3,4,6,3,c3_HowFace,1,smiling?,118,F_759.jpg,1629914852.7757,1629914852.77839,47.1923346424103,8.41078042984009,55.6121396923065,57.7129251861572,0.3,62.4313509368897,0.566878080368042,62.9992790126801,1,left,0.546792030334473,62.9982290172577,604.483493556976,607.243493556976,1629914902.72803,1629914902.7296,1629914911.14784,1629914911.14993,1629914913.24862,1629914917.96705,1629914917.96886,1629914918.53498,1629914918.53393,1629915460.01919,1
55,4,2,3,4,7,3,c3_HowFace,2,smiling?,114,F_412.jpg,1629914852.7757,1629914852.77839,47.1923346424103,8.41078042984009,55.6121396923065,57.7129251861572,0.3,63.3150143527985,0.600224256515503,63.9261670017242,3,right,0.58870792388916,63.915238609314,604.483493556976,607.243493556976,1629914902.72803,1629914902.7296,1629914911.14784,1629914911.14993,1629914913.24862,1629914918.85071,1629914918.85208,1629914919.46186,1629914919.45094,1629915460.01919,0
55,4,2,3,4,8,3,c3_HowFace,1,smiling?,117,F_593.jpg,1629914852.7757,1629914852.77839,47.1923346424103,8.41078042984009,55.6121396923065,57.7129251861572,0.3,64.2320220375061,0.783626317977905,65.0265970134735,1,left,0.770406007766724,65.015648355484,604.483493556976,607.243493556976,1629914902.72803,1629914902.7296,1629914911.14784,1629914911.14993,1629914913.24862,1629914919.76772,1629914919.7695,1629914920.56229,1629914920.55135,1629915460.01919,1
55,4,2,3,5,1,4,c4_HowHand,1,lifting?,56,H_136.jpg,1629914852.7757,1629914852.77839,65.082339515686,8.05149245262146,73.1520144844055,75.2527987861633,2.10078430175781,75.4028539562225,1.15043020248413,76.5548429393768,3,right,1.12709498405457,76.5532841587067,604.483493556976,607.243493556976,1629914920.61804,1629914920.62895,1629914928.68771,1629914928.69054,1629914930.7885,1629914930.93855,1629914930.94057,1629914932.09054,1629914932.08898,1629915460.01919,0
55,4,2,3,5,2,4,c4_HowHand,2,lifting?,51,H_038.jpg,1629914852.7757,1629914852.77839,65.082339515686,8.05149245262146,73.1520144844055,75.2527987861633,0.3,76.8700690174103,0.63356876373291,77.505377998352,3,right,0.611881971359253,77.5036377811432,604.483493556976,607.243493556976,1629914920.61804,1629914920.62895,1629914928.68771,1629914928.69054,1629914930.7885,1629914932.40577,1629914932.40721,1629914933.04108,1629914933.03934,1629915460.01919,0
55,4,2,3,5,3,4,c4_HowHand,1,lifting?,52,H_189.jpg,1629914852.7757,1629914852.77839,65.082339515686,8.05149245262146,73.1520144844055,75.2527987861633,0.3,77.8204238319397,0.633569002151489,78.4601399803162,1,left,0.617606163024902,78.4539928340912,604.483493556976,607.243493556976,1629914920.61804,1629914920.62895,1629914928.68771,1629914928.69054,1629914930.7885,1629914933.35612,1629914933.35798,1629914933.99584,1629914933.98969,1629915460.01919,1
55,4,2,3,5,4,4,c4_HowHand,2,lifting?,53,H_077.jpg,1629914852.7757,1629914852.77839,65.082339515686,8.05149245262146,73.1520144844055,75.2527987861633,0.3,78.7707765007019,0.766953706741333,79.5427441501617,3,right,0.758153915405273,79.5377302074432,604.483493556976,607.243493556976,1629914920.61804,1629914920.62895,1629914928.68771,1629914928.69054,1629914930.7885,1629914934.30647,1629914934.30818,1629914935.07844,1629914935.07343,1629915460.01919,0
55,4,2,3,5,5,4,c4_HowHand,1,lifting?,50,H_443.jpg,1629914852.7757,1629914852.77839,65.082339515686,8.05149245262146,73.1520144844055,75.2527987861633,0.3,79.8545148277283,1.00037288665771,80.856436958313,1,left,0.978293895721436,80.854887714386,604.483493556976,607.243493556976,1629914920.61804,1629914920.62895,1629914928.68771,1629914928.69054,1629914930.7885,1629914935.39021,1629914935.3916,1629914936.39213,1629914936.39059,1629915460.01919,1
55,4,2,3,5,6,4,c4_HowHand,2,lifting?,55,H_012.jpg,1629914852.7757,1629914852.77839,65.082339515686,8.05149245262146,73.1520144844055,75.2527987861633,0.3,81.1716732883453,0.900335550308228,82.0761799716949,3,right,0.88469409942627,82.0720088386536,604.483493556976,607.243493556976,1629914920.61804,1629914920.62895,1629914928.68771,1629914928.69054,1629914930.7885,1629914936.70737,1629914936.71261,1629914937.61188,1629914937.60771,1629915460.01919,0
55,4,2,3,5,7,4,c4_HowHand,1,lifting?,49,H_362.jpg,1629914852.7757,1629914852.77839,65.082339515686,8.05149245262146,73.1520144844055,75.2527987861633,0.3,82.3887927436829,0.666915893554688,83.0599779987335,1,left,0.645313024520874,83.0557086372375,604.483493556976,607.243493556976,1629914920.61804,1629914920.62895,1629914928.68771,1629914928.69054,1629914930.7885,1629914937.92449,1629914937.92888,1629914938.59568,1629914938.59141,1629915460.01919,1
55,4,2,3,5,8,4,c4_HowHand,1,lifting?,54,H_170.jpg,1629914852.7757,1629914852.77839,65.082339515686,8.05149245262146,73.1520144844055,75.2527987861633,0.3,83.3724944496155,1.16710162162781,84.543631067276,3,right,1.14643096923828,84.5395960712433,604.483493556976,607.243493556976,1629914920.61804,1629914920.62895,1629914928.68771,1629914928.69054,1629914930.7885,1629914938.90819,1629914938.91204,1629914940.07933,1629914940.07529,1629915460.01919,0
55,4,2,3,6,1,2,c2_WhyHand,1,helping?,38,H_077.jpg,1629914852.7757,1629914852.77839,84.6062872314453,11.0086688995361,95.6270632648468,97.7278466129303,2.1007833480835,97.8779024982452,0.633570432662964,98.5131699943542,1,left,0.613454103469849,98.5114729309082,604.483493556976,607.243493556976,1629914940.14199,1629914940.14513,1629914951.16276,1629914951.16417,1629914953.26354,1629914953.4136,1629914953.41551,1629914954.04887,1629914954.04717,1629915460.01919,1
55,4,2,3,6,2,2,c2_WhyHand,1,helping?,36,H_349.jpg,1629914852.7757,1629914852.77839,84.6062872314453,11.0086688995361,95.6270632648468,97.7278466129303,0.3,98.828258266449,0.833642721176147,99.6629650497436,1,left,0.812696218490601,99.6619009876251,604.483493556976,607.243493556976,1629914940.14199,1629914940.14513,1629914951.16276,1629914951.16417,1629914953.26354,1629914954.36396,1629914954.36514,1629914955.19866,1629914955.1976,1629915460.01919,1
55,4,2,3,6,3,2,c2_WhyHand,1,helping?,37,H_474.jpg,1629914852.7757,1629914852.77839,84.6062872314453,11.0086688995361,95.6270632648468,97.7278466129303,0.3,99.9786865615845,0.850317239761353,100.842782011032,3,right,0.840631008148193,100.829003801346,604.483493556976,607.243493556976,1629914940.14199,1629914940.14513,1629914951.16276,1629914951.16417,1629914953.26354,1629914955.51438,1629914955.51633,1629914956.37848,1629914956.3647,1629915460.01919,0
55,4,2,3,6,4,2,c2_WhyHand,1,helping?,39,H_024.jpg,1629914852.7757,1629914852.77839,84.6062872314453,11.0086688995361,95.6270632648468,97.7278466129303,0.3,101.145787944794,1.41719460487366,102.563980093002,3,right,1.4039671421051,102.562982549667,604.483493556976,607.243493556976,1629914940.14199,1629914940.14513,1629914951.16276,1629914951.16417,1629914953.26354,1629914956.68149,1629914956.68348,1629914958.09968,1629914958.09868,1629915460.01919,0
55,4,2,3,6,5,2,c2_WhyHand,2,helping?,40,H_012.jpg,1629914852.7757,1629914852.77839,84.6062872314453,11.0086688995361,95.6270632648468,97.7278466129303,0.3,102.879768123627,1.21712040901184,104.097928991318,3,right,1.20221710205078,104.096888532639,604.483493556976,607.243493556976,1629914940.14199,1629914940.14513,1629914951.16276,1629914951.16417,1629914953.26354,1629914958.41547,1629914958.41723,1629914959.63363,1629914959.63259,1629915460.01919,0
55,4,2,3,6,6,2,c2_WhyHand,2,helping?,35,H_159.jpg,1629914852.7757,1629914852.77839,84.6062872314453,11.0086688995361,95.6270632648468,97.7278466129303,0.3,104.413674345016,0.950353384017944,105.365378131866,3,right,0.929743051528931,105.364027729034,604.483493556976,607.243493556976,1629914940.14199,1629914940.14513,1629914951.16276,1629914951.16417,1629914953.26354,1629914959.94937,1629914959.95118,1629914960.90108,1629914960.89973,1629915460.01919,0
55,4,2,3,6,7,2,c2_WhyHand,1,helping?,34,H_111.jpg,1629914852.7757,1629914852.77839,84.6062872314453,11.0086688995361,95.6270632648468,97.7278466129303,0.3,105.680813302994,0.917008876800537,106.59933303833,1,left,0.899352073669434,106.597822179794,604.483493556976,607.243493556976,1629914940.14199,1629914940.14513,1629914951.16276,1629914951.16417,1629914953.26354,1629914961.21651,1629914961.21823,1629914962.13503,1629914962.13352,1629915460.01919,1
55,4,2,3,6,8,2,c2_WhyHand,2,helping?,33,H_091.jpg,1629914852.7757,1629914852.77839,84.6062872314453,11.0086688995361,95.6270632648468,97.7278466129303,0.3,106.914606561661,0.833643674850464,107.759763946533,3,right,0.824347019195557,107.748250236511,604.483493556976,607.243493556976,1629914940.14199,1629914940.14513,1629914951.16276,1629914951.16417,1629914953.26354,1629914962.4503,1629914962.4522,1629914963.29546,1629914963.28395,1629915460.01919,0
55,4,2,3,7,1,1,c1_WhyFace,1,proud?,104,F_598.jpg,1629914852.7757,1629914852.77839,107.814941635132,5.67510652542114,113.500396242142,115.601179113388,2.10078287124634,115.751234998703,1.26713919639587,117.026906957626,3,right,1.2427339553833,117.018374195099,604.483493556976,607.243493556976,1629914963.35064,1629914963.36235,1629914969.03609,1629914969.04654,1629914971.13688,1629914971.28693,1629914971.29715,1629914972.5626,1629914972.55407,1629915460.01919,0
55,4,2,3,7,2,1,c1_WhyFace,2,proud?,102,F_760.jpg,1629914852.7757,1629914852.77839,107.814941635132,5.67510652542114,113.500396242142,115.601179113388,0.3,117.335159292221,0.800298690795898,118.143347969055,3,right,0.78933310508728,118.135457983017,604.483493556976,607.243493556976,1629914963.35064,1629914963.36235,1629914969.03609,1629914969.04654,1629914971.13688,1629914972.87086,1629914972.87261,1629914973.67905,1629914973.67116,1629915460.01919,0
55,4,2,3,7,3,1,c1_WhyFace,1,proud?,97,F_582.jpg,1629914852.7757,1629914852.77839,107.814941635132,5.67510652542114,113.500396242142,115.601179113388,0.3,118.452243080139,0.766952276229858,119.226737966537,1,left,0.751171112060547,119.219195356369,604.483493556976,607.243493556976,1629914963.35064,1629914963.36235,1629914969.03609,1629914969.04654,1629914971.13688,1629914973.98794,1629914973.98964,1629914974.76244,1629914974.75489,1629915460.01919,1
55,4,2,3,7,4,1,c1_WhyFace,2,proud?,98,F_412.jpg,1629914852.7757,1629914852.77839,107.814941635132,5.67510652542114,113.500396242142,115.601179113388,0.3,119.535979738235,0.666915416717529,120.204545965195,3,right,0.64830207824707,120.202895154953,604.483493556976,607.243493556976,1629914963.35064,1629914963.36235,1629914969.03609,1629914969.04654,1629914971.13688,1629914975.07168,1629914975.0736,1629914975.74024,1629914975.73859,1629915460.01919,0
55,4,2,3,7,5,1,c1_WhyFace,1,proud?,101,F_083.jpg,1629914852.7757,1629914852.77839,107.814941635132,5.67510652542114,113.500396242142,115.601179113388,0.3,120.519679775238,0.9170081615448,121.443629970551,1,left,0.90592098236084,121.436687936783,604.483493556976,607.243493556976,1629914963.35064,1629914963.36235,1629914969.03609,1629914969.04654,1629914971.13688,1629914976.05538,1629914976.0568,1629914976.97933,1629914976.97239,1629915460.01919,1
55,4,2,3,7,6,1,c1_WhyFace,2,proud?,100,F_776.jpg,1629914852.7757,1629914852.77839,107.814941635132,5.67510652542114,113.500396242142,115.601179113388,0.3,121.753472795486,0.967027902603149,122.726639022827,3,right,0.951112031936646,122.72050069809,604.483493556976,607.243493556976,1629914963.35064,1629914963.36235,1629914969.03609,1629914969.04654,1629914971.13688,1629914977.28917,1629914977.29098,1629914978.26234,1629914978.2562,1629915460.01919,0
55,4,2,3,7,7,1,c1_WhyFace,1,proud?,103,F_618.jpg,1629914852.7757,1629914852.77839,107.814941635132,5.67510652542114,113.500396242142,115.601179113388,0.3,123.037285795212,0.900336503982544,123.943117132187,3,right,0.883470058441162,123.937622299194,604.483493556976,607.243493556976,1629914963.35064,1629914963.36235,1629914969.03609,1629914969.04654,1629914971.13688,1629914978.57298,1629914978.57468,1629914979.47882,1629914979.47332,1629915460.01919,0
55,4,2,3,7,8,1,c1_WhyFace,1,proud?,99,F_695.jpg,1629914852.7757,1629914852.77839,107.814941635132,5.67510652542114,113.500396242142,115.601179113388,0.3,124.254405965805,1.06706500053406,125.326192131042,3,right,1.05010986328125,125.321470966339,604.483493556976,607.243493556976,1629914963.35064,1629914963.36235,1629914969.03609,1629914969.04654,1629914971.13688,1629914979.7901,1629914979.7916,1629914980.86189,1629914980.85717,1629915460.01919,0
55,4,2,3,8,1,3,c3_HowFace,1,looking to side?,72,F_590.jpg,1629914852.7757,1629914852.77839,125.388161888123,5.63176512718201,131.023596754074,133.124381055832,2.10078430175781,133.274435749054,1.68396234512329,134.959809055328,1,left,1.66176891326904,134.958398094177,604.483493556976,607.243493556976,1629914980.92386,1629914980.92909,1629914986.55929,1629914986.56264,1629914988.66008,1629914988.81013,1629914988.81265,1629914990.49551,1629914990.4941,1629915460.01919,1
55,4,2,3,8,2,3,c3_HowFace,1,looking to side?,71,F_433.jpg,1629914852.7757,1629914852.77839,125.388161888123,5.63176512718201,131.023596754074,133.124381055832,0.3,135.275182952881,0.58355188369751,135.859784116745,1,left,0.570387840270996,135.858734836578,604.483493556976,607.243493556976,1629914980.92386,1629914980.92909,1629914986.55929,1629914986.56264,1629914988.66008,1629914990.81088,1629914990.81266,1629914991.39548,1629914991.39443,1629915460.01919,1
55,4,2,3,8,3,3,c3_HowFace,1,looking to side?,67,F_716.jpg,1629914852.7757,1629914852.77839,125.388161888123,5.63176512718201,131.023596754074,133.124381055832,0.3,136.175517549515,0.566879034042358,136.744194021225,1,left,0.548882007598877,136.742396583557,604.483493556976,607.243493556976,1629914980.92386,1629914980.92909,1629914986.55929,1629914986.56264,1629914988.66008,1629914991.71122,1629914991.71284,1629914992.27989,1629914992.27809,1629915460.01919,1
55,4,2,3,8,4,3,c3_HowFace,2,looking to side?,70,F_779.jpg,1629914852.7757,1629914852.77839,125.388161888123,5.63176512718201,131.023596754074,133.124381055832,0.3,137.059181203842,0.850318193435669,137.910500040054,3,right,0.837890863418579,137.909499397278,604.483493556976,607.243493556976,1629914980.92386,1629914980.92909,1629914986.55929,1629914986.56264,1629914988.66008,1629914992.59488,1629914992.59667,1629914993.4462,1629914993.4452,1629915460.01919,0
55,4,2,3,8,5,3,c3_HowFace,1,looking to side?,68,F_760.jpg,1629914852.7757,1629914852.77839,125.388161888123,5.63176512718201,131.023596754074,133.124381055832,0.3,138.226283302307,0.816972017288208,139.044208993912,1,left,0.80791711807251,139.043255319595,604.483493556976,607.243493556976,1629914980.92386,1629914980.92909,1629914986.55929,1629914986.56264,1629914988.66008,1629914993.76198,1629914993.76348,1629914994.57991,1629914994.57895,1629915460.01919,1
55,4,2,3,8,6,3,c3_HowFace,2,looking to side?,66,F_111.jpg,1629914852.7757,1629914852.77839,125.388161888123,5.63176512718201,131.023596754074,133.124381055832,0.3,139.36003993988,0.716934204101562,140.078394165039,3,right,0.696259021759033,140.076974143982,604.483493556976,607.243493556976,1629914980.92386,1629914980.92909,1629914986.55929,1629914986.56264,1629914988.66008,1629914994.89574,1629914994.89751,1629914995.61409,1629914995.61267,1629915460.01919,0
55,4,2,3,8,7,3,c3_HowFace,1,looking to side?,69,F_110.jpg,1629914852.7757,1629914852.77839,125.388161888123,5.63176512718201,131.023596754074,133.124381055832,0.3,140.393757810593,0.816970825195312,141.212548961639,1,left,0.800647974014282,141.210728635788,604.483493556976,607.243493556976,1629914980.92386,1629914980.92909,1629914986.55929,1629914986.56264,1629914988.66008,1629914995.92946,1629914995.93085,1629914996.74825,1629914996.74643,1629915460.01919,1
55,4,2,3,8,8,3,c3_HowFace,2,looking to side?,65,F_798.jpg,1629914852.7757,1629914852.77839,125.388161888123,5.63176512718201,131.023596754074,133.124381055832,0.3,141.52751373291,0.866990089416504,142.396128168106,3,right,0.843955039978027,142.394503822327,604.483493556976,607.243493556976,1629914980.92386,1629914980.92909,1629914986.55929,1629914986.56264,1629914988.66008,1629914997.06321,1629914997.06507,1629914997.93183,1629914997.9302,1629915460.01919,0
55,4,2,3,9,1,1,c1_WhyFace,1,argument?,43,F_716.jpg,1629914852.7757,1629914852.77839,142.461196174622,7.66682696342468,150.147395601273,152.231505861282,2.08411026000977,152.381561746597,0.95035457611084,153.343069067001,1,left,0.927909851074219,153.331916322708,604.483493556976,607.243493556976,1629914997.99689,1629914997.99859,1629915005.68309,1629915005.68471,1629915007.7672,1629915007.91726,1629915007.92896,1629915008.87877,1629915008.86761,1629915460.01919,1
55,4,2,3,9,2,1,c1_WhyFace,2,argument?,44,F_139.jpg,1629914852.7757,1629914852.77839,142.461196174622,7.66682696342468,150.147395601273,152.231505861282,0.3,153.648701658249,0.600222826004028,154.2500440979,3,right,0.581974983215332,154.248924484253,604.483493556976,607.243493556976,1629914997.99689,1629914997.99859,1629915005.68309,1629915005.68471,1629915007.7672,1629915009.1844,1629915009.18613,1629915009.78574,1629915009.78462,1629915460.01919,0
55,4,2,3,9,3,1,c1_WhyFace,1,argument?,41,F_712.jpg,1629914852.7757,1629914852.77839,142.461196174622,7.66682696342468,150.147395601273,152.231505861282,0.3,154.565708627701,0.666916370391846,155.243383159637,1,left,0.65495491027832,155.232624998093,604.483493556976,607.243493556976,1629914997.99689,1629914997.99859,1629915005.68309,1629915005.68471,1629915007.7672,1629915010.10141,1629915010.10329,1629915010.77908,1629915010.76832,1629915460.01919,1
55,4,2,3,9,4,1,c1_WhyFace,2,argument?,45,F_433.jpg,1629914852.7757,1629914852.77839,142.461196174622,7.66682696342468,150.147395601273,152.231505861282,0.3,155.549410095215,0.600224256515503,156.151328077316,3,right,0.578690052032471,156.14963435173,604.483493556976,607.243493556976,1629914997.99689,1629914997.99859,1629915005.68309,1629915005.68471,1629915007.7672,1629915011.08511,1629915011.08665,1629915011.68703,1629915011.68533,1629915460.01919,0
55,4,2,3,9,5,1,c1_WhyFace,1,argument?,42,F_403.jpg,1629914852.7757,1629914852.77839,142.461196174622,7.66682696342468,150.147395601273,152.231505861282,0.3,156.466418495178,0.783625602722168,157.251844158173,1,left,0.764847040176392,157.2500440979,604.483493556976,607.243493556976,1629914997.99689,1629914997.99859,1629915005.68309,1629915005.68471,1629915007.7672,1629915012.00212,1629915012.00348,1629915012.78754,1629915012.78574,1629915460.01919,1
55,4,2,3,9,6,1,c1_WhyFace,2,argument?,46,F_844.jpg,1629914852.7757,1629914852.77839,142.461196174622,7.66682696342468,150.147395601273,152.231505861282,0.3,157.566829195023,0.800298452377319,158.368560066223,3,right,0.782725095748901,158.3671276474,604.483493556976,607.243493556976,1629914997.99689,1629914997.99859,1629915005.68309,1629915005.68471,1629915007.7672,1629915013.10253,1629915013.10407,1629915013.90426,1629915013.90283,1629915460.01919,0
55,4,2,3,9,7,1,c1_WhyFace,1,argument?,47,F_743.jpg,1629914852.7757,1629914852.77839,142.461196174622,7.66682696342468,150.147395601273,152.231505861282,0.3,158.683912982941,0.716933250427246,159.409397115707,1,left,0.701872110366821,159.400846233368,604.483493556976,607.243493556976,1629914997.99689,1629914997.99859,1629915005.68309,1629915005.68471,1629915007.7672,1629915014.21961,1629915014.2212,1629915014.9451,1629915014.93654,1629915460.01919,1
55,4,2,3,9,8,1,c1_WhyFace,1,argument?,48,F_758.jpg,1629914852.7757,1629914852.77839,142.461196174622,7.66682696342468,150.147395601273,152.231505861282,0.3,159.717630853653,1.00037288665771,160.726521005631,1,left,0.987980842590332,160.718003740311,604.483493556976,607.243493556976,1629914997.99689,1629914997.99859,1629915005.68309,1629915005.68471,1629915007.7672,1629915015.25333,1629915015.25514,1629915016.26222,1629915016.2537,1629915460.01919,1
55,4,2,3,10,1,3,c3_HowFace,1,open mouth?,80,F_844.jpg,1629914852.7757,1629914852.77839,160.801369419098,7.16664361953735,167.987381925583,170.071491708756,2.08410978317261,170.221548070908,0.816972255706787,171.042757978439,1,left,0.800457000732422,171.038520326614,604.483493556976,607.243493556976,1629915016.33707,1629915016.33886,1629915023.52308,1629915023.52482,1629915025.60719,1629915025.75725,1629915025.76262,1629915026.57846,1629915026.57422,1629915460.01919,1
55,4,2,3,10,2,3,c3_HowFace,1,open mouth?,74,F_776.jpg,1629914852.7757,1629914852.77839,160.801369419098,7.16664361953735,167.987381925583,170.071491708756,0.3,171.355303993225,0.533533096313477,171.892796983719,1,left,0.511296033859253,171.888837089539,604.483493556976,607.243493556976,1629915016.33707,1629915016.33886,1629915023.52308,1629915023.52482,1629915025.60719,1629915026.891,1629915026.89594,1629915027.42849,1629915027.42454,1629915460.01919,1
55,4,2,3,10,3,3,c3_HowFace,2,open mouth?,76,F_544.jpg,1629914852.7757,1629914852.77839,160.801369419098,7.16664361953735,167.987381925583,170.071491708756,0.3,172.205621709824,0.633569002151489,172.843327035904,3,right,0.621905088424683,172.839190711975,604.483493556976,607.243493556976,1629915016.33707,1629915016.33886,1629915023.52308,1629915023.52482,1629915025.60719,1629915027.74132,1629915027.74565,1629915028.37902,1629915028.37489,1629915460.01919,0
55,4,2,3,10,4,3,c3_HowFace,1,open mouth?,78,F_692.jpg,1629914852.7757,1629914852.77839,160.801369419098,7.16664361953735,167.987381925583,170.071491708756,0.3,173.155976047516,0.566878318786621,173.726020088196,1,left,0.555611133575439,173.722854366302,604.483493556976,607.243493556976,1629915016.33707,1629915016.33886,1629915023.52308,1629915023.52482,1629915025.60719,1629915028.69167,1629915028.69581,1629915029.26172,1629915029.25855,1629915460.01919,1
55,4,2,3,10,5,3,c3_HowFace,2,open mouth?,77,F_584.jpg,1629914852.7757,1629914852.77839,160.801369419098,7.16664361953735,167.987381925583,170.071491708756,0.3,174.039639225006,0.666914701461792,174.709503164291,3,right,0.647775173187256,174.706553926468,604.483493556976,607.243493556976,1629915016.33707,1629915016.33886,1629915023.52308,1629915023.52482,1629915025.60719,1629915029.57534,1629915029.57876,1629915030.2452,1629915030.24225,1629915460.01919,0
55,4,2,3,10,6,3,c3_HowFace,1,open mouth?,73,F_403.jpg,1629914852.7757,1629914852.77839,160.801369419098,7.16664361953735,167.987381925583,170.071491708756,0.3,175.02333902359,0.600224018096924,175.626547088623,1,left,0.577634811401367,175.623563041687,604.483493556976,607.243493556976,1629915016.33707,1629915016.33886,1629915023.52308,1629915023.52482,1629915025.60719,1629915030.55904,1629915030.56238,1629915031.16225,1629915031.15926,1629915460.01919,1
55,4,2,3,10,7,3,c3_HowFace,1,open mouth?,75,F_086.jpg,1629914852.7757,1629914852.77839,160.801369419098,7.16664361953735,167.987381925583,170.071491708756,0.3,175.940348138809,0.583551168441772,176.526010980606,1,left,0.573547124862671,176.523899307251,604.483493556976,607.243493556976,1629915016.33707,1629915016.33886,1629915023.52308,1629915023.52482,1629915025.60719,1629915031.47605,1629915031.47898,1629915032.06171,1629915032.0596,1629915460.01919,1
55,4,2,3,10,8,3,c3_HowFace,2,open mouth?,79,F_648.jpg,1629914852.7757,1629914852.77839,160.801369419098,7.16664361953735,167.987381925583,170.071491708756,0.3,176.840682735443,0.583551406860352,177.426697006226,3,right,0.569015026092529,177.424234142303,604.483493556976,607.243493556976,1629915016.33707,1629915016.33886,1629915023.52308,1629915023.52482,1629915025.60719,1629915032.37638,1629915032.37872,1629915032.96239,1629915032.95993,1629915460.01919,0
55,4,2,3,11,1,4,c4_HowHand,1,pressing button?,88,H_019.jpg,1629914852.7757,1629914852.77839,177.490925540924,8.36716651916504,185.877387752533,187.961497058868,2.08410930633545,188.111552467346,0.917009353637695,189.029531946182,3,right,0.890772104263306,189.028561820984,604.483493556976,607.243493556976,1629915033.02662,1629915033.02909,1629915041.41309,1629915041.41469,1629915043.4972,1629915043.64725,1629915043.66269,1629915044.56523,1629915044.56426,1629915460.01919,0
55,4,2,3,11,2,4,c4_HowHand,2,pressing button?,87,H_024.jpg,1629914852.7757,1629914852.77839,177.490925540924,8.36716651916504,185.877387752533,187.961497058868,0.3,189.345345487595,0.800299167633057,190.147371997833,3,right,0.77709698677063,190.145644655228,604.483493556976,607.243493556976,1629915033.02662,1629915033.02909,1629915041.41309,1629915041.41469,1629915043.4972,1629915044.88104,1629915044.88302,1629915045.68307,1629915045.68134,1629915460.01919,0
55,4,2,3,11,3,4,c4_HowHand,2,pressing button?,85,H_130.jpg,1629914852.7757,1629914852.77839,177.490925540924,8.36716651916504,185.877387752533,187.961497058868,0.3,190.46242975235,0.700261116027832,191.176676025391,3,right,0.689589023590088,191.162690868378,604.483493556976,607.243493556976,1629915033.02662,1629915033.02909,1629915041.41309,1629915041.41469,1629915043.4972,1629915045.99813,1629915046.0001,1629915046.71237,1629915046.69839,1629915460.01919,0
55,4,2,3,11,4,4,c4_HowHand,1,pressing button?,83,H_502.jpg,1629914852.7757,1629914852.77839,177.490925540924,8.36716651916504,185.877387752533,187.961497058868,0.3,191.479475488663,0.650241851806641,192.130800952911,1,left,0.631853103637695,192.129717340469,604.483493556976,607.243493556976,1629915033.02662,1629915033.02909,1629915041.41309,1629915041.41469,1629915043.4972,1629915047.01517,1629915047.01743,1629915047.6665,1629915047.66542,1629915460.01919,1
55,4,2,3,11,5,4,c4_HowHand,2,pressing button?,81,H_261.jpg,1629914852.7757,1629914852.77839,177.490925540924,8.36716651916504,185.877387752533,187.961497058868,0.3,192.446502914429,0.600224018096924,193.048182954788,3,right,0.582831144332886,193.046726932526,604.483493556976,607.243493556976,1629915033.02662,1629915033.02909,1629915041.41309,1629915041.41469,1629915043.4972,1629915047.9822,1629915047.98372,1629915048.58388,1629915048.58242,1629915460.01919,0
55,4,2,3,11,6,4,c4_HowHand,1,pressing button?,86,H_332.jpg,1629914852.7757,1629914852.77839,177.490925540924,8.36716651916504,185.877387752533,187.961497058868,0.3,193.363512268066,0.566877603530884,193.931431999207,1,left,0.544204950332642,193.930389871597,604.483493556976,607.243493556976,1629915033.02662,1629915033.02909,1629915041.41309,1629915041.41469,1629915043.4972,1629915048.89921,1629915048.90081,1629915049.46713,1629915049.46609,1629915460.01919,1
55,4,2,3,11,7,4,c4_HowHand,1,pressing button?,82,H_126.jpg,1629914852.7757,1629914852.77839,177.490925540924,8.36716651916504,185.877387752533,187.961497058868,0.3,194.247174253464,0.650242328643799,194.909502973557,1,left,0.638071060180664,194.897416582108,604.483493556976,607.243493556976,1629915033.02662,1629915033.02909,1629915041.41309,1629915041.41469,1629915043.4972,1629915049.78287,1629915049.78459,1629915050.4452,1629915050.43311,1629915460.01919,1
55,4,2,3,11,8,4,c4_HowHand,1,pressing button?,84,H_483.jpg,1629914852.7757,1629914852.77839,177.490925540924,8.36716651916504,185.877387752533,187.961497058868,0.3,195.214202156067,0.950353622436523,196.165555944443,1,left,0.929041147232056,196.164555778503,604.483493556976,607.243493556976,1629915033.02662,1629915033.02909,1629915041.41309,1629915041.41469,1629915043.4972,1629915050.7499,1629915050.75133,1629915051.70125,1629915051.70025,1629915460.01919,1
55,4,2,3,12,1,2,c2_WhyHand,1,competing?,9,H_261.jpg,1629914852.7757,1629914852.77839,196.26459359169,7.38336539268494,203.667353620529,205.751464834213,2.08411121368408,205.901521196365,0.716933727264404,206.626192083359,1,left,0.702943801879883,206.61845492363,604.483493556976,607.243493556976,1629915051.80029,1629915051.80188,1629915059.20305,1629915059.20569,1629915061.28716,1629915061.43722,1629915061.44614,1629915062.16189,1629915062.15415,1629915460.01919,1
55,4,2,3,12,2,2,c2_WhyHand,2,competing?,12,H_483.jpg,1629914852.7757,1629914852.77839,196.26459359169,7.38336539268494,203.667353620529,205.751464834213,0.3,206.935240020752,0.683588266372681,207.620627155304,3,right,0.663362979888916,207.618828287125,604.483493556976,607.243493556976,1629915051.80029,1629915051.80188,1629915059.20305,1629915059.20569,1629915061.28716,1629915062.47094,1629915062.47269,1629915063.15633,1629915063.15453,1629915460.01919,0
55,4,2,3,12,3,2,c2_WhyHand,1,competing?,14,H_132.jpg,1629914852.7757,1629914852.77839,196.26459359169,7.38336539268494,203.667353620529,205.751464834213,0.3,207.935613384247,0.766951322555542,208.710057964325,1,left,0.749990940093994,208.702564706802,604.483493556976,607.243493556976,1629915051.80029,1629915051.80188,1629915059.20305,1629915059.20569,1629915061.28716,1629915063.47131,1629915063.4727,1629915064.24576,1629915064.23826,1629915460.01919,1
55,4,2,3,12,4,2,c2_WhyHand,2,competing?,10,H_126.jpg,1629914852.7757,1629914852.77839,196.26459359169,7.38336539268494,203.667353620529,205.751464834213,0.3,209.019350280762,0.783625602722168,209.810214033127,3,right,0.766414880752563,209.802975883484,604.483493556976,607.243493556976,1629915051.80029,1629915051.80188,1629915059.20305,1629915059.20569,1629915061.28716,1629915064.55505,1629915064.5567,1629915065.34591,1629915065.33867,1629915460.01919,0
55,4,2,3,12,5,2,c2_WhyHand,1,competing?,16,H_136.jpg,1629914852.7757,1629914852.77839,196.26459359169,7.38336539268494,203.667353620529,205.751464834213,0.3,210.119760742188,1.13375639915466,211.259436120987,1,left,1.12437701225281,211.253517141342,604.483493556976,607.243493556976,1629915051.80029,1629915051.80188,1629915059.20305,1629915059.20569,1629915061.28716,1629915065.65546,1629915065.65711,1629915066.79513,1629915066.78922,1629915460.01919,1
55,4,2,3,12,6,2,c2_WhyHand,2,competing?,11,H_502.jpg,1629914852.7757,1629914852.77839,196.26459359169,7.38336539268494,203.667353620529,205.751464834213,0.3,211.570301523209,0.850316762924194,212.426459064484,3,right,0.842430830001831,212.420618286133,604.483493556976,607.243493556976,1629915051.80029,1629915051.80188,1629915059.20305,1629915059.20569,1629915061.28716,1629915067.106,1629915067.10775,1629915067.96216,1629915067.95632,1629915460.01919,0
55,4,2,3,12,7,2,c2_WhyHand,1,competing?,13,H_003.jpg,1629914852.7757,1629914852.77839,196.26459359169,7.38336539268494,203.667353620529,205.751464834213,0.3,212.737403621674,0.967026948928833,213.709879150391,1,left,0.954571962356567,213.704430570602,604.483493556976,607.243493556976,1629915051.80029,1629915051.80188,1629915059.20305,1629915059.20569,1629915061.28716,1629915068.2731,1629915068.27465,1629915069.24558,1629915069.24013,1629915460.01919,1
55,4,2,3,12,8,2,c2_WhyHand,1,competing?,15,H_170.jpg,1629914852.7757,1629914852.77839,196.26459359169,7.38336539268494,203.667353620529,205.751464834213,0.3,214.021215667725,1.06706428527832,215.093290081024,1,left,1.05273795127869,215.088279953003,604.483493556976,607.243493556976,1629915051.80029,1629915051.80188,1629915059.20305,1629915059.20569,1629915061.28716,1629915069.55691,1629915069.55849,1629915070.62899,1629915070.62398,1629915460.01919,1
55,4,2,3,13,1,1,c1_WhyFace,1,self-doubt?,29,F_544.jpg,1629914852.7757,1629914852.77839,215.154972066879,6.56299304962158,221.724087467194,223.824871530533,2.10078406333923,223.974927892685,0.816970586776733,224.793323030472,1,left,0.808658838272095,224.791898479462,604.483493556976,607.243493556976,1629915070.69067,1629915070.69518,1629915077.25979,1629915077.26264,1629915079.36057,1629915079.51063,1629915079.51262,1629915080.32902,1629915080.3276,1629915460.01919,1
55,4,2,3,13,2,1,c1_WhyFace,2,self-doubt?,27,F_086.jpg,1629914852.7757,1629914852.77839,215.154972066879,6.56299304962158,221.724087467194,223.824871530533,0.3,225.108683815002,0.833643913269043,225.94406794548,3,right,0.814304113388062,225.942327728271,604.483493556976,607.243493556976,1629915070.69067,1629915070.69518,1629915077.25979,1629915077.26264,1629915079.36057,1629915080.64438,1629915080.64579,1629915081.47977,1629915081.47803,1629915460.01919,0
55,4,2,3,13,3,1,c1_WhyFace,1,self-doubt?,25,F_798.jpg,1629914852.7757,1629914852.77839,215.154972066879,6.56299304962158,221.724087467194,223.824871530533,0.3,226.259113063812,0.800297737121582,227.060479154587,1,left,0.782982110977173,227.059410800934,604.483493556976,607.243493556976,1629915070.69067,1629915070.69518,1629915077.25979,1629915077.26264,1629915079.36057,1629915081.79481,1629915081.79656,1629915082.59618,1629915082.59511,1629915460.01919,1
55,4,2,3,13,4,1,c1_WhyFace,1,self-doubt?,26,F_111.jpg,1629914852.7757,1629914852.77839,215.154972066879,6.56299304962158,221.724087467194,223.824871530533,0.3,227.376195898056,0.883662939071655,228.261294116974,1,left,0.873227119445801,228.259858837128,604.483493556976,607.243493556976,1629915070.69067,1629915070.69518,1629915077.25979,1629915077.26264,1629915079.36057,1629915082.91189,1629915082.9135,1629915083.79699,1629915083.79556,1629915460.01919,1
55,4,2,3,13,5,1,c1_WhyFace,2,self-doubt?,31,F_774.jpg,1629914852.7757,1629914852.77839,215.154972066879,6.56299304962158,221.724087467194,223.824871530533,0.3,228.57664393425,0.716934442520142,229.295490016937,3,right,0.697074174880981,229.29357837677,604.483493556976,607.243493556976,1629915070.69067,1629915070.69518,1629915077.25979,1629915077.26264,1629915079.36057,1629915084.11234,1629915084.11415,1629915084.83119,1629915084.82928,1629915460.01919,0
55,4,2,3,13,6,1,c1_WhyFace,1,self-doubt?,28,F_754.jpg,1629914852.7757,1629914852.77839,215.154972066879,6.56299304962158,221.724087467194,223.824871530533,0.3,229.610361328125,1.05039191246033,230.661782970428,1,left,1.0279438495636,230.660753240585,604.483493556976,607.243493556976,1629915070.69067,1629915070.69518,1629915077.25979,1629915077.26264,1629915079.36057,1629915085.14606,1629915085.14775,1629915086.19748,1629915086.19645,1629915460.01919,1
55,4,2,3,13,7,1,c1_WhyFace,2,self-doubt?,32,F_128.jpg,1629914852.7757,1629914852.77839,215.154972066879,6.56299304962158,221.724087467194,223.824871530533,0.3,230.977539052963,0.967026948928833,231.959455003738,3,right,0.957580089569092,231.944566001892,604.483493556976,607.243493556976,1629915070.69067,1629915070.69518,1629915077.25979,1629915077.26264,1629915079.36057,1629915086.51324,1629915086.51491,1629915087.49515,1629915087.48026,1629915460.01919,0
55,4,2,3,13,8,1,c1_WhyFace,1,self-doubt?,30,F_584.jpg,1629914852.7757,1629914852.77839,215.154972066879,6.56299304962158,221.724087467194,223.824871530533,0.3,232.261350622177,0.800305843353271,233.06311296463,3,right,0.790750980377197,233.06165646553,604.483493556976,607.243493556976,1629915070.69067,1629915070.69518,1629915077.25979,1629915077.26264,1629915079.36057,1629915087.79705,1629915087.79861,1629915088.59881,1629915088.59735,1629915460.01919,0
55,4,2,3,14,1,3,c3_HowFace,1,looking at camera?,64,F_128.jpg,1629914852.7757,1629914852.77839,233.128339996338,7.6435911655426,240.781194677353,242.881977548599,2.10078287124634,243.032034387589,0.866989612579346,243.910037984848,1,left,0.853401899337769,243.899024000168,604.483493556976,607.243493556976,1629915088.66404,1629915088.67905,1629915096.31689,1629915096.32978,1629915098.41768,1629915098.56773,1629915098.56953,1629915099.44574,1629915099.43472,1629915460.01919,1
55,4,2,3,14,2,3,c3_HowFace,1,looking at camera?,60,F_618.jpg,1629914852.7757,1629914852.77839,233.128339996338,7.6435911655426,240.781194677353,242.881977548599,0.3,244.215809335709,0.516858816146851,244.733863105774,1,left,0.497965812683105,244.732668151855,604.483493556976,607.243493556976,1629915088.66404,1629915088.67905,1629915096.31689,1629915096.32978,1629915098.41768,1629915099.75151,1629915099.75277,1629915100.26956,1629915100.26837,1629915460.01919,1
55,4,2,3,14,3,3,c3_HowFace,1,looking at camera?,62,F_598.jpg,1629914852.7757,1629914852.77839,233.128339996338,7.6435911655426,240.781194677353,242.881977548599,0.3,245.049453010559,0.616897344589233,245.676568021774,1,left,0.605370998382568,245.666350355148,604.483493556976,607.243493556976,1629915088.66404,1629915088.67905,1629915096.31689,1629915096.32978,1629915098.41768,1629915100.58515,1629915100.58662,1629915101.21227,1629915101.20205,1629915460.01919,1
55,4,2,3,14,4,3,c3_HowFace,2,looking at camera?,63,F_743.jpg,1629914852.7757,1629914852.77839,233.128339996338,7.6435911655426,240.781194677353,242.881977548599,0.3,245.983134737015,0.63356876373291,246.626183023453,3,right,0.623389005661011,246.616703500748,604.483493556976,607.243493556976,1629915088.66404,1629915088.67905,1629915096.31689,1629915096.32978,1629915098.41768,1629915101.51883,1629915101.5203,1629915102.16188,1629915102.1524,1629915460.01919,0
55,4,2,3,14,5,3,c3_HowFace,1,looking at camera?,61,F_774.jpg,1629914852.7757,1629914852.77839,233.128339996338,7.6435911655426,240.781194677353,242.881977548599,0.3,246.933489074707,0.600224256515503,247.542791118622,1,left,0.58547306060791,247.533713331223,604.483493556976,607.243493556976,1629915088.66404,1629915088.67905,1629915096.31689,1629915096.32978,1629915098.41768,1629915102.46919,1629915102.47056,1629915103.07849,1629915103.06941,1629915460.01919,1
55,4,2,3,14,6,3,c3_HowFace,2,looking at camera?,57,F_582.jpg,1629914852.7757,1629914852.77839,233.128339996338,7.6435911655426,240.781194677353,242.881977548599,0.3,247.850497951508,1.71730709075928,NaN,0,NA,0,249.567805042267,604.483493556976,607.243493556976,1629915088.66404,1629915088.67905,1629915096.31689,1629915096.32978,1629915098.41768,1629915103.3862,1629915103.388,NaN,1629915105.1035,1629915460.01919,0
55,4,2,3,14,7,3,c3_HowFace,2,looking at camera?,58,F_754.jpg,1629914852.7757,1629914852.77839,233.128339996338,7.6435911655426,240.781194677353,242.881977548599,0.3,249.884590377808,1.01704573631287,250.909382095337,3,right,1.00846004486084,250.90163611412,604.483493556976,607.243493556976,1629915088.66404,1629915088.67905,1629915096.31689,1629915096.32978,1629915098.41768,1629915105.42029,1629915105.42235,1629915106.44508,1629915106.43733,1629915460.01919,0
55,4,2,3,14,8,3,c3_HowFace,1,looking at camera?,59,F_129.jpg,1629914852.7757,1629914852.77839,233.128339996338,7.6435911655426,240.781194677353,242.881977548599,0.3,251.218419780731,1.20044851303101,252.420572032928,3,right,1.18312907218933,252.418868293762,604.483493556976,607.243493556976,1629915088.66404,1629915088.67905,1629915096.31689,1629915096.32978,1629915098.41768,1629915106.75412,1629915106.75549,1629915107.95627,1629915107.95457,1629915460.01919,0
55,4,2,3,15,1,4,c4_HowHand,1,both hands?,123,H_167.jpg,1629914852.7757,1629914852.77839,252.485559930801,7.07662606239319,259.571536054611,261.67231844902,2.10078239440918,261.822374811172,1.13375639915466,262.959509124756,3,right,1.12091708183289,262.956131210327,604.483493556976,607.243493556976,1629915108.02126,1629915108.02887,1629915115.10723,1629915115.11271,1629915117.20802,1629915117.35807,1629915117.36267,1629915118.49521,1629915118.49183,1629915460.01919,0
55,4,2,3,15,2,4,c4_HowHand,2,both hands?,121,H_091.jpg,1629914852.7757,1629914852.77839,252.485559930801,7.07662606239319,259.571536054611,261.67231844902,0.3,263.272915830612,0.950354337692261,264.226191034317,3,right,0.927227020263672,264.223270168304,604.483493556976,607.243493556976,1629915108.02126,1629915108.02887,1629915115.10723,1629915115.11271,1629915117.20802,1629915118.80861,1629915118.81235,1629915119.76189,1629915119.75897,1629915460.01919,0
55,4,2,3,15,3,4,c4_HowHand,2,both hands?,125,H_627.jpg,1629914852.7757,1629914852.77839,252.485559930801,7.07662606239319,259.571536054611,261.67231844902,0.3,264.540055027008,0.850317001342773,265.393207063675,3,right,0.832173109054565,265.390372028351,604.483493556976,607.243493556976,1629915108.02126,1629915108.02887,1629915115.10723,1629915115.11271,1629915117.20802,1629915120.07575,1629915120.07893,1629915120.92891,1629915120.92607,1629915460.01919,0
55,4,2,3,15,4,4,c4_HowHand,1,both hands?,128,H_027.jpg,1629914852.7757,1629914852.77839,252.485559930801,7.07662606239319,259.571536054611,261.67231844902,0.3,265.707157125473,0.633570432662964,266.343265047073,1,left,0.620105981826782,266.340727558136,604.483493556976,607.243493556976,1629915108.02126,1629915108.02887,1629915115.10723,1629915115.11271,1629915117.20802,1629915121.24286,1629915121.2455,1629915121.87896,1629915121.87643,1629915460.01919,1
55,4,2,3,15,5,4,c4_HowHand,1,both hands?,122,H_111.jpg,1629914852.7757,1629914852.77839,252.485559930801,7.07662606239319,259.571536054611,261.67231844902,0.3,266.657510032654,0.0166735649108887,266.676499118805,1,left,0.000298976898193359,266.674183597565,604.483493556976,607.243493556976,1629915108.02126,1629915108.02887,1629915115.10723,1629915115.11271,1629915117.20802,1629915122.19321,1629915122.19561,1629915122.2122,1629915122.20988,1629915460.01919,1
55,4,2,3,15,6,4,c4_HowHand,2,both hands?,126,H_159.jpg,1629914852.7757,1629914852.77839,252.485559930801,7.07662606239319,259.571536054611,261.67231844902,0.3,266.990968933105,0.0166730880737305,267.009896030426,1,left,0.000314950942993164,267.007642021179,604.483493556976,607.243493556976,1629915108.02126,1629915108.02887,1629915115.10723,1629915115.11271,1629915117.20802,1629915122.52667,1629915122.52929,1629915122.54559,1629915122.54334,1629915460.01919,0
55,4,2,3,15,7,4,c4_HowHand,1,both hands?,124,H_581.jpg,1629914852.7757,1629914852.77839,252.485559930801,7.07662606239319,259.571536054611,261.67231844902,0.3,267.324427118301,1.20044708251953,268.526659002304,1,left,1.18892383575439,268.524874200821,604.483493556976,607.243493556976,1629915108.02126,1629915108.02887,1629915115.10723,1629915115.11271,1629915117.20802,1629915122.86013,1629915122.86271,1629915124.06236,1629915124.06057,1629915460.01919,1
55,4,2,3,15,8,4,c4_HowHand,1,both hands?,127,H_349.jpg,1629914852.7757,1629914852.77839,252.485559930801,7.07662606239319,259.571536054611,261.67231844902,0.3,268.841658821106,0.733607530593872,269.577136983871,1,left,0.71233081817627,269.5752663517,604.483493556976,607.243493556976,1629915108.02126,1629915108.02887,1629915115.10723,1629915115.11271,1629915117.20802,1629915124.37736,1629915124.37898,1629915125.11283,1629915125.11096,1629915460.01919,1
55,4,2,3,16,1,2,c2_WhyHand,1,self-protection?,89,H_443.jpg,1629914852.7757,1629914852.77839,269.64195775032,8.70994329452515,278.361876955032,280.462660064697,2.10078310966492,280.612714996338,1.08373761177063,281.697994937897,3,right,1.06978797912598,281.696452608109,604.483493556976,607.243493556976,1629915125.17766,1629915125.1786,1629915133.89757,1629915133.89884,1629915135.99836,1629915136.14841,1629915136.1504,1629915137.23369,1629915137.23215,1629915460.01919,0
55,4,2,3,16,2,2,c2_WhyHand,2,self-protection?,90,H_006.jpg,1629914852.7757,1629914852.77839,269.64195775032,8.70994329452515,278.361876955032,280.462660064697,0.3,282.013237228394,1.43386888504028,283.460071077347,3,right,1.42282199859619,283.447106113434,604.483493556976,607.243493556976,1629915125.17766,1629915125.1786,1629915133.89757,1629915133.89884,1629915135.99836,1629915137.54894,1629915137.55065,1629915138.99577,1629915138.9828,1629915460.01919,0
55,4,2,3,16,3,2,c2_WhyHand,1,self-protection?,91,H_581.jpg,1629914852.7757,1629914852.77839,269.64195775032,8.70994329452515,278.361876955032,280.462660064697,0.3,283.763890733719,1.1004102230072,284.865313997269,3,right,1.08150506019592,284.864300956726,604.483493556976,607.243493556976,1629915125.17766,1629915125.1786,1629915133.89757,1629915133.89884,1629915135.99836,1629915139.29959,1629915139.30133,1629915140.40101,1629915140.4,1629915460.01919,0
55,4,2,3,16,4,2,c2_WhyHand,2,self-protection?,92,H_532.jpg,1629914852.7757,1629914852.77839,269.64195775032,8.70994329452515,278.361876955032,280.462660064697,0.3,285.181085577011,1.01704621315002,286.199195137024,3,right,0.995784997940063,286.198131790161,604.483493556976,607.243493556976,1629915125.17766,1629915125.1786,1629915133.89757,1629915133.89884,1629915135.99836,1629915140.71678,1629915140.7185,1629915141.73489,1629915141.73383,1629915460.01919,0
55,4,2,3,16,5,2,c2_WhyHand,1,self-protection?,96,H_027.jpg,1629914852.7757,1629914852.77839,269.64195775032,8.70994329452515,278.361876955032,280.462660064697,0.3,286.514916648865,0.733605623245239,287.249984016418,1,left,0.717689037322998,287.24852227211,604.483493556976,607.243493556976,1629915125.17766,1629915125.1786,1629915133.89757,1629915133.89884,1629915135.99836,1629915142.05061,1629915142.05229,1629915142.78568,1629915142.78422,1629915460.01919,1
55,4,2,3,16,6,2,c2_WhyHand,1,self-protection?,93,H_038.jpg,1629914852.7757,1629914852.77839,269.64195775032,8.70994329452515,278.361876955032,280.462660064697,0.3,287.565307369232,0.0166740417480469,287.583491077423,1,left,0.000396013259887695,287.58198141098,604.483493556976,607.243493556976,1629915125.17766,1629915125.1786,1629915133.89757,1629915133.89884,1629915135.99836,1629915143.10101,1629915143.10278,1629915143.11919,1629915143.11768,1629915460.01919,1
55,4,2,3,16,7,2,c2_WhyHand,2,self-protection?,95,H_332.jpg,1629914852.7757,1629914852.77839,269.64195775032,8.70994329452515,278.361876955032,280.462660064697,0.3,287.898766031265,1.7173068523407,289.62162112236,3,right,1.70021386146545,289.616072883606,604.483493556976,607.243493556976,1629915125.17766,1629915125.1786,1629915133.89757,1629915133.89884,1629915135.99836,1629915143.43446,1629915143.43629,1629915145.15732,1629915145.15177,1629915460.01919,0
55,4,2,3,16,8,2,c2_WhyHand,1,self-protection?,94,H_189.jpg,1629914852.7757,1629914852.77839,269.64195775032,8.70994329452515,278.361876955032,280.462660064697,0.3,289.932857980728,1.36717700958252,291.301198949814,1,left,1.34825587272644,291.300034990311,604.483493556976,607.243493556976,1629915125.17766,1629915125.1786,1629915133.89757,1629915133.89884,1629915135.99836,1629915145.46856,1629915145.46977,1629915146.8369,1629915146.83573,1629915460.01919,1
55,4,2,3,17,1,3,c3_HowFace,1,smiling?,118,F_759.jpg,1629914852.7757,1629914852.77839,291.36672495842,8.46540999412537,299.836550941467,301.937335004807,2.10078406333923,302.087389698029,0.61689829826355,302.709645023346,1,left,0.594547033309937,302.704287996292,604.483493556976,607.243493556976,1629915146.90242,1629915146.91231,1629915155.37225,1629915155.37951,1629915157.47303,1629915157.62309,1629915157.62914,1629915158.24534,1629915158.23999,1629915460.01919,1
55,4,2,3,17,2,3,c3_HowFace,2,smiling?,114,F_412.jpg,1629914852.7757,1629914852.77839,291.36672495842,8.46540999412537,299.836550941467,301.937335004807,0.3,303.021071901321,0.600224018096924,303.626124134064,3,right,0.58737587928772,303.621295919418,604.483493556976,607.243493556976,1629915146.90242,1629915146.91231,1629915155.37225,1629915155.37951,1629915157.47303,1629915158.55677,1629915158.5586,1629915159.16182,1629915159.15699,1629915460.01919,0
55,4,2,3,17,3,3,c3_HowFace,1,smiling?,117,F_593.jpg,1629914852.7757,1629914852.77839,291.36672495842,8.46540999412537,299.836550941467,301.937335004807,0.3,303.938081016541,0.716934442520142,304.659404983521,1,left,0.707401990890503,304.655015459061,604.483493556976,607.243493556976,1629915146.90242,1629915146.91231,1629915155.37225,1629915155.37951,1629915157.47303,1629915159.47378,1629915159.47551,1629915160.1951,1629915160.19071,1629915460.01919,1
55,4,2,3,17,4,3,c3_HowFace,2,smiling?,113,F_712.jpg,1629914852.7757,1629914852.77839,291.36672495842,8.46540999412537,299.836550941467,301.937335004807,0.3,304.971800079346,0.683587789535522,305.660107126236,3,right,0.666545867919922,305.655387868881,604.483493556976,607.243493556976,1629915146.90242,1629915146.91231,1629915155.37225,1629915155.37951,1629915157.47303,1629915160.5075,1629915160.51219,1629915161.19581,1629915161.19109,1629915460.01919,0
55,4,2,3,17,5,3,c3_HowFace,1,smiling?,115,F_695.jpg,1629914852.7757,1629914852.77839,291.36672495842,8.46540999412537,299.836550941467,301.937335004807,0.3,305.972172727585,0.700261116027832,306.67642616272,1,left,0.689416170120239,306.672433843613,604.483493556976,607.243493556976,1629915146.90242,1629915146.91231,1629915155.37225,1629915155.37951,1629915157.47303,1629915161.50787,1629915161.5125,1629915162.21212,1629915162.20813,1629915460.01919,1
55,4,2,3,17,6,3,c3_HowFace,1,smiling?,119,F_139.jpg,1629914852.7757,1629914852.77839,291.36672495842,8.46540999412537,299.836550941467,301.937335004807,0.3,306.989217748642,0.583552598953247,307.576397171021,3,right,0.566823959350586,307.572770347595,604.483493556976,607.243493556976,1629915146.90242,1629915146.91231,1629915155.37225,1629915155.37951,1629915157.47303,1629915162.52492,1629915162.52941,1629915163.1121,1629915163.10847,1629915460.01919,0
55,4,2,3,17,7,3,c3_HowFace,1,smiling?,116,F_083.jpg,1629914852.7757,1629914852.77839,291.36672495842,8.46540999412537,299.836550941467,301.937335004807,0.3,307.889553775787,0.883663177490234,308.776196947098,1,left,0.863188028335571,308.773216953278,604.483493556976,607.243493556976,1629915146.90242,1629915146.91231,1629915155.37225,1629915155.37951,1629915157.47303,1629915163.42525,1629915163.42926,1629915164.31189,1629915164.30891,1629915460.01919,1
55,4,2,3,17,8,3,c3_HowFace,2,smiling?,120,F_758.jpg,1629914852.7757,1629914852.77839,291.36672495842,8.46540999412537,299.836550941467,301.937335004807,0.3,309.090001573563,0.750280141830444,309.842833986282,3,right,0.732928991317749,309.840281715393,604.483493556976,607.243493556976,1629915146.90242,1629915146.91231,1629915155.37225,1629915155.37951,1629915157.47303,1629915164.6257,1629915164.62912,1629915165.37853,1629915165.37598,1629915460.01919,0
55,4,2,3,18,1,1,c1_WhyFace,1,admiring?,1,F_593.jpg,1629914852.7757,1629914852.77839,309.906973829269,7.71506428718567,317.626518716812,319.727302303314,2.10078358650208,319.877357711792,1.1337571144104,321.012526025772,1,left,1.1170859336853,321.011114826202,604.483493556976,607.243493556976,1629915165.44267,1629915165.44548,1629915173.16222,1629915173.1793,1629915175.263,1629915175.41306,1629915175.41464,1629915176.54822,1629915176.54681,1629915460.01919,1
55,4,2,3,18,2,1,c1_WhyFace,2,admiring?,2,F_129.jpg,1629914852.7757,1629914852.77839,309.906973829269,7.71506428718567,317.626518716812,319.727302303314,0.3,321.327898731232,0.716933727264404,322.046313037872,3,right,0.701549053192139,322.044832458496,604.483493556976,607.243493556976,1629915165.44267,1629915165.44548,1629915173.16222,1629915173.1793,1629915175.263,1629915176.8636,1629915176.86512,1629915177.58201,1629915177.58053,1629915460.01919,0
55,4,2,3,18,3,1,c1_WhyFace,1,admiring?,5,F_759.jpg,1629914852.7757,1629914852.77839,309.906973829269,7.71506428718567,317.626518716812,319.727302303314,0.3,322.3616173172,0.98370099067688,323.359413137436,1,left,0.975555896759033,323.345318307877,604.483493556976,607.243493556976,1629915165.44267,1629915165.44548,1629915173.16222,1629915173.1793,1629915175.263,1629915177.89732,1629915177.89869,1629915178.89511,1629915178.88102,1629915460.01919,1
55,4,2,3,18,4,1,c1_WhyFace,2,admiring?,6,F_692.jpg,1629914852.7757,1629914852.77839,309.906973829269,7.71506428718567,317.626518716812,319.727302303314,0.3,323.66210316658,0.550204753875732,324.213837137222,3,right,0.527157068252563,324.212307920456,604.483493556976,607.243493556976,1629915165.44267,1629915165.44548,1629915173.16222,1629915173.1793,1629915175.263,1629915179.1978,1629915179.19951,1629915179.74954,1629915179.74801,1629915460.01919,0
55,4,2,3,18,5,1,c1_WhyFace,1,admiring?,4,F_779.jpg,1629914852.7757,1629914852.77839,309.906973829269,7.71506428718567,317.626518716812,319.727302303314,0.3,324.529093017578,0.600223779678345,325.130428066254,1,left,0.577579975128174,325.129316797256,604.483493556976,607.243493556976,1629915165.44267,1629915165.44548,1629915173.16222,1629915173.1793,1629915175.263,1629915180.06479,1629915180.06651,1629915180.66613,1629915180.66501,1629915460.01919,1
55,4,2,3,18,6,1,c1_WhyFace,1,admiring?,8,F_590.jpg,1629914852.7757,1629914852.77839,309.906973829269,7.71506428718567,317.626518716812,319.727302303314,0.3,325.446102371216,0.716934204101562,326.164416065216,1,left,0.701174020767212,326.163036575317,604.483493556976,607.243493556976,1629915165.44267,1629915165.44548,1629915173.16222,1629915173.1793,1629915175.263,1629915180.9818,1629915180.98351,1629915181.70011,1629915181.69873,1629915460.01919,1
55,4,2,3,18,7,1,c1_WhyFace,1,admiring?,7,F_648.jpg,1629914852.7757,1629914852.77839,309.906973829269,7.71506428718567,317.626518716812,319.727302303314,0.3,326.479821195602,0.750278949737549,327.243679990768,1,left,0.74039888381958,327.23010014534,604.483493556976,607.243493556976,1629915165.44267,1629915165.44548,1629915173.16222,1629915173.1793,1629915175.263,1629915182.01552,1629915182.0172,1629915182.77938,1629915182.7658,1629915460.01919,1
55,4,2,3,18,8,1,c1_WhyFace,2,admiring?,3,F_110.jpg,1629914852.7757,1629914852.77839,309.906973829269,7.71506428718567,317.626518716812,319.727302303314,0.3,327.546885480881,0.650241374969482,328.210009088516,3,right,0.642040014266968,328.19712685585,604.483493556976,607.243493556976,1629915165.44267,1629915165.44548,1629915173.16222,1629915173.1793,1629915175.263,1629915183.08258,1629915183.08421,1629915183.74571,1629915183.73282,1629915460.01919,0
55,4,2,3,19,1,2,c2_WhyHand,1,competing?,9,H_261.jpg,1629914852.7757,1629914852.77839,328.280491580963,7.23146438598633,335.516524066925,337.617307415009,2.1007833480835,337.767363061905,1.05039286613464,338.826203098297,1,left,1.02879309654236,338.81775592804,604.483493556976,607.243493556976,1629915183.81619,1629915183.82914,1629915191.05222,1629915191.06276,1629915193.15301,1629915193.30306,1629915193.31268,1629915194.3619,1629915194.35345,1629915460.01919,1
55,4,2,3,19,2,2,c2_WhyHand,1,competing?,15,H_170.jpg,1629914852.7757,1629914852.77839,328.280491580963,7.23146438598633,335.516524066925,337.617307415009,0.3,339.134540548325,0.616896390914917,339.759807100296,1,left,0.607295989990234,339.75143693924,604.483493556976,607.243493556976,1629915183.81619,1629915183.82914,1629915191.05222,1629915191.06276,1629915193.15301,1629915194.67024,1629915194.67182,1629915195.29551,1629915195.28713,1629915460.01919,1
55,4,2,3,19,3,2,c2_WhyHand,2,competing?,12,H_483.jpg,1629914852.7757,1629914852.77839,328.280491580963,7.23146438598633,335.516524066925,337.617307415009,0.3,340.068220367432,0.967028617858887,341.042783966064,3,right,0.9584059715271,341.035248985291,604.483493556976,607.243493556976,1629915183.81619,1629915183.82914,1629915191.05222,1629915191.06276,1629915193.15301,1629915195.60392,1629915195.60571,1629915196.57848,1629915196.57095,1629915460.01919,0
55,4,2,3,19,4,2,c2_WhyHand,1,competing?,14,H_132.jpg,1629914852.7757,1629914852.77839,328.280491580963,7.23146438598633,335.516524066925,337.617307415009,0.3,341.352033367157,0.550204753875732,341.910141935349,1,left,0.540998220443726,341.902238121033,604.483493556976,607.243493556976,1629915183.81619,1629915183.82914,1629915191.05222,1629915191.06276,1629915193.15301,1629915196.88773,1629915196.8893,1629915197.44584,1629915197.43794,1629915460.01919,1
55,4,2,3,19,5,2,c2_WhyHand,1,competing?,16,H_136.jpg,1629914852.7757,1629914852.77839,328.280491580963,7.23146438598633,335.516524066925,337.617307415009,0.3,342.219022741318,0.683588266372681,342.909620990753,1,left,0.66938591003418,342.90261100769,604.483493556976,607.243493556976,1629915183.81619,1629915183.82914,1629915191.05222,1629915191.06276,1629915193.15301,1629915197.75472,1629915197.75621,1629915198.44532,1629915198.43831,1629915460.01919,1
55,4,2,3,19,6,2,c2_WhyHand,1,competing?,13,H_003.jpg,1629914852.7757,1629914852.77839,328.280491580963,7.23146438598633,335.516524066925,337.617307415009,0.3,343.219395627975,0.566879034042358,343.793207159042,1,left,0.557733058929443,343.786274662018,604.483493556976,607.243493556976,1629915183.81619,1629915183.82914,1629915191.05222,1629915191.06276,1629915193.15301,1629915198.75509,1629915198.7568,1629915199.32891,1629915199.32197,1629915460.01919,1
55,4,2,3,19,7,2,c2_WhyHand,2,competing?,10,H_126.jpg,1629914852.7757,1629914852.77839,328.280491580963,7.23146438598633,335.516524066925,337.617307415009,0.3,344.103059043884,0.716933727264404,344.826230039597,3,right,0.71000599861145,344.819992771149,604.483493556976,607.243493556976,1629915183.81619,1629915183.82914,1629915191.05222,1629915191.06276,1629915193.15301,1629915199.63876,1629915199.6405,1629915200.36193,1629915200.35569,1629915460.01919,0
55,4,2,3,19,8,2,c2_WhyHand,2,competing?,11,H_502.jpg,1629914852.7757,1629914852.77839,328.280491580963,7.23146438598633,335.516524066925,337.617307415009,0.3,345.136777868271,0.583550930023193,345.726850976944,3,right,0.575047016143799,345.720328798294,604.483493556976,607.243493556976,1629915183.81619,1629915183.82914,1629915191.05222,1629915191.06276,1629915193.15301,1629915200.67248,1629915200.67429,1629915201.26255,1629915201.25603,1629915460.01919,0
55,4,2,3,20,1,4,c4_HowHand,1,reaching?,111,H_003.jpg,1629914852.7757,1629914852.77839,345.803694000244,11.1882989406586,357.007871856689,359.108655204773,2.1007833480835,359.258710613251,1.40052199363708,360.660563936234,1,left,1.3866081237793,360.659232606888,604.483493556976,607.243493556976,1629915201.33939,1629915201.34582,1629915212.54357,1629915212.54589,1629915214.64435,1629915214.79441,1629915214.79627,1629915216.19626,1629915216.19493,1629915460.01919,1
55,4,2,3,20,2,4,c4_HowHand,1,reaching?,110,H_364.jpg,1629914852.7757,1629914852.77839,345.803694000244,11.1882989406586,357.007871856689,359.108655204773,0.3,360.97601770401,1.20044803619385,362.177890052795,1,left,1.18552708625793,362.176465740204,604.483493556976,607.243493556976,1629915201.33939,1629915201.34582,1629915212.54357,1629915212.54589,1629915214.64435,1629915216.51172,1629915216.5132,1629915217.71359,1629915217.71216,1629915460.01919,1
55,4,2,3,20,3,4,c4_HowHand,2,reaching?,108,H_532.jpg,1629914852.7757,1629914852.77839,345.803694000244,11.1882989406586,357.007871856689,359.108655204773,0.3,362.49325012207,0.716935396194458,363.211603155136,1,left,0.704919815063477,363.210185518265,604.483493556976,607.243493556976,1629915201.33939,1629915201.34582,1629915212.54357,1629915212.54589,1629915214.64435,1629915218.02895,1629915218.03049,1629915218.7473,1629915218.74588,1629915460.01919,0
55,4,2,3,20,4,4,c4_HowHand,1,reaching?,106,H_006.jpg,1629914852.7757,1629914852.77839,345.803694000244,11.1882989406586,357.007871856689,359.108655204773,0.3,363.52697013855,1.61726880073547,365.145822038651,1,left,1.60654807090759,365.144238939285,604.483493556976,607.243493556976,1629915201.33939,1629915201.34582,1629915212.54357,1629915212.54589,1629915214.64435,1629915219.06267,1629915219.06425,1629915220.68152,1629915220.67994,1629915460.01919,1
55,4,2,3,20,5,4,c4_HowHand,2,reaching?,105,H_438.jpg,1629914852.7757,1629914852.77839,345.803694000244,11.1882989406586,357.007871856689,359.108655204773,0.3,365.46102355957,1.08373951911926,366.54571103096,3,right,1.0737738609314,366.54476307869,604.483493556976,607.243493556976,1629915201.33939,1629915201.34582,1629915212.54357,1629915212.54589,1629915214.64435,1629915220.99672,1629915220.99804,1629915222.08141,1629915222.08046,1629915460.01919,0
55,4,2,3,20,6,4,c4_HowHand,1,reaching?,107,H_007.jpg,1629914852.7757,1629914852.77839,345.803694000244,11.1882989406586,357.007871856689,359.108655204773,0.3,366.861545791626,0.983699798583984,367.8594460392,1,left,0.975600004196167,367.84524559021,604.483493556976,607.243493556976,1629915201.33939,1629915201.34582,1629915212.54357,1629915212.54589,1629915214.64435,1629915222.39724,1629915222.3988,1629915223.39514,1629915223.38094,1629915460.01919,1
55,4,2,3,20,7,4,c4_HowHand,1,reaching?,109,H_474.jpg,1629914852.7757,1629914852.77839,345.803694000244,11.1882989406586,357.007871856689,359.108655204773,0.3,368.162031402588,1.71730637550354,370.038757076263,1,left,1.85601801872253,369.879337778091,604.483493556976,607.243493556976,1629915201.33939,1629915201.34582,1629915212.54357,1629915212.54589,1629915214.64435,1629915223.69773,1629915223.6993,1629915225.57446,1629915225.41504,1629915460.01919,1
55,4,2,3,20,8,4,c4_HowHand,2,reaching?,112,H_132.jpg,1629914852.7757,1629914852.77839,345.803694000244,11.1882989406586,357.007871856689,359.108655204773,0.3,370.196122875214,0.0166730880737305,370.214161148071,1,left,0.000230073928833008,370.212795963287,604.483493556976,607.243493556976,1629915201.33939,1629915201.34582,1629915212.54357,1629915212.54589,1629915214.64435,1629915225.73182,1629915225.73352,1629915225.74986,1629915225.74849,1629915460.01919,0
55,4,2,3,21,1,3,c3_HowFace,1,open mouth?,73,F_403.jpg,1629914852.7757,1629914852.77839,370.296160926819,4.53584408760071,374.847858419418,376.94864200592,2.10078358650208,377.098698606491,0.633568286895752,377.743134965897,1,left,0.624977111816406,377.732266893387,604.483493556976,607.243493556976,1629915225.83186,1629915225.83367,1629915230.38356,1629915230.38554,1629915232.48434,1629915232.6344,1629915232.63657,1629915233.27883,1629915233.26796,1629915460.01919,1
55,4,2,3,21,2,3,c3_HowFace,2,open mouth?,79,F_648.jpg,1629914852.7757,1629914852.77839,370.296160926819,4.53584408760071,374.847858419418,376.94864200592,0.3,378.049051990509,0.683587074279785,378.73368596077,3,right,0.662278890609741,378.732639064789,604.483493556976,607.243493556976,1629915225.83186,1629915225.83367,1629915230.38356,1629915230.38554,1629915232.48434,1629915233.58475,1629915233.58611,1629915234.26938,1629915234.26834,1629915460.01919,0
55,4,2,3,21,3,3,c3_HowFace,1,open mouth?,74,F_776.jpg,1629914852.7757,1629914852.77839,370.296160926819,4.53584408760071,374.847858419418,376.94864200592,0.3,379.049424877167,0.716933727264404,379.768015136719,1,left,0.700369119644165,379.766358604431,604.483493556976,607.243493556976,1629915225.83186,1629915225.83367,1629915230.38356,1629915230.38554,1629915232.48434,1629915234.58512,1629915234.5866,1629915235.30371,1629915235.30206,1629915460.01919,1
55,4,2,3,21,4,3,c3_HowFace,2,open mouth?,77,F_584.jpg,1629914852.7757,1629914852.77839,370.296160926819,4.53584408760071,374.847858419418,376.94864200592,0.3,380.083144416809,0.833643674850464,380.926862945557,3,right,0.823839902877808,380.91678809166,604.483493556976,607.243493556976,1629915225.83186,1629915225.83367,1629915230.38356,1629915230.38554,1629915232.48434,1629915235.61884,1629915235.62051,1629915236.46256,1629915236.45249,1629915460.01919,0
55,4,2,3,21,5,3,c3_HowFace,1,open mouth?,80,F_844.jpg,1629914852.7757,1629914852.77839,370.296160926819,4.53584408760071,374.847858419418,376.94864200592,0.3,381.233572711945,0.66691517829895,381.90984796524,1,left,0.656003952026367,381.900487890244,604.483493556976,607.243493556976,1629915225.83186,1629915225.83367,1629915230.38356,1629915230.38554,1629915232.48434,1629915236.76927,1629915236.77101,1629915237.44555,1629915237.43619,1629915460.01919,1
55,4,2,3,21,6,3,c3_HowFace,1,open mouth?,78,F_692.jpg,1629914852.7757,1629914852.77839,370.296160926819,4.53584408760071,374.847858419418,376.94864200592,0.3,382.217272748947,1.7173068523407,NaN,0,NA,0,383.934579601288,604.483493556976,607.243493556976,1629915225.83186,1629915225.83367,1629915230.38356,1629915230.38554,1629915232.48434,1629915237.75297,1629915237.75467,NaN,1629915239.47028,1629915460.01919,0
55,4,2,3,21,7,3,c3_HowFace,1,open mouth?,75,F_086.jpg,1629914852.7757,1629914852.77839,370.296160926819,4.53584408760071,374.847858419418,376.94864200592,0.3,384.251363983154,1.56725215911865,385.8262159729,3,right,1.55073595046997,385.818616142273,604.483493556976,607.243493556976,1629915225.83186,1629915225.83367,1629915230.38356,1629915230.38554,1629915232.48434,1629915239.78706,1629915239.78861,1629915241.36191,1629915241.35431,1629915460.01919,0
55,4,2,3,21,8,3,c3_HowFace,2,open mouth?,76,F_544.jpg,1629914852.7757,1629914852.77839,370.296160926819,4.53584408760071,374.847858419418,376.94864200592,0.3,386.135401000977,0.816971063613892,386.95985912323,3,right,0.800184011459351,386.95237206459,604.483493556976,607.243493556976,1629915225.83186,1629915225.83367,1629915230.38356,1629915230.38554,1629915232.48434,1629915241.6711,1629915241.67285,1629915242.49556,1629915242.48807,1629915460.01919,0
55,4,2,3,22,1,1,c1_WhyFace,1,argument?,42,F_403.jpg,1629914852.7757,1629914852.77839,387.035737028122,6.47222399711609,393.521488656998,395.622271528244,2.10078287124634,395.772328367233,1.71730613708496,NaN,0,NA,0,397.489634504318,604.483493556976,607.243493556976,1629915242.57143,1629915242.57296,1629915249.05719,1629915249.06283,1629915251.15797,1629915251.30803,1629915251.31255,NaN,1629915253.02533,1629915460.01919,0
55,4,2,3,22,2,1,c1_WhyFace,2,argument?,46,F_844.jpg,1629914852.7757,1629914852.77839,387.035737028122,6.47222399711609,393.521488656998,395.622271528244,0.3,397.806420316696,1.71730661392212,NaN,0,NA,0,399.523726930618,604.483493556976,607.243493556976,1629915242.57143,1629915242.57296,1629915249.05719,1629915249.06283,1629915251.15797,1629915253.34212,1629915253.34549,NaN,1629915255.05942,1629915460.01919,0
55,4,2,3,22,3,1,c1_WhyFace,1,argument?,41,F_712.jpg,1629914852.7757,1629914852.77839,387.035737028122,6.47222399711609,393.521488656998,395.622271528244,0.3,399.840512266159,1.31715679168701,401.159836997986,3,right,1.29984211921692,401.157669057846,604.483493556976,607.243493556976,1629915242.57143,1629915242.57296,1629915249.05719,1629915249.06283,1629915251.15797,1629915255.37621,1629915255.37831,1629915256.69553,1629915256.69337,1629915460.01919,0
55,4,2,3,22,4,1,c1_WhyFace,1,argument?,48,F_758.jpg,1629914852.7757,1629914852.77839,387.035737028122,6.47222399711609,393.521488656998,395.622271528244,0.3,401.474453201294,0.766953706741333,402.24274014473,1,left,0.758203029632568,402.241406908035,604.483493556976,607.243493556976,1629915242.57143,1629915242.57296,1629915249.05719,1629915249.06283,1629915251.15797,1629915257.01015,1629915257.01236,1629915257.77844,1629915257.7771,1629915460.01919,1
55,4,2,3,22,5,1,c1_WhyFace,2,argument?,45,F_433.jpg,1629914852.7757,1629914852.77839,387.035737028122,6.47222399711609,393.521488656998,395.622271528244,0.3,402.55819152832,0.716934442520142,403.276164999008,3,right,0.705532073974609,403.27512597084,604.483493556976,607.243493556976,1629915242.57143,1629915242.57296,1629915249.05719,1629915249.06283,1629915251.15797,1629915258.09389,1629915258.09587,1629915258.81186,1629915258.81082,1629915460.01919,0
55,4,2,3,22,6,1,c1_WhyFace,1,argument?,43,F_716.jpg,1629914852.7757,1629914852.77839,387.035737028122,6.47222399711609,393.521488656998,395.622271528244,0.3,403.591910352707,0.81697154045105,404.410237064362,1,left,0.803019046783447,404.408881893158,604.483493556976,607.243493556976,1629915242.57143,1629915242.57296,1629915249.05719,1629915249.06283,1629915251.15797,1629915259.12761,1629915259.12953,1629915259.94594,1629915259.94458,1629915460.01919,1
55,4,2,3,22,7,1,c1_WhyFace,2,argument?,44,F_139.jpg,1629914852.7757,1629914852.77839,387.035737028122,6.47222399711609,393.521488656998,395.622271528244,0.3,404.72566699028,0.583550930023193,405.31079410553,1,left,0.575511932373047,405.309217920303,604.483493556976,607.243493556976,1629915242.57143,1629915242.57296,1629915249.05719,1629915249.06283,1629915251.15797,1629915260.26136,1629915260.26301,1629915260.84649,1629915260.84492,1629915460.01919,0
55,4,2,3,22,8,1,c1_WhyFace,1,argument?,47,F_743.jpg,1629914852.7757,1629914852.77839,387.035737028122,6.47222399711609,393.521488656998,395.622271528244,0.3,405.626001825333,0.850318193435669,406.477720966339,1,left,0.835632085800171,406.476320018768,604.483493556976,607.243493556976,1629915242.57143,1629915242.57296,1629915249.05719,1629915249.06283,1629915251.15797,1629915261.1617,1629915261.16358,1629915262.01342,1629915262.01202,1629915460.01919,1
55,4,2,3,23,1,2,c2_WhyHand,1,helping?,39,H_024.jpg,1629914852.7757,1629914852.77839,406.559684028625,5.16836309432983,411.744951000214,413.845734586716,2.10078358650208,413.995789995193,1.01704573631287,415.014580955505,3,right,0.994723081588745,415.012835731506,604.483493556976,607.243493556976,1629915262.09538,1629915262.09696,1629915267.28065,1629915267.28268,1629915269.38143,1629915269.53149,1629915269.53304,1629915270.55028,1629915270.54853,1629915460.01919,0
55,4,2,3,23,2,2,c2_WhyHand,1,helping?,36,H_349.jpg,1629914852.7757,1629914852.77839,406.559684028625,5.16836309432983,411.744951000214,413.845734586716,0.3,415.329621305466,0.66691517829895,415.998330106735,1,left,0.648301839828491,415.996536483765,604.483493556976,607.243493556976,1629915262.09538,1629915262.09696,1629915267.28065,1629915267.28268,1629915269.38143,1629915270.86532,1629915270.86713,1629915271.53403,1629915271.53223,1629915460.01919,1
55,4,2,3,23,3,2,c2_WhyHand,1,helping?,38,H_077.jpg,1629914852.7757,1629914852.77839,406.559684028625,5.16836309432983,411.744951000214,413.845734586716,0.3,416.313320865631,0.633569717407227,416.947957983017,1,left,0.618875026702881,416.946890583038,604.483493556976,607.243493556976,1629915262.09538,1629915262.09696,1629915267.28065,1629915267.28268,1629915269.38143,1629915271.84902,1629915271.85076,1629915272.48366,1629915272.48259,1629915460.01919,1
55,4,2,3,23,4,2,c2_WhyHand,1,helping?,37,H_474.jpg,1629914852.7757,1629914852.77839,406.559684028625,5.16836309432983,411.744951000214,413.845734586716,0.3,417.263676156998,0.967026948928833,418.231724014282,1,left,0.951764106750488,418.230703105927,604.483493556976,607.243493556976,1629915262.09538,1629915262.09696,1629915267.28065,1629915267.28268,1629915269.38143,1629915272.79937,1629915272.80097,1629915273.76742,1629915273.7664,1629915460.01919,1
55,4,2,3,23,5,2,c2_WhyHand,2,helping?,33,H_091.jpg,1629914852.7757,1629914852.77839,406.559684028625,5.16836309432983,411.744951000214,413.845734586716,0.3,418.54748796463,0.700260162353516,419.249166955948,3,right,0.68130898475647,419.247748126984,604.483493556976,607.243493556976,1629915262.09538,1629915262.09696,1629915267.28065,1629915267.28268,1629915269.38143,1629915274.08319,1629915274.08506,1629915274.78486,1629915274.78345,1629915460.01919,0
55,4,2,3,23,6,2,c2_WhyHand,2,helping?,35,H_159.jpg,1629914852.7757,1629914852.77839,406.559684028625,5.16836309432983,411.744951000214,413.845734586716,0.3,419.564533700943,0.9170081615448,420.483206977844,3,right,0.896311044692993,420.481541862488,604.483493556976,607.243493556976,1629915262.09538,1629915262.09696,1629915267.28065,1629915267.28268,1629915269.38143,1629915275.10023,1629915275.10188,1629915276.0189,1629915276.01724,1629915460.01919,0
55,4,2,3,23,7,2,c2_WhyHand,1,helping?,34,H_111.jpg,1629914852.7757,1629914852.77839,406.559684028625,5.16836309432983,411.744951000214,413.845734586716,0.3,420.798328151703,0.750278472900391,421.549697151184,1,left,0.72783088684082,421.548606624603,604.483493556976,607.243493556976,1629915262.09538,1629915262.09696,1629915267.28065,1629915267.28268,1629915269.38143,1629915276.33403,1629915276.33568,1629915277.0854,1629915277.0843,1629915460.01919,1
55,4,2,3,23,8,2,c2_WhyHand,2,helping?,40,H_012.jpg,1629914852.7757,1629914852.77839,406.559684028625,5.16836309432983,411.744951000214,413.845734586716,0.3,421.865391721725,1.00037360191345,422.876664152145,3,right,0.991859912872314,422.865765323639,604.483493556976,607.243493556976,1629915262.09538,1629915262.09696,1629915267.28065,1629915267.28268,1629915269.38143,1629915277.40109,1629915277.40275,1629915278.41236,1629915278.40146,1629915460.01919,0
55,4,2,3,24,1,4,c4_HowHand,1,both hands?,122,H_111.jpg,1629914852.7757,1629914852.77839,422.949129095078,6.84893107414246,429.801684608459,431.902467479706,2.10078287124634,432.052523841858,0.816972017288208,432.876209011078,1,left,0.796280860900879,432.869495859146,604.483493556976,607.243493556976,1629915278.48483,1629915278.49575,1629915285.33738,1629915285.34598,1629915287.43817,1629915287.58822,1629915287.59603,1629915288.41191,1629915288.40519,1629915460.01919,1
55,4,2,3,24,2,4,c4_HowHand,1,both hands?,128,H_027.jpg,1629914852.7757,1629914852.77839,422.949129095078,6.84893107414246,429.801684608459,431.902467479706,0.3,433.186280002594,0.716935396194458,433.909834136963,1,left,0.707012176513672,433.903215398788,604.483493556976,607.243493556976,1629915278.48483,1629915278.49575,1629915285.33738,1629915285.34598,1629915287.43817,1629915288.72198,1629915288.72362,1629915289.44553,1629915289.43891,1629915460.01919,1
55,4,2,3,24,3,4,c4_HowHand,2,both hands?,121,H_091.jpg,1629914852.7757,1629914852.77839,422.949129095078,6.84893107414246,429.801684608459,431.902467479706,0.3,434.219999303818,0.683587551116943,434.905205001831,3,right,0.661778926849365,434.903586854935,604.483493556976,607.243493556976,1629915278.48483,1629915278.49575,1629915285.33738,1629915285.34598,1629915287.43817,1629915289.7557,1629915289.75715,1629915290.4409,1629915290.43928,1629915460.01919,0
55,4,2,3,24,4,4,c4_HowHand,1,both hands?,123,H_167.jpg,1629914852.7757,1629914852.77839,422.949129095078,6.84893107414246,429.801684608459,431.902467479706,0.3,435.220371713638,0.900336503982544,436.121809949875,1,left,0.877646207809448,436.120708217621,604.483493556976,607.243493556976,1629915278.48483,1629915278.49575,1629915285.33738,1629915285.34598,1629915287.43817,1629915290.75607,1629915290.75788,1629915291.65751,1629915291.65641,1629915460.01919,1
55,4,2,3,24,5,4,c4_HowHand,1,both hands?,124,H_581.jpg,1629914852.7757,1629914852.77839,422.949129095078,6.84893107414246,429.801684608459,431.902467479706,0.3,436.437493076324,0.80029559135437,437.238841047287,1,left,0.777822971343994,437.237788667679,604.483493556976,607.243493556976,1629915278.48483,1629915278.49575,1629915285.33738,1629915285.34598,1629915287.43817,1629915291.97319,1629915291.97469,1629915292.77454,1629915292.77349,1629915460.01919,1
55,4,2,3,24,6,4,c4_HowHand,2,both hands?,126,H_159.jpg,1629914852.7757,1629914852.77839,422.949129095078,6.84893107414246,429.801684608459,431.902467479706,0.3,437.554576387405,0.716933727264404,438.276549091339,3,right,0.708827972412109,438.27151011467,604.483493556976,607.243493556976,1629915278.48483,1629915278.49575,1629915285.33738,1629915285.34598,1629915287.43817,1629915293.09027,1629915293.09182,1629915293.81225,1629915293.80721,1629915460.01919,0
55,4,2,3,24,7,4,c4_HowHand,1,both hands?,127,H_349.jpg,1629914852.7757,1629914852.77839,422.949129095078,6.84893107414246,429.801684608459,431.902467479706,0.3,438.588295211792,0.600223541259766,439.193658103943,1,left,0.577322959899902,439.188518753052,604.483493556976,607.243493556976,1629915278.48483,1629915278.49575,1629915285.33738,1629915285.34598,1629915287.43817,1629915294.12399,1629915294.12923,1629915294.72936,1629915294.72422,1629915460.01919,1
55,4,2,3,24,8,4,c4_HowHand,2,both hands?,125,H_627.jpg,1629914852.7757,1629914852.77839,422.949129095078,6.84893107414246,429.801684608459,431.902467479706,0.3,439.505303373337,0.650242805480957,440.159492959976,3,right,0.631878852844238,440.155546178818,604.483493556976,607.243493556976,1629915278.48483,1629915278.49575,1629915285.33738,1629915285.34598,1629915287.43817,1629915295.041,1629915295.0455,1629915295.69519,1629915295.69124,1629915460.01919,0
55,4,2,3,25,1,2,c2_WhyHand,1,healthy?,18,H_438.jpg,1629914852.7757,1629914852.77839,440.238910188675,7.07599496841431,447.324885597229,449.425670375824,2.10078477859497,449.57572602272,0.750279903411865,450.327700128555,1,left,0.735307931900024,450.326005926132,604.483493556976,607.243493556976,1629915295.77461,1629915295.77908,1629915302.86058,1629915302.86293,1629915304.96137,1629915305.11142,1629915305.1133,1629915305.8634,1629915305.8617,1629915460.01919,1
55,4,2,3,25,2,2,c2_WhyHand,1,healthy?,23,H_364.jpg,1629914852.7757,1629914852.77839,440.238910188675,7.07599496841431,447.324885597229,449.425670375824,0.3,450.64279006958,0.716934204101562,451.361068000793,1,left,0.695282936096191,451.359724273682,604.483493556976,607.243493556976,1629915295.77461,1629915295.77908,1629915302.86058,1629915302.86293,1629915304.96137,1629915306.17849,1629915306.18011,1629915306.89677,1629915306.89542,1629915460.01919,1
55,4,2,3,25,3,2,c2_WhyHand,1,healthy?,17,H_362.jpg,1629914852.7757,1629914852.77839,440.238910188675,7.07599496841431,447.324885597229,449.425670375824,0.3,451.676509370804,0.566877603530884,452.259505023956,1,left,0.559370994567871,452.243386974335,604.483493556976,607.243493556976,1629915295.77461,1629915295.77908,1629915302.86058,1629915302.86293,1629915304.96137,1629915307.21221,1629915307.21389,1629915307.7952,1629915307.77908,1629915460.01919,1
55,4,2,3,25,4,2,c2_WhyHand,2,healthy?,24,H_019.jpg,1629914852.7757,1629914852.77839,440.238910188675,7.07599496841431,447.324885597229,449.425670375824,0.3,452.560172071457,0.866989612579346,453.428904047012,3,right,0.852917194366455,453.427161684036,604.483493556976,607.243493556976,1629915295.77461,1629915295.77908,1629915302.86058,1629915302.86293,1629915304.96137,1629915308.09587,1629915308.09771,1629915308.9646,1629915308.96286,1629915460.01919,0
55,4,2,3,25,5,2,c2_WhyHand,1,healthy?,19,H_167.jpg,1629914852.7757,1629914852.77839,440.238910188675,7.07599496841431,447.324885597229,449.425670375824,0.3,453.743946781158,0.583549976348877,454.328547945023,1,left,0.563380002975464,454.327496757507,604.483493556976,607.243493556976,1629915295.77461,1629915295.77908,1629915302.86058,1629915302.86293,1629915304.96137,1629915309.27964,1629915309.28094,1629915309.86425,1629915309.86319,1629915460.01919,1
55,4,2,3,25,6,2,c2_WhyHand,2,healthy?,20,H_007.jpg,1629914852.7757,1629914852.77839,440.238910188675,7.07599496841431,447.324885597229,449.425670375824,0.3,454.64428185463,1.1004114151001,455.74637793541,3,right,1.0812771320343,455.74469326973,604.483493556976,607.243493556976,1629915295.77461,1629915295.77908,1629915302.86058,1629915302.86293,1629915304.96137,1629915310.17998,1629915310.18152,1629915311.28208,1629915311.28039,1629915460.01919,0
55,4,2,3,25,7,2,c2_WhyHand,1,healthy?,21,H_627.jpg,1629914852.7757,1629914852.77839,440.238910188675,7.07599496841431,447.324885597229,449.425670375824,0.3,456.061477651596,0.96702766418457,457.029845943451,1,left,0.948523998260498,457.028505315781,604.483493556976,607.243493556976,1629915295.77461,1629915295.77908,1629915302.86058,1629915302.86293,1629915304.96137,1629915311.59718,1629915311.59917,1629915312.56554,1629915312.5642,1629915460.01919,1
55,4,2,3,25,8,2,c2_WhyHand,2,healthy?,22,H_130.jpg,1629914852.7757,1629914852.77839,440.238910188675,7.07599496841431,447.324885597229,449.425670375824,0.3,457.345290651321,0.716933012008667,458.063855161667,3,right,0.699935913085938,458.06222366333,604.483493556976,607.243493556976,1629915295.77461,1629915295.77908,1629915302.86058,1629915302.86293,1629915304.96137,1629915312.88099,1629915312.88277,1629915313.59955,1629915313.59792,1629915460.01919,0
55,4,2,3,26,1,4,c4_HowHand,1,pressing button?,82,H_126.jpg,1629914852.7757,1629914852.77839,458.145586957932,8.22338604927063,466.381993522644,468.482775917053,2.10078239440918,468.632832756042,1.71730732917786,NaN,0,NA,0,470.35014008522,604.483493556976,607.243493556976,1629915313.68128,1629915313.68307,1629915321.91769,1629915321.9197,1629915324.01847,1629915324.16853,1629915324.17054,NaN,1629915325.88584,1629915460.01919,0
55,4,2,3,26,2,4,c4_HowHand,2,pressing button?,85,H_130.jpg,1629914852.7757,1629914852.77839,458.145586957932,8.22338604927063,466.381993522644,468.482775917053,0.3,470.66692399025,1.71730780601501,472.502419939041,1,left,1.81448311805725,472.384231796265,604.483493556976,607.243493556976,1629915313.68128,1629915313.68307,1629915321.91769,1629915321.9197,1629915324.01847,1629915326.20262,1629915326.20354,1629915328.03812,1629915327.91993,1629915460.01919,0
55,4,2,3,26,3,4,c4_HowHand,1,pressing button?,84,H_483.jpg,1629914852.7757,1629914852.77839,458.145586957932,8.22338604927063,466.381993522644,468.482775917053,0.3,472.70101641655,0.0166723728179932,472.72694396019,1,left,0.000310897827148438,472.717688789368,604.483493556976,607.243493556976,1629915313.68128,1629915313.68307,1629915321.91769,1629915321.9197,1629915324.01847,1629915328.23671,1629915328.23837,1629915328.26264,1629915328.25339,1629915460.01919,1
55,4,2,3,26,4,4,c4_HowHand,2,pressing button?,87,H_024.jpg,1629914852.7757,1629914852.77839,458.145586957932,8.22338604927063,466.381993522644,468.482775917053,0.3,473.034474363327,0.63356876373291,473.669125070572,3,right,0.610751867294312,473.66804312706,604.483493556976,607.243493556976,1629915313.68128,1629915313.68307,1629915321.91769,1629915321.9197,1629915324.01847,1629915328.57017,1629915328.57209,1629915329.20482,1629915329.20374,1629915460.01919,0
55,4,2,3,26,5,4,c4_HowHand,1,pressing button?,86,H_332.jpg,1629914852.7757,1629914852.77839,458.145586957932,8.22338604927063,466.381993522644,468.482775917053,0.3,473.984827747345,0.833645105361938,474.819514026642,1,left,0.814095020294189,474.818472852707,604.483493556976,607.243493556976,1629915313.68128,1629915313.68307,1629915321.91769,1629915321.9197,1629915324.01847,1629915329.52053,1629915329.52231,1629915330.35521,1629915330.35417,1629915460.01919,1
55,4,2,3,26,6,4,c4_HowHand,1,pressing button?,88,H_019.jpg,1629914852.7757,1629914852.77839,458.145586957932,8.22338604927063,466.381993522644,468.482775917053,0.3,475.135257949829,0.633569240570068,475.776437988281,1,left,0.620970010757446,475.768827190399,604.483493556976,607.243493556976,1629915313.68128,1629915313.68307,1629915321.91769,1629915321.9197,1629915324.01847,1629915330.67096,1629915330.6726,1629915331.31214,1629915331.30453,1629915460.01919,1
55,4,2,3,26,7,4,c4_HowHand,2,pressing button?,81,H_261.jpg,1629914852.7757,1629914852.77839,458.145586957932,8.22338604927063,466.381993522644,468.482775917053,0.3,476.085611572266,0.650242328643799,476.742788066864,3,right,0.635820150375366,476.735853900909,604.483493556976,607.243493556976,1629915313.68128,1629915313.68307,1629915321.91769,1629915321.9197,1629915324.01847,1629915331.62131,1629915331.62347,1629915332.27849,1629915332.27155,1629915460.01919,0
55,4,2,3,26,8,4,c4_HowHand,1,pressing button?,83,H_502.jpg,1629914852.7757,1629914852.77839,458.145586957932,8.22338604927063,466.381993522644,468.482775917053,0.3,477.05263923645,0.500186681747437,477.559466114044,1,left,0.491445779800415,477.552825918198,604.483493556976,607.243493556976,1629915313.68128,1629915313.68307,1629915321.91769,1629915321.9197,1629915324.01847,1629915332.58834,1629915332.59001,1629915333.09516,1629915333.08852,1629915460.01919,1
55,4,2,3,27,1,3,c3_HowFace,1,looking at camera?,60,F_618.jpg,1629914852.7757,1629914852.77839,477.636189928055,6.2628161907196,483.905194511414,486.005977859497,2.1007833480835,486.156033506393,0.58355188369751,486.742761125565,1,left,0.56149697303772,486.739585390091,604.483493556976,607.243493556976,1629915333.17189,1629915333.17908,1629915339.44089,1629915339.44598,1629915341.54168,1629915341.69173,1629915341.69583,1629915342.27846,1629915342.27528,1629915460.01919,1
55,4,2,3,27,2,3,c3_HowFace,2,looking at camera?,58,F_754.jpg,1629914852.7757,1629914852.77839,477.636189928055,6.2628161907196,483.905194511414,486.005977859497,0.3,487.056369771957,0.716934204101562,487.776617994308,3,right,0.70603609085083,487.773303976059,604.483493556976,607.243493556976,1629915333.17189,1629915333.17908,1629915339.44089,1629915339.44598,1629915341.54168,1629915342.59207,1629915342.59568,1629915343.31232,1629915343.309,1629915460.01919,0
55,4,2,3,27,3,3,c3_HowFace,1,looking at camera?,59,F_129.jpg,1629914852.7757,1629914852.77839,477.636189928055,6.2628161907196,483.905194511414,486.005977859497,0.3,488.090088596344,0.450166702270508,488.543143978119,1,left,0.437766075134277,488.540255298615,604.483493556976,607.243493556976,1629915333.17189,1629915333.17908,1629915339.44089,1629915339.44598,1629915341.54168,1629915343.62579,1629915343.6291,1629915344.07884,1629915344.07595,1629915460.01919,1
55,4,2,3,27,4,3,c3_HowFace,1,looking at camera?,62,F_598.jpg,1629914852.7757,1629914852.77839,477.636189928055,6.2628161907196,483.905194511414,486.005977859497,0.3,488.857040634155,0.550205230712891,489.40983294487,1,left,0.52704119682312,489.407245864868,604.483493556976,607.243493556976,1629915333.17189,1629915333.17908,1629915339.44089,1629915339.44598,1629915341.54168,1629915344.39274,1629915344.39591,1629915344.94553,1629915344.94294,1629915460.01919,1
55,4,2,3,27,5,3,c3_HowFace,1,looking at camera?,64,F_128.jpg,1629914852.7757,1629914852.77839,477.636189928055,6.2628161907196,483.905194511414,486.005977859497,0.3,489.724031200409,0.566877365112305,490.292757024765,1,left,0.553930997848511,490.290908565521,604.483493556976,607.243493556976,1629915333.17189,1629915333.17908,1629915339.44089,1629915339.44598,1629915341.54168,1629915345.25973,1629915345.2623,1629915345.82845,1629915345.82661,1629915460.01919,1
55,4,2,3,27,6,3,c3_HowFace,2,looking at camera?,57,F_582.jpg,1629914852.7757,1629914852.77839,477.636189928055,6.2628161907196,483.905194511414,486.005977859497,0.3,490.607693901062,1.05039143562317,491.659717073441,3,right,1.03991794586182,491.658085336685,604.483493556976,607.243493556976,1629915333.17189,1629915333.17908,1629915339.44089,1629915339.44598,1629915341.54168,1629915346.14339,1629915346.14558,1629915347.19542,1629915347.19378,1629915460.01919,0
55,4,2,3,27,7,3,c3_HowFace,1,looking at camera?,61,F_774.jpg,1629914852.7757,1629914852.77839,477.636189928055,6.2628161907196,483.905194511414,486.005977859497,0.3,491.974870195389,0.666915655136108,492.642740955353,1,left,0.658301115036011,492.641785850525,604.483493556976,607.243493556976,1629915333.17189,1629915333.17908,1629915339.44089,1629915339.44598,1629915341.54168,1629915347.51057,1629915347.51229,1629915348.17844,1629915348.17748,1629915460.01919,1
55,4,2,3,27,8,3,c3_HowFace,2,looking at camera?,63,F_743.jpg,1629914852.7757,1629914852.77839,477.636189928055,6.2628161907196,483.905194511414,486.005977859497,0.3,492.958570232391,0.650242567062378,493.609976997375,3,right,0.629646062850952,493.608812799454,604.483493556976,607.243493556976,1629915333.17189,1629915333.17908,1629915339.44089,1629915339.44598,1629915341.54168,1629915348.49427,1629915348.49586,1629915349.14567,1629915349.14451,1629915460.01919,0
