src_subject_id,session_id,run_id,param_counterbalance_ver,param_block_num,param_trial_num,param_cond_type_num,param_cond_type_string,param_normative_response,param_ques_type_string,param_image_num,param_image_filename,param_trigger_onset,param_start_biopac,event01_fixation,event01_fixation_dur,event01_blockquestion_onset,event01_block_isi_blacksreen,event01_blockquestion_dur,event02_image_onset,event02_image_dur,event03_response_onset,event03_response_key,event03_response_keyname,event03_RT,event04_shortquestion_onset,param_end_instruct_onset,param_experiment_duration,RAW_e1_fixation,RAW_e1_fixation_biopac,RAW_e1_blockquestion_onset,RAW_e1_blockquestion_onset_biopac,RAW_e1_block_isi_blacksreen,RAW_e2_image_onset,RAW_e2_image_onset_biopac,RAW_e3_response_onset,RAW_e4_shortquestion_onset,RAW_param_end_instruct_onset,accuracy
52,4,2,3,1,1,4,c4_HowHand,1,reaching?,107,H_007.jpg,1629996085.2813,1629996085.28362,0.0209951305389402,0.0240888595581055,0.0543415451049802,2.12177919387817,2.06743764877319,2.25516246795654,0.733606576919556,2.99836396217346,1,left,0.70212197303772,2.9887690448761,604.479745140076,607.239745140076,1629996088.0623,1629996088.06688,1629996088.09564,1629996088.10545,1629996090.16308,1629996090.29646,1629996090.30587,1629996091.03966,1629996091.03007,1629996692.52105,1
52,4,2,3,1,2,4,c4_HowHand,2,reaching?,108,H_532.jpg,1629996085.2813,1629996085.28362,0.0209951305389402,0.0240888595581055,0.0543415451049802,2.12177919387817,0.3,3.30555461883545,0.666914463043213,3.97383188247681,3,right,0.644811868667603,3.97246908187866,604.479745140076,607.239745140076,1629996088.0623,1629996088.06688,1629996088.09564,1629996088.10545,1629996090.16308,1629996091.34686,1629996091.3486,1629996092.01513,1629996092.01377,1629996692.52105,0
52,4,2,3,1,3,4,c4_HowHand,1,reaching?,109,H_474.jpg,1629996085.2813,1629996085.28362,0.0209951305389402,0.0240888595581055,0.0543415451049802,2.12177919387817,0.3,4.28925394058228,0.816971302032471,5.11515902519226,1,left,0.797139167785645,5.10622524261475,604.479745140076,607.239745140076,1629996088.0623,1629996088.06688,1629996088.09564,1629996088.10545,1629996090.16308,1629996092.33055,1629996092.33296,1629996093.15646,1629996093.14753,1629996692.52105,1
52,4,2,3,1,4,4,c4_HowHand,2,reaching?,105,H_438.jpg,1629996085.2813,1629996085.28362,0.0209951305389402,0.0240888595581055,0.0543415451049802,2.12177919387817,0.3,5.42301057815552,0.816970348358154,6.24801587104797,3,right,0.799178123474121,6.23998092651367,604.479745140076,607.239745140076,1629996088.0623,1629996088.06688,1629996088.09564,1629996088.10545,1629996090.16308,1629996093.46431,1629996093.46612,1629996094.28932,1629996094.28128,1629996692.52105,0
52,4,2,3,1,5,4,c4_HowHand,1,reaching?,110,H_364.jpg,1629996085.2813,1629996085.28362,0.0209951305389402,0.0240888595581055,0.0543415451049802,2.12177919387817,0.3,6.55676602363586,0.716934204101562,7.28160499572754,1,left,0.696769952774048,7.27370022773743,604.479745140076,607.239745140076,1629996088.0623,1629996088.06688,1629996088.09564,1629996088.10545,1629996090.16308,1629996094.59807,1629996094.60083,1629996095.32291,1629996095.315,1629996692.52105,1
52,4,2,3,1,6,4,c4_HowHand,1,reaching?,106,H_006.jpg,1629996085.2813,1629996085.28362,0.0209951305389402,0.0240888595581055,0.0543415451049802,2.12177919387817,0.3,7.59048484802246,0.750280618667603,8.34253095626831,1,left,0.728085994720459,8.34076546669006,604.479745140076,607.239745140076,1629996088.0623,1629996088.06688,1629996088.09564,1629996088.10545,1629996090.16308,1629996095.63179,1629996095.63324,1629996096.38383,1629996096.38207,1629996692.52105,1
52,4,2,3,1,7,4,c4_HowHand,1,reaching?,111,H_003.jpg,1629996085.2813,1629996085.28362,0.0209951305389402,0.0240888595581055,0.0543415451049802,2.12177919387817,0.3,8.65754770278931,0.750281572341919,9.41375206947327,1,left,0.732479095458984,9.40782927513123,604.479745140076,607.239745140076,1629996088.0623,1629996088.06688,1629996088.09564,1629996088.10545,1629996090.16308,1629996096.69885,1629996096.70066,1629996097.45505,1629996097.44913,1629996692.52105,1
52,4,2,3,1,8,4,c4_HowHand,2,reaching?,112,H_132.jpg,1629996085.2813,1629996085.28362,0.0209951305389402,0.0240888595581055,0.0543415451049802,2.12177919387817,0.3,9.72461437225342,0.766952991485596,10.4926030540466,3,right,0.744640827178955,10.491567363739,604.479745140076,607.239745140076,1629996088.0623,1629996088.06688,1629996088.09564,1629996088.10545,1629996090.16308,1629996097.76592,1629996097.76738,1629996098.5339,1629996098.53287,1629996692.52105,0
52,4,2,3,2,1,2,c2_WhyHand,1,healthy?,21,H_627.jpg,1629996085.2813,1629996085.28362,10.6082773113251,6.92278861999512,17.5441975498199,19.6449801826477,2.10078263282776,19.7950367832184,0.9170081615448,20.7138929271698,1,left,0.908060073852539,20.7120449447632,604.479745140076,607.239745140076,1629996098.64958,1629996098.65521,1629996105.5855,1629996105.58914,1629996107.68628,1629996107.83634,1629996107.83907,1629996108.75519,1629996108.75335,1629996692.52105,1
52,4,2,3,2,2,2,c2_WhyHand,1,healthy?,18,H_438.jpg,1629996085.2813,1629996085.28362,10.6082773113251,6.92278861999512,17.5441975498199,19.6449801826477,0.3,21.0288290882111,1.43386816978455,22.4641520881653,1,left,1.41914105415344,22.4626972579956,604.479745140076,607.239745140076,1629996098.64958,1629996098.65521,1629996105.5855,1629996105.58914,1629996107.68628,1629996109.07013,1629996109.0723,1629996110.50545,1629996110.504,1629996692.52105,1
52,4,2,3,2,3,2,c2_WhyHand,1,healthy?,23,H_364.jpg,1629996085.2813,1629996085.28362,10.6082773113251,6.92278861999512,17.5441975498199,19.6449801826477,0.3,22.7794823551178,1.70063400268555,24.4810080432892,1,left,1.68978595733643,24.4801163578033,604.479745140076,607.239745140076,1629996098.64958,1629996098.65521,1629996105.5855,1629996105.58914,1629996107.68628,1629996110.82078,1629996110.82249,1629996112.52231,1629996112.52142,1629996692.52105,1
52,4,2,3,2,4,2,c2_WhyHand,2,healthy?,22,H_130.jpg,1629996085.2813,1629996085.28362,10.6082773113251,6.92278861999512,17.5441975498199,19.6449801826477,0.3,24.796901216507,0.850317239761353,25.6481718921661,3,right,0.841212034225464,25.6472184562683,604.479745140076,607.239745140076,1629996098.64958,1629996098.65521,1629996105.5855,1629996105.58914,1629996107.68628,1629996112.8382,1629996112.83995,1629996113.68947,1629996113.68852,1629996692.52105,0
52,4,2,3,2,5,2,c2_WhyHand,1,healthy?,17,H_362.jpg,1629996085.2813,1629996085.28362,10.6082773113251,6.92278861999512,17.5441975498199,19.6449801826477,0.3,25.9640030765533,0.750280380249023,26.7152418994904,1,left,0.738726139068604,26.7142834568024,604.479745140076,607.239745140076,1629996098.64958,1629996098.65521,1629996105.5855,1629996105.58914,1629996107.68628,1629996114.0053,1629996114.00686,1629996114.75654,1629996114.75558,1629996692.52105,1
52,4,2,3,2,6,2,c2_WhyHand,2,healthy?,20,H_007.jpg,1629996085.2813,1629996085.28362,10.6082773113251,6.92278861999512,17.5441975498199,19.6449801826477,0.3,27.0310680770874,0.917009115219116,27.9490709209442,3,right,0.898641109466553,27.9480771923065,604.479745140076,607.239745140076,1629996098.64958,1629996098.65521,1629996105.5855,1629996105.58914,1629996107.68628,1629996115.07237,1629996115.07399,1629996115.99037,1629996115.98938,1629996692.52105,0
52,4,2,3,2,7,2,c2_WhyHand,1,healthy?,19,H_167.jpg,1629996085.2813,1629996085.28362,10.6082773113251,6.92278861999512,17.5441975498199,19.6449801826477,0.3,28.264861574173,0.583550691604614,28.8498790168762,1,left,0.569256067276001,28.8484122657776,604.479745140076,607.239745140076,1629996098.64958,1629996098.65521,1629996105.5855,1629996105.58914,1629996107.68628,1629996116.30616,1629996116.30783,1629996116.89118,1629996116.88971,1629996692.52105,1
52,4,2,3,2,8,2,c2_WhyHand,2,healthy?,24,H_019.jpg,1629996085.2813,1629996085.28362,10.6082773113251,6.92278861999512,17.5441975498199,19.6449801826477,0.3,29.1651973628998,1.18377423286438,30.3500130081177,3,right,1.16569209098816,30.3489715957642,604.479745140076,607.239745140076,1629996098.64958,1629996098.65521,1629996105.5855,1629996105.58914,1629996107.68628,1629996117.2065,1629996117.20796,1629996118.39131,1629996118.39027,1629996692.52105,0
52,4,2,3,3,1,1,c1_WhyFace,1,admiring?,4,F_779.jpg,1629996085.2813,1629996085.28362,30.4323360824585,6.20671701431274,36.6513221168518,38.752106180191,2.10078406333923,38.9021625423431,0.550204277038574,39.4540510082245,1,left,0.52856707572937,39.4523668193817,604.479745140076,607.239745140076,1629996118.47364,1629996118.47552,1629996124.69262,1629996124.69487,1629996126.79341,1629996126.94346,1629996126.94518,1629996127.49535,1629996127.49367,1629996692.52105,1
52,4,2,3,3,2,1,c1_WhyFace,1,admiring?,1,F_593.jpg,1629996085.2813,1629996085.28362,30.4323360824585,6.20671701431274,36.6513221168518,38.752106180191,0.3,39.7691523933411,0.650241613388062,40.430397977829,1,left,0.638520002365112,40.4193940067291,604.479745140076,607.239745140076,1629996118.47364,1629996118.47552,1629996124.69262,1629996124.69487,1629996126.79341,1629996127.81045,1629996127.81223,1629996128.4717,1629996128.4607,1629996692.52105,1
52,4,2,3,3,3,1,c1_WhyFace,2,admiring?,3,F_110.jpg,1629996085.2813,1629996085.28362,30.4323360824585,6.20671701431274,36.6513221168518,38.752106180191,0.3,40.7361793422699,0.650241851806641,41.387481918335,3,right,0.631811141967773,41.3864211940765,604.479745140076,607.239745140076,1629996118.47364,1629996118.47552,1629996124.69262,1629996124.69487,1629996126.79341,1629996128.77748,1629996128.77918,1629996129.42878,1629996129.42772,1629996692.52105,0
52,4,2,3,3,4,1,c1_WhyFace,1,admiring?,8,F_590.jpg,1629996085.2813,1629996085.28362,30.4323360824585,6.20671701431274,36.6513221168518,38.752106180191,0.3,41.7032060527802,0.600224733352661,42.3047940635681,1,left,0.583611965179443,42.3034307861328,604.479745140076,607.239745140076,1629996118.47364,1629996118.47552,1629996124.69262,1629996124.69487,1629996126.79341,1629996129.74451,1629996129.74605,1629996130.3461,1629996130.34473,1629996692.52105,1
52,4,2,3,3,5,1,c1_WhyFace,2,admiring?,6,F_692.jpg,1629996085.2813,1629996085.28362,30.4323360824585,6.20671701431274,36.6513221168518,38.752106180191,0.3,42.6202156448364,1.16710186004639,43.7887830638886,3,right,1.14761710166931,43.7873175048828,604.479745140076,607.239745140076,1629996118.47364,1629996118.47552,1629996124.69262,1629996124.69487,1629996126.79341,1629996130.66152,1629996130.6634,1629996131.83008,1629996131.82862,1629996692.52105,0
52,4,2,3,3,6,1,c1_WhyFace,1,admiring?,5,F_759.jpg,1629996085.2813,1629996085.28362,30.4323360824585,6.20671701431274,36.6513221168518,38.752106180191,0.3,44.1041014099121,0.500186681747437,44.6060099506378,1,left,0.477650165557861,44.6042880916595,604.479745140076,607.239745140076,1629996118.47364,1629996118.47552,1629996124.69262,1629996124.69487,1629996126.79341,1629996132.1454,1629996132.14709,1629996132.64731,1629996132.64559,1629996692.52105,1
52,4,2,3,3,7,1,c1_WhyFace,1,admiring?,7,F_648.jpg,1629996085.2813,1629996085.28362,30.4323360824585,6.20671701431274,36.6513221168518,38.752106180191,0.3,44.9210736656189,0.58354926109314,45.5060119533539,1,left,0.561380863189697,45.504622926712,604.479745140076,607.239745140076,1629996118.47364,1629996118.47552,1629996124.69262,1629996124.69487,1629996126.79341,1629996132.96237,1629996132.96417,1629996133.54731,1629996133.54592,1629996692.52105,1
52,4,2,3,3,8,1,c1_WhyFace,2,admiring?,2,F_129.jpg,1629996085.2813,1629996085.28362,30.4323360824585,6.20671701431274,36.6513221168518,38.752106180191,0.3,45.8214070701599,1.00037550926208,46.8304150009155,3,right,0.992838859558105,46.821782579422,604.479745140076,607.239745140076,1629996118.47364,1629996118.47552,1629996124.69262,1629996124.69487,1629996126.79341,1629996133.86271,1629996133.86449,1629996134.87172,1629996134.86308,1629996692.52105,0
52,4,2,3,4,1,3,c3_HowFace,1,smiling?,119,F_139.jpg,1629996085.2813,1629996085.28362,46.905146112442,8.69799780845642,55.6083927059174,57.7091746234894,2.10078191757202,57.8592314624786,0.533532619476318,58.3978140258789,1,left,0.510138988494873,58.392764081955,604.479745140076,607.239745140076,1629996134.94645,1629996134.9555,1629996143.64969,1629996143.65635,1629996145.75048,1629996145.90053,1629996145.90584,1629996146.43912,1629996146.43407,1629996692.52105,1
52,4,2,3,4,2,3,c3_HowFace,2,smiling?,113,F_712.jpg,1629996085.2813,1629996085.28362,46.905146112442,8.69799780845642,55.6083927059174,57.7091746234894,0.3,58.70954870224,0.616896867752075,59.3305010700226,3,right,0.605479955673218,59.3264455699921,604.479745140076,607.239745140076,1629996134.94645,1629996134.9555,1629996143.64969,1629996143.65635,1629996145.75048,1629996146.75085,1629996146.75572,1629996147.3718,1629996147.36775,1629996692.52105,0
52,4,2,3,4,3,3,c3_HowFace,1,smiling?,115,F_695.jpg,1629996085.2813,1629996085.28362,46.905146112442,8.69799780845642,55.6083927059174,57.7091746234894,0.3,59.6432304286957,0.600222826004028,60.2475199604034,1,left,0.579859018325806,60.2434532546997,604.479745140076,607.239745140076,1629996134.94645,1629996134.9555,1629996143.64969,1629996143.65635,1629996145.75048,1629996147.68453,1629996147.68895,1629996148.28882,1629996148.28475,1629996692.52105,1
52,4,2,3,4,4,3,c3_HowFace,2,smiling?,120,F_758.jpg,1629996085.2813,1629996085.28362,46.905146112442,8.69799780845642,55.6083927059174,57.7091746234894,0.3,60.5602388286591,0.750277042388916,61.3115289115906,3,right,0.725332975387573,61.310515871048,604.479745140076,607.239745140076,1629996134.94645,1629996134.9555,1629996143.64969,1629996143.65635,1629996145.75048,1629996148.60154,1629996148.60563,1629996149.35283,1629996149.35182,1629996692.52105,0
52,4,2,3,4,5,3,c3_HowFace,1,smiling?,116,F_083.jpg,1629996085.2813,1629996085.28362,46.905146112442,8.69799780845642,55.6083927059174,57.7091746234894,0.3,61.6273035907745,0.483513355255127,62.1141550445557,1,left,0.461766958236694,62.1108169460297,604.479745140076,607.239745140076,1629996134.94645,1629996134.9555,1629996143.64969,1629996143.65635,1629996145.75048,1629996149.6686,1629996149.67226,1629996150.15546,1629996150.15212,1629996692.52105,1
52,4,2,3,4,6,3,c3_HowFace,1,smiling?,118,F_759.jpg,1629996085.2813,1629996085.28362,46.905146112442,8.69799780845642,55.6083927059174,57.7091746234894,0.3,62.427602519989,0.600223302841187,63.0303108596802,1,left,0.587861061096191,63.0278258228302,604.479745140076,607.239745140076,1629996134.94645,1629996134.9555,1629996143.64969,1629996143.65635,1629996145.75048,1629996150.4689,1629996150.47226,1629996151.07161,1629996151.06913,1629996692.52105,1
52,4,2,3,4,7,3,c3_HowFace,2,smiling?,114,F_412.jpg,1629996085.2813,1629996085.28362,46.905146112442,8.69799780845642,55.6083927059174,57.7091746234894,0.3,63.3446102046967,0.566877841949463,63.9142649078369,3,right,0.555094957351685,63.9114880466461,604.479745140076,607.239745140076,1629996134.94645,1629996134.9555,1629996143.64969,1629996143.65635,1629996145.75048,1629996151.38591,1629996151.38887,1629996151.95557,1629996151.95279,1629996692.52105,0
52,4,2,3,4,8,3,c3_HowFace,1,smiling?,117,F_593.jpg,1629996085.2813,1629996085.28362,46.905146112442,8.69799780845642,55.6083927059174,57.7091746234894,0.3,64.228273859024,0.533531665802002,64.7636699581146,1,left,0.516786098480225,64.761805524826,604.479745140076,607.239745140076,1629996134.94645,1629996134.9555,1629996143.64969,1629996143.65635,1629996145.75048,1629996152.26957,1629996152.27241,1629996152.80497,1629996152.80311,1629996692.52105,1
52,4,2,3,5,1,4,c4_HowHand,1,lifting?,56,H_136.jpg,1629996085.2813,1629996085.28362,64.8284962081909,8.30534267425537,73.1482660675049,75.2490498924255,2.10078382492065,75.3991050624847,0.98370099067688,76.3845579528809,1,left,0.960600137710571,76.3828060531616,604.479745140076,607.239745140076,1629996152.8698,1629996152.87335,1629996161.18957,1629996161.19287,1629996163.29035,1629996163.44041,1629996163.4423,1629996164.42586,1629996164.42411,1629996692.52105,1
52,4,2,3,5,2,4,c4_HowHand,2,lifting?,51,H_038.jpg,1629996085.2813,1629996085.28362,64.8284962081909,8.30534267425537,73.1482660675049,75.2490498924255,0.3,76.6995906734467,0.933681726455688,77.634896030426,3,right,0.913124084472656,77.6332723999023,604.479745140076,607.239745140076,1629996152.8698,1629996152.87335,1629996161.18957,1629996161.19287,1629996163.29035,1629996164.74089,1629996164.74284,1629996165.6762,1629996165.67457,1629996692.52105,0
52,4,2,3,5,3,4,c4_HowHand,1,lifting?,52,H_189.jpg,1629996085.2813,1629996085.28362,64.8284962081909,8.30534267425537,73.1482660675049,75.2490498924255,0.3,77.9500560665131,1.03371930122375,78.9847879314423,1,left,1.0215630531311,78.9837753677368,604.479745140076,607.239745140076,1629996152.8698,1629996152.87335,1629996161.18957,1629996161.19287,1629996163.29035,1629996165.99136,1629996165.99281,1629996167.02609,1629996167.02508,1629996692.52105,1
52,4,2,3,5,4,4,c4_HowHand,2,lifting?,53,H_077.jpg,1629996085.2813,1629996085.28362,64.8284962081909,8.30534267425537,73.1482660675049,75.2490498924255,0.3,79.300560464859,0.783625602722168,80.0971538925171,3,right,0.775382995605469,80.0841860675812,604.479745140076,607.239745140076,1629996152.8698,1629996152.87335,1629996161.18957,1629996161.19287,1629996163.29035,1629996167.34186,1629996167.34365,1629996168.13845,1629996168.12549,1629996692.52105,0
52,4,2,3,5,5,4,c4_HowHand,1,lifting?,50,H_443.jpg,1629996085.2813,1629996085.28362,64.8284962081909,8.30534267425537,73.1482660675049,75.2490498924255,0.3,80.4009714031219,0.983699798583984,81.3864450359344,1,left,0.961721181869507,81.3846712017059,604.479745140076,607.239745140076,1629996152.8698,1629996152.87335,1629996161.18957,1629996161.19287,1629996163.29035,1629996168.44227,1629996168.44418,1629996169.42775,1629996169.42597,1629996692.52105,1
52,4,2,3,5,6,4,c4_HowHand,2,lifting?,55,H_012.jpg,1629996085.2813,1629996085.28362,64.8284962081909,8.30534267425537,73.1482660675049,75.2490498924255,0.3,81.7014565372467,0.666914939880371,82.369469871521,3,right,0.653759002685547,82.3683714771271,604.479745140076,607.239745140076,1629996152.8698,1629996152.87335,1629996161.18957,1629996161.19287,1629996163.29035,1629996169.74276,1629996169.74487,1629996170.41077,1629996170.40967,1629996692.52105,0
52,4,2,3,5,7,4,c4_HowHand,1,lifting?,49,H_362.jpg,1629996085.2813,1629996085.28362,64.8284962081909,8.30534267425537,73.1482660675049,75.2490498924255,0.3,82.6851560974121,0.566877841949463,83.2537920379639,1,left,0.551584005355835,83.2520339393616,604.479745140076,607.239745140076,1629996152.8698,1629996152.87335,1629996161.18957,1629996161.19287,1629996163.29035,1629996170.72646,1629996170.728,1629996171.29509,1629996171.29333,1629996692.52105,1
52,4,2,3,5,8,4,c4_HowHand,1,lifting?,54,H_170.jpg,1629996085.2813,1629996085.28362,64.8284962081909,8.30534267425537,73.1482660675049,75.2490498924255,0.3,83.5688195133209,0.650241613388062,84.2206380271912,1,left,0.627425909042358,84.219061126709,604.479745140076,607.239745140076,1629996152.8698,1629996152.87335,1629996161.18957,1629996161.19287,1629996163.29035,1629996171.61012,1629996171.6114,1629996172.26194,1629996172.26036,1629996692.52105,1
52,4,2,3,6,1,2,c2_WhyHand,1,helping?,38,H_077.jpg,1629996085.2813,1629996085.28362,84.285752286911,11.3291757106781,95.6233146095276,97.7240979576111,2.1007833480835,97.874153842926,0.833645105361938,98.7137949371338,1,left,0.818670988082886,98.707798948288,604.479745140076,607.239745140076,1629996172.32705,1629996172.32825,1629996183.66462,1629996183.67249,1629996185.7654,1629996185.91545,1629996185.92227,1629996186.7551,1629996186.7491,1629996692.52105,1
52,4,2,3,6,2,2,c2_WhyHand,1,helping?,36,H_349.jpg,1629996085.2813,1629996085.28362,84.285752286911,11.3291757106781,95.6233146095276,97.7240979576111,0.3,99.0245830917358,0.650241374969482,99.680376996994,1,left,0.633778810501099,99.6748244667053,604.479745140076,607.239745140076,1629996172.32705,1629996172.32825,1629996183.66462,1629996183.67249,1629996185.7654,1629996187.06588,1629996187.06768,1629996187.72168,1629996187.71613,1629996692.52105,1
52,4,2,3,6,3,2,c2_WhyHand,1,helping?,37,H_474.jpg,1629996085.2813,1629996085.28362,84.285752286911,11.3291757106781,95.6233146095276,97.7240979576111,0.3,99.9916105175018,0.600223541259766,100.592921009064,1,left,0.577258110046387,100.591834058762,604.479745140076,607.239745140076,1629996172.32705,1629996172.32825,1629996183.66462,1629996183.67249,1629996185.7654,1629996188.03291,1629996188.03473,1629996188.63422,1629996188.63314,1629996692.52105,1
52,4,2,3,6,4,2,c2_WhyHand,1,helping?,39,H_024.jpg,1629996085.2813,1629996085.28362,84.285752286911,11.3291757106781,95.6233146095276,97.7240979576111,0.3,100.908618917465,1.05039167404175,101.964032878876,1,left,1.03135418891907,101.959010591507,604.479745140076,607.239745140076,1629996172.32705,1629996172.32825,1629996183.66462,1629996183.67249,1629996185.7654,1629996188.94992,1629996188.95169,1629996190.00533,1629996190.00031,1629996692.52105,1
52,4,2,3,6,5,2,c2_WhyHand,2,helping?,40,H_012.jpg,1629996085.2813,1629996085.28362,84.285752286911,11.3291757106781,95.6233146095276,97.7240979576111,0.3,102.275795688629,0.816970109939575,103.097697963715,3,right,0.799710988998413,103.092765798569,604.479745140076,607.239745140076,1629996172.32705,1629996172.32825,1629996183.66462,1629996183.67249,1629996185.7654,1629996190.3171,1629996190.31919,1629996191.139,1629996191.13407,1629996692.52105,0
52,4,2,3,6,6,2,c2_WhyHand,2,helping?,35,H_159.jpg,1629996085.2813,1629996085.28362,84.285752286911,11.3291757106781,95.6233146095276,97.7240979576111,0.3,103.409551134109,1.03371977806091,104.447778930664,3,right,1.01445412635803,104.44327091217,604.479745140076,607.239745140076,1629996172.32705,1629996172.32825,1629996183.66462,1629996183.67249,1629996185.7654,1629996191.45085,1629996191.45551,1629996192.48908,1629996192.48457,1629996692.52105,0
52,4,2,3,6,7,2,c2_WhyHand,1,helping?,34,H_111.jpg,1629996085.2813,1629996085.28362,84.285752286911,11.3291757106781,95.6233146095276,97.7240979576111,0.3,104.760055055618,0.750280618667603,105.514183034897,1,left,0.733505010604858,105.510335674286,604.479745140076,607.239745140076,1629996172.32705,1629996172.32825,1629996183.66462,1629996183.67249,1629996185.7654,1629996192.80136,1629996192.80551,1629996193.55548,1629996193.55164,1629996692.52105,1
52,4,2,3,6,8,2,c2_WhyHand,2,helping?,33,H_091.jpg,1629996085.2813,1629996085.28362,84.285752286911,11.3291757106781,95.6233146095276,97.7240979576111,0.3,105.827118864059,0.933681964874268,106.763633003235,3,right,0.924093008041382,106.760800828934,604.479745140076,607.239745140076,1629996172.32705,1629996172.32825,1629996183.66462,1629996183.67249,1629996185.7654,1629996193.86842,1629996193.87206,1629996194.80493,1629996194.8021,1629996692.52105,0
52,4,2,3,7,1,1,c1_WhyFace,1,proud?,104,F_598.jpg,1629996085.2813,1629996085.28362,106.827492465973,6.66247344017029,113.496646633148,115.597430696487,2.10078406333923,115.747484912872,0.933682441711426,116.682135095596,1,left,0.922420978546143,116.681167354584,604.479745140076,607.239745140076,1629996194.86879,1629996194.87205,1629996201.53795,1629996201.53946,1629996203.63873,1629996203.78879,1629996203.79043,1629996204.72344,1629996204.72247,1629996692.52105,1
52,4,2,3,7,2,1,c1_WhyFace,2,proud?,102,F_760.jpg,1629996085.2813,1629996085.28362,106.827492465973,6.66247344017029,113.496646633148,115.597430696487,0.3,116.997952451706,0.650241374969482,117.664339056015,3,right,0.642563819885254,117.648193826675,604.479745140076,607.239745140076,1629996194.86879,1629996194.87205,1629996201.53795,1629996201.53946,1629996203.63873,1629996205.03925,1629996205.04095,1629996205.70564,1629996205.68949,1629996692.52105,0
52,4,2,3,7,3,1,c1_WhyFace,1,proud?,97,F_582.jpg,1629996085.2813,1629996085.28362,106.827492465973,6.66247344017029,113.496646633148,115.597430696487,0.3,117.964979162216,0.666915416717529,118.633290996552,1,left,0.654499053955078,118.631894578934,604.479745140076,607.239745140076,1629996194.86879,1629996194.87205,1629996201.53795,1629996201.53946,1629996203.63873,1629996206.00628,1629996206.00784,1629996206.67459,1629996206.6732,1629996692.52105,1
52,4,2,3,7,4,1,c1_WhyFace,2,proud?,98,F_412.jpg,1629996085.2813,1629996085.28362,106.827492465973,6.66247344017029,113.496646633148,115.597430696487,0.3,118.94868062973,0.666914701461792,119.617465963364,3,right,0.648582935333252,119.615595331192,604.479745140076,607.239745140076,1629996194.86879,1629996194.87205,1629996201.53795,1629996201.53946,1629996203.63873,1629996206.98998,1629996206.99165,1629996207.65877,1629996207.6569,1629996692.52105,0
52,4,2,3,7,5,1,c1_WhyFace,1,proud?,101,F_083.jpg,1629996085.2813,1629996085.28362,106.827492465973,6.66247344017029,113.496646633148,115.597430696487,0.3,119.932380428314,0.816969871520996,120.764046897888,1,left,0.808202028274536,120.749350299835,604.479745140076,607.239745140076,1629996194.86879,1629996194.87205,1629996201.53795,1629996201.53946,1629996203.63873,1629996207.97368,1629996207.97555,1629996208.80535,1629996208.79065,1629996692.52105,1
52,4,2,3,7,6,1,c1_WhyFace,2,proud?,100,F_776.jpg,1629996085.2813,1629996085.28362,106.827492465973,6.66247344017029,113.496646633148,115.597430696487,0.3,121.066135396957,1.11708402633667,122.185024013519,3,right,1.09506678581238,122.183219423294,604.479745140076,607.239745140076,1629996194.86879,1629996194.87205,1629996201.53795,1629996201.53946,1629996203.63873,1629996209.10744,1629996209.10886,1629996210.22633,1629996210.22452,1629996692.52105,0
52,4,2,3,7,7,1,c1_WhyFace,1,proud?,103,F_618.jpg,1629996085.2813,1629996085.28362,106.827492465973,6.66247344017029,113.496646633148,115.597430696487,0.3,122.500004043579,0.716933965682983,123.218600025177,1,left,0.704283952713013,123.216938009262,604.479745140076,607.239745140076,1629996194.86879,1629996194.87205,1629996201.53795,1629996201.53946,1629996203.63873,1629996210.54131,1629996210.54288,1629996211.2599,1629996211.25824,1629996692.52105,1
52,4,2,3,7,8,1,c1_WhyFace,1,proud?,99,F_695.jpg,1629996085.2813,1629996085.28362,106.827492465973,6.66247344017029,113.496646633148,115.597430696487,0.3,123.533721914291,0.983700752258301,124.518526067734,1,left,0.970553159713745,124.51742266655,604.479745140076,607.239745140076,1629996194.86879,1629996194.87205,1629996201.53795,1629996201.53946,1629996203.63873,1629996211.57502,1629996211.57651,1629996212.55983,1629996212.55872,1629996692.52105,1
52,4,2,3,8,1,3,c3_HowFace,1,looking to side?,72,F_590.jpg,1629996085.2813,1629996085.28362,124.58411406517,6.43584895133972,131.036520233154,133.137304058075,2.10078382492065,133.287359704971,0.81697154045105,134.10536693573,1,left,0.79623007774353,134.104331245422,604.479745140076,607.239745140076,1629996212.62542,1629996212.62683,1629996219.07782,1629996219.07985,1629996221.17861,1629996221.32866,1629996221.33061,1629996222.14667,1629996222.14563,1629996692.52105,1
52,4,2,3,8,2,3,c3_HowFace,1,looking to side?,71,F_433.jpg,1629996085.2813,1629996085.28362,124.58411406517,6.43584895133972,131.036520233154,133.137304058075,0.3,134.421116104126,0.716934204101562,135.139554014206,1,left,0.695111036300659,135.138050308228,604.479745140076,607.239745140076,1629996212.62542,1629996212.62683,1629996219.07782,1629996219.07985,1629996221.17861,1629996222.46242,1629996222.46422,1629996223.18086,1629996223.17935,1629996692.52105,1
52,4,2,3,8,3,3,c3_HowFace,1,looking to side?,67,F_716.jpg,1629996085.2813,1629996085.28362,124.58411406517,6.43584895133972,131.036520233154,133.137304058075,0.3,135.454835166931,0.53353214263916,135.997826089859,1,left,0.517580032348633,135.98836730957,604.479745140076,607.239745140076,1629996212.62542,1629996212.62683,1629996219.07782,1629996219.07985,1629996221.17861,1629996223.49614,1629996223.49804,1629996224.03913,1629996224.02967,1629996692.52105,1
52,4,2,3,8,4,3,c3_HowFace,2,looking to side?,70,F_779.jpg,1629996085.2813,1629996085.28362,124.58411406517,6.43584895133972,131.036520233154,133.137304058075,0.3,136.305152645111,0.750279426574707,137.056480875015,1,left,0.729173898696899,137.055432071686,604.479745140076,607.239745140076,1629996212.62542,1629996212.62683,1629996219.07782,1629996219.07985,1629996221.17861,1629996224.34645,1629996224.34805,1629996225.09778,1629996225.09673,1629996692.52105,0
52,4,2,3,8,5,3,c3_HowFace,1,looking to side?,68,F_760.jpg,1629996085.2813,1629996085.28362,124.58411406517,6.43584895133972,131.036520233154,133.137304058075,0.3,137.372216453552,0.967027425765991,138.347752084732,1,left,0.955936193466187,138.339243879318,604.479745140076,607.239745140076,1629996212.62542,1629996212.62683,1629996219.07782,1629996219.07985,1629996221.17861,1629996225.41352,1629996225.41535,1629996226.38905,1629996226.38054,1629996692.52105,1
52,4,2,3,8,6,3,c3_HowFace,2,looking to side?,66,F_111.jpg,1629996085.2813,1629996085.28362,124.58411406517,6.43584895133972,131.036520233154,133.137304058075,0.3,138.656029453278,1.3004834651947,139.963702907562,3,right,1.29123306274414,139.956512918472,604.479745140076,607.239745140076,1629996212.62542,1629996212.62683,1629996219.07782,1629996219.07985,1629996221.17861,1629996226.69733,1629996226.69908,1629996228.005,1629996227.99781,1629996692.52105,0
52,4,2,3,8,7,3,c3_HowFace,1,looking to side?,69,F_110.jpg,1629996085.2813,1629996085.28362,124.58411406517,6.43584895133972,131.036520233154,133.137304058075,0.3,140.27329873085,1.00037264823914,141.275465955734,3,right,0.976837873458862,141.273671379089,604.479745140076,607.239745140076,1629996212.62542,1629996212.62683,1629996219.07782,1629996219.07985,1629996221.17861,1629996228.3146,1629996228.31611,1629996229.31677,1629996229.31497,1629996692.52105,0
52,4,2,3,8,8,3,c3_HowFace,2,looking to side?,65,F_798.jpg,1629996085.2813,1629996085.28362,124.58411406517,6.43584895133972,131.036520233154,133.137304058075,0.3,141.590455999374,0.800298690795898,142.391809930801,3,right,0.780519008636475,142.39075469017,604.479745140076,607.239745140076,1629996212.62542,1629996212.62683,1629996219.07782,1629996219.07985,1629996221.17861,1629996229.63176,1629996229.63368,1629996230.43311,1629996230.43206,1629996692.52105,0
52,4,2,3,9,1,1,c1_WhyFace,1,argument?,43,F_716.jpg,1629996085.2813,1629996085.28362,142.457446088791,7.67045497894287,150.143645277023,152.244430055618,2.10078477859497,152.394485464096,0.783625841140747,153.180535068512,1,left,0.763373851776123,153.178111305237,604.479745140076,607.239745140076,1629996230.49875,1629996230.50565,1629996238.18495,1629996238.18917,1629996240.28573,1629996240.43579,1629996240.43987,1629996241.22184,1629996241.21941,1629996692.52105,1
52,4,2,3,9,2,1,c1_WhyFace,2,argument?,44,F_139.jpg,1629996085.2813,1629996085.28362,142.457446088791,7.67045497894287,150.143645277023,152.244430055618,0.3,153.494896402359,0.700261354446411,154.196976890564,3,right,0.691354036331177,154.195157756805,604.479745140076,607.239745140076,1629996230.49875,1629996230.50565,1629996238.18495,1629996238.18917,1629996240.28573,1629996241.5362,1629996241.539,1629996242.23828,1629996242.23646,1629996692.52105,0
52,4,2,3,9,3,1,c1_WhyFace,1,argument?,41,F_712.jpg,1629996085.2813,1629996085.28362,142.457446088791,7.67045497894287,150.143645277023,152.244430055618,0.3,154.511942138672,0.683588266372681,155.197026004791,1,left,0.660600900650024,155.195530405045,604.479745140076,607.239745140076,1629996230.49875,1629996230.50565,1629996238.18495,1629996238.18917,1629996240.28573,1629996242.55324,1629996242.55531,1629996243.23833,1629996243.23683,1629996692.52105,1
52,4,2,3,9,4,1,c1_WhyFace,2,argument?,45,F_433.jpg,1629996085.2813,1629996085.28362,142.457446088791,7.67045497894287,150.143645277023,152.244430055618,0.3,155.512315502167,0.833643436431885,156.347508897781,3,right,0.823785066604614,156.345958938599,604.479745140076,607.239745140076,1629996230.49875,1629996230.50565,1629996238.18495,1629996238.18917,1629996240.28573,1629996243.55362,1629996243.55593,1629996244.38881,1629996244.38726,1629996692.52105,0
52,4,2,3,9,5,1,c1_WhyFace,1,argument?,42,F_403.jpg,1629996085.2813,1629996085.28362,142.457446088791,7.67045497894287,150.143645277023,152.244430055618,0.3,156.662744274139,0.700260877609253,157.364064922333,1,left,0.677541971206665,157.363005151749,604.479745140076,607.239745140076,1629996230.49875,1629996230.50565,1629996238.18495,1629996238.18917,1629996240.28573,1629996244.70405,1629996244.70549,1629996245.40537,1629996245.40431,1629996692.52105,1
52,4,2,3,9,6,1,c1_WhyFace,2,argument?,46,F_844.jpg,1629996085.2813,1629996085.28362,142.457446088791,7.67045497894287,150.143645277023,152.244430055618,0.3,157.679790725708,0.750279188156128,158.431087961197,3,right,0.735304832458496,158.430069913864,604.479745140076,607.239745140076,1629996230.49875,1629996230.50565,1629996238.18495,1629996238.18917,1629996240.28573,1629996245.72109,1629996245.7229,1629996246.47239,1629996246.47137,1629996692.52105,0
52,4,2,3,9,7,1,c1_WhyFace,1,argument?,47,F_743.jpg,1629996085.2813,1629996085.28362,142.457446088791,7.67045497894287,150.143645277023,152.244430055618,0.3,158.746854057312,0.600223541259766,159.348103990555,1,left,0.584216833114624,159.347077598572,604.479745140076,607.239745140076,1629996230.49875,1629996230.50565,1629996238.18495,1629996238.18917,1629996240.28573,1629996246.78816,1629996246.78969,1629996247.38941,1629996247.38838,1629996692.52105,1
52,4,2,3,9,8,1,c1_WhyFace,1,argument?,48,F_758.jpg,1629996085.2813,1629996085.28362,142.457446088791,7.67045497894287,150.143645277023,152.244430055618,0.3,159.663863172531,0.683588266372681,160.348519077301,1,left,0.665045022964478,160.347451438904,604.479745140076,607.239745140076,1629996230.49875,1629996230.50565,1629996238.18495,1629996238.18917,1629996240.28573,1629996247.70516,1629996247.7065,1629996248.38982,1629996248.38875,1629996692.52105,1
52,4,2,3,10,1,3,c3_HowFace,1,open mouth?,80,F_844.jpg,1629996085.2813,1629996085.28362,160.430816402435,7.53706860542297,167.983632555008,170.084416379929,2.10078382492065,170.234472503662,0.483513116836548,170.730560054779,1,left,0.47235107421875,170.717985620499,604.479745140076,607.239745140076,1629996248.47212,1629996248.47307,1629996256.02493,1629996256.02719,1629996258.12572,1629996258.27577,1629996258.27746,1629996258.77186,1629996258.75929,1629996692.52105,1
52,4,2,3,10,2,3,c3_HowFace,1,open mouth?,74,F_776.jpg,1629996085.2813,1629996085.28362,160.430816402435,7.53706860542297,167.983632555008,170.084416379929,0.3,171.034770240784,0.483514070510864,171.519300928116,1,left,0.464201927185059,171.518284311295,604.479745140076,607.239745140076,1629996248.47212,1629996248.47307,1629996256.02493,1629996256.02719,1629996258.12572,1629996259.07607,1629996259.0777,1629996259.5606,1629996259.55959,1629996692.52105,1
52,4,2,3,10,3,3,c3_HowFace,2,open mouth?,76,F_544.jpg,1629996085.2813,1629996085.28362,160.430816402435,7.53706860542297,167.983632555008,170.084416379929,0.3,171.835067977905,0.833644866943359,172.670056095123,3,right,0.818932056427002,172.668712844849,604.479745140076,607.239745140076,1629996248.47212,1629996248.47307,1629996256.02493,1629996256.02719,1629996258.12572,1629996259.87637,1629996259.87811,1629996260.71136,1629996260.71001,1629996692.52105,0
52,4,2,3,10,4,3,c3_HowFace,1,open mouth?,78,F_692.jpg,1629996085.2813,1629996085.28362,160.430816402435,7.53706860542297,167.983632555008,170.084416379929,0.3,172.985496988297,0.450169324874878,173.447666873932,1,left,0.436856031417847,173.435666313171,604.479745140076,607.239745140076,1629996248.47212,1629996248.47307,1629996256.02493,1629996256.02719,1629996258.12572,1629996261.0268,1629996261.02888,1629996261.48897,1629996261.47697,1629996692.52105,1
52,4,2,3,10,5,3,c3_HowFace,2,open mouth?,77,F_584.jpg,1629996085.2813,1629996085.28362,160.430816402435,7.53706860542297,167.983632555008,170.084416379929,0.3,173.752450218201,0.500187158584595,174.263724079132,3,right,0.490345001220703,174.252637376785,604.479745140076,607.239745140076,1629996248.47212,1629996248.47307,1629996256.02493,1629996256.02719,1629996258.12572,1629996261.79375,1629996261.79537,1629996262.30503,1629996262.29394,1629996692.52105,0
52,4,2,3,10,6,3,c3_HowFace,1,open mouth?,73,F_403.jpg,1629996085.2813,1629996085.28362,160.430816402435,7.53706860542297,167.983632555008,170.084416379929,0.3,174.569422235489,0.416821956634521,174.997062911987,1,left,0.410535097122192,174.986244192123,604.479745140076,607.239745140076,1629996248.47212,1629996248.47307,1629996256.02493,1629996256.02719,1629996258.12572,1629996262.61072,1629996262.61206,1629996263.03836,1629996263.02755,1629996692.52105,1
52,4,2,3,10,7,3,c3_HowFace,1,open mouth?,75,F_086.jpg,1629996085.2813,1629996085.28362,160.430816402435,7.53706860542297,167.983632555008,170.084416379929,0.3,175.303027858734,0.500187158584595,175.813729991913,1,left,0.491134881973267,175.803215017319,604.479745140076,607.239745140076,1629996248.47212,1629996248.47307,1629996256.02493,1629996256.02719,1629996258.12572,1629996263.34433,1629996263.34593,1629996263.85503,1629996263.84452,1629996692.52105,1
52,4,2,3,10,8,3,c3_HowFace,2,open mouth?,79,F_648.jpg,1629996085.2813,1629996085.28362,160.430816402435,7.53706860542297,167.983632555008,170.084416379929,0.3,176.12000035286,0.483512878417969,176.604572048187,3,right,0.467006921768188,176.603513231277,604.479745140076,607.239745140076,1629996248.47212,1629996248.47307,1629996256.02493,1629996256.02719,1629996258.12572,1629996264.1613,1629996264.16261,1629996264.64587,1629996264.64481,1629996692.52105,0
52,4,2,3,11,1,4,c4_HowHand,1,pressing button?,88,H_019.jpg,1629996085.2813,1629996085.28362,176.670205106735,9.18784284591675,185.873637189865,187.974421491623,2.10078430175781,188.124477138519,0.533532381057739,188.664107074738,1,left,0.526167869567871,188.658009519577,604.479745140076,607.239745140076,1629996264.71151,1629996264.72179,1629996273.91494,1629996273.9165,1629996276.01572,1629996276.16578,1629996276.16739,1629996276.70541,1629996276.69931,1629996692.52105,1
52,4,2,3,11,2,4,c4_HowHand,2,pressing button?,87,H_024.jpg,1629996085.2813,1629996085.28362,176.670205106735,9.18784284591675,185.873637189865,187.974421491623,0.3,188.974794616699,0.61689567565918,189.597060909271,3,right,0.607650995254517,189.591690292358,604.479745140076,607.239745140076,1629996264.71151,1629996264.72179,1629996273.91494,1629996273.9165,1629996276.01572,1629996277.0161,1629996277.01749,1629996277.63836,1629996277.63299,1629996692.52105,0
52,4,2,3,11,3,4,c4_HowHand,2,pressing button?,85,H_130.jpg,1629996085.2813,1629996085.28362,176.670205106735,9.18784284591675,185.873637189865,187.974421491623,0.3,189.908475151062,0.566878318786621,190.480501880646,3,right,0.550329923629761,190.475353469849,604.479745140076,607.239745140076,1629996264.71151,1629996264.72179,1629996273.91494,1629996273.9165,1629996276.01572,1629996277.94978,1629996277.95186,1629996278.5218,1629996278.51665,1629996692.52105,0
52,4,2,3,11,4,4,c4_HowHand,1,pressing button?,83,H_502.jpg,1629996085.2813,1629996085.28362,176.670205106735,9.18784284591675,185.873637189865,187.974421491623,0.3,190.792138566971,0.550205230712891,191.343782892227,1,left,0.528728008270264,191.342343797684,604.479745140076,607.239745140076,1629996264.71151,1629996264.72179,1629996273.91494,1629996273.9165,1629996276.01572,1629996278.83344,1629996278.83516,1629996279.38508,1629996279.38364,1629996692.52105,1
52,4,2,3,11,5,4,c4_HowHand,2,pressing button?,81,H_261.jpg,1629996085.2813,1629996085.28362,176.670205106735,9.18784284591675,185.873637189865,187.974421491623,0.3,191.65912817955,0.583550930023193,192.246987094879,3,right,0.575873136520386,192.242679109573,604.479745140076,607.239745140076,1629996264.71151,1629996264.72179,1629996273.91494,1629996273.9165,1629996276.01572,1629996279.70043,1629996279.70185,1629996280.28829,1629996280.28398,1629996692.52105,0
52,4,2,3,11,6,4,c4_HowHand,1,pressing button?,86,H_332.jpg,1629996085.2813,1629996085.28362,176.670205106735,9.18784284591675,185.873637189865,187.974421491623,0.3,192.559463968277,0.750279426574707,193.314359893799,1,left,0.736546039581299,193.309743394852,604.479745140076,607.239745140076,1629996264.71151,1629996264.72179,1629996273.91494,1629996273.9165,1629996276.01572,1629996280.60076,1629996280.60236,1629996281.35566,1629996281.35104,1629996692.52105,1
52,4,2,3,11,7,4,c4_HowHand,1,pressing button?,82,H_126.jpg,1629996085.2813,1629996085.28362,176.670205106735,9.18784284591675,185.873637189865,187.974421491623,0.3,193.626527299881,0.566878795623779,194.197031965256,1,left,0.546548843383789,194.193406095505,604.479745140076,607.239745140076,1629996264.71151,1629996264.72179,1629996273.91494,1629996273.9165,1629996276.01572,1629996281.66783,1629996281.67229,1629996282.23833,1629996282.23471,1629996692.52105,1
52,4,2,3,11,8,4,c4_HowHand,1,pressing button?,84,H_483.jpg,1629996085.2813,1629996085.28362,176.670205106735,9.18784284591675,185.873637189865,187.974421491623,0.3,194.510191431046,0.633569717407227,195.147674074173,1,left,0.612842082977295,195.143761148453,604.479745140076,607.239745140076,1629996264.71151,1629996264.72179,1629996273.91494,1629996273.9165,1629996276.01572,1629996282.55149,1629996282.55555,1629996283.18898,1629996283.18506,1629996692.52105,1
52,4,2,3,12,1,2,c2_WhyHand,1,competing?,9,H_261.jpg,1629996085.2813,1629996085.28362,195.243798484802,8.40408158302307,203.663605680466,205.764388313293,2.10078263282776,205.914443721771,0.750280857086182,206.665786018372,1,left,0.728713035583496,206.664724578857,604.479745140076,607.239745140076,1629996283.2851,1629996283.28892,1629996291.70491,1629996291.70686,1629996293.80569,1629996293.95574,1629996293.95739,1629996294.70709,1629996294.70603,1629996692.52105,1
52,4,2,3,12,2,2,c2_WhyHand,2,competing?,12,H_483.jpg,1629996085.2813,1629996085.28362,195.243798484802,8.40408158302307,203.663605680466,205.764388313293,0.3,206.981509199142,0.533531665802002,207.516126861572,3,right,0.5139479637146,207.515040864944,604.479745140076,607.239745140076,1629996283.2851,1629996283.28892,1629996291.70491,1629996291.70686,1629996293.80569,1629996295.02281,1629996295.02439,1629996295.55743,1629996295.55634,1629996692.52105,0
52,4,2,3,12,3,2,c2_WhyHand,1,competing?,14,H_132.jpg,1629996085.2813,1629996085.28362,195.243798484802,8.40408158302307,203.663605680466,205.764388313293,0.3,207.831826200485,0.566878318786621,208.4005219841,1,left,0.545475006103516,208.398704519272,604.479745140076,607.239745140076,1629996283.2851,1629996283.28892,1629996291.70491,1629996291.70686,1629996293.80569,1629996295.87313,1629996295.87474,1629996296.44182,1629996296.44001,1629996692.52105,1
52,4,2,3,12,4,2,c2_WhyHand,2,competing?,10,H_126.jpg,1629996085.2813,1629996085.28362,195.243798484802,8.40408158302307,203.663605680466,205.764388313293,0.3,208.715489377975,0.700259923934937,209.430793991089,3,right,0.690587043762207,209.41574930191,604.479745140076,607.239745140076,1629996283.2851,1629996283.28892,1629996291.70491,1629996291.70686,1629996293.80569,1629996296.75679,1629996296.75844,1629996297.4721,1629996297.45705,1629996692.52105,0
52,4,2,3,12,5,2,c2_WhyHand,1,competing?,16,H_136.jpg,1629996085.2813,1629996085.28362,195.243798484802,8.40408158302307,203.663605680466,205.764388313293,0.3,209.732533922195,0.733607053756714,210.467926969528,1,left,0.71390700340271,210.466140975952,604.479745140076,607.239745140076,1629996283.2851,1629996283.28892,1629996291.70491,1629996291.70686,1629996293.80569,1629996297.77383,1629996297.77556,1629996298.50923,1629996298.50744,1629996692.52105,1
52,4,2,3,12,6,2,c2_WhyHand,2,competing?,11,H_502.jpg,1629996085.2813,1629996085.28362,195.243798484802,8.40408158302307,203.663605680466,205.764388313293,0.3,210.782926073074,0.583551406860352,211.368249883652,3,right,0.561190128326416,211.366477479935,604.479745140076,607.239745140076,1629996283.2851,1629996283.28892,1629996291.70491,1629996291.70686,1629996293.80569,1629996298.82423,1629996298.82616,1629996299.40955,1629996299.40778,1629996692.52105,0
52,4,2,3,12,7,2,c2_WhyHand,1,competing?,13,H_003.jpg,1629996085.2813,1629996085.28362,195.243798484802,8.40408158302307,203.663605680466,205.764388313293,0.3,211.683262338638,0.583550930023193,212.26799487114,1,left,0.563256025314331,212.266813268662,604.479745140076,607.239745140076,1629996283.2851,1629996283.28892,1629996291.70491,1629996291.70686,1629996293.80569,1629996299.72456,1629996299.72616,1629996300.3093,1629996300.30811,1629996692.52105,1
52,4,2,3,12,8,2,c2_WhyHand,1,competing?,15,H_170.jpg,1629996085.2813,1629996085.28362,195.243798484802,8.40408158302307,203.663605680466,205.764388313293,0.3,212.583598365784,0.500185489654541,213.085201015472,1,left,0.482712030410767,213.083783855438,604.479745140076,607.239745140076,1629996283.2851,1629996283.28892,1629996291.70491,1629996291.70686,1629996293.80569,1629996300.6249,1629996300.62645,1629996301.1265,1629996301.12508,1629996692.52105,1
52,4,2,3,13,1,1,c1_WhyFace,1,self-doubt?,29,F_544.jpg,1629996085.2813,1629996085.28362,213.150475730896,8.56760835647583,221.737011423111,223.821122636795,2.08411121368408,223.971178283691,0.666915416717529,224.647090902329,1,left,0.643609046936035,224.638093700409,604.479745140076,607.239745140076,1629996301.19178,1629996301.19309,1629996309.77831,1629996309.78011,1629996311.86242,1629996312.01248,1629996312.0222,1629996312.68839,1629996312.67939,1629996692.52105,1
52,4,2,3,13,2,1,c1_WhyFace,2,self-doubt?,27,F_086.jpg,1629996085.2813,1629996085.28362,213.150475730896,8.56760835647583,221.737011423111,223.821122636795,0.3,224.954878559113,0.500187158584595,225.456057062149,3,right,0.479166984558105,225.455065717697,604.479745140076,607.239745140076,1629996301.19178,1629996301.19309,1629996309.77831,1629996309.78011,1629996311.86242,1629996312.99618,1629996312.99725,1629996313.49736,1629996313.49637,1629996692.52105,0
52,4,2,3,13,3,1,c1_WhyFace,1,self-doubt?,25,F_798.jpg,1629996085.2813,1629996085.28362,213.150475730896,8.56760835647583,221.737011423111,223.821122636795,0.3,225.771849145889,0.450168132781982,226.230453004837,1,left,0.442003011703491,226.222017278671,604.479745140076,607.239745140076,1629996301.19178,1629996301.19309,1629996309.77831,1629996309.78011,1629996311.86242,1629996313.81315,1629996313.81427,1629996314.27175,1629996314.26332,1629996692.52105,1
52,4,2,3,13,4,1,c1_WhyFace,1,self-doubt?,26,F_111.jpg,1629996085.2813,1629996085.28362,213.150475730896,8.56760835647583,221.737011423111,223.821122636795,0.3,226.538802137375,0.550205230712891,227.090678920746,1,left,0.530998945236206,227.089007368088,604.479745140076,607.239745140076,1629996301.19178,1629996301.19309,1629996309.77831,1629996309.78011,1629996311.86242,1629996314.5801,1629996314.58186,1629996315.13198,1629996315.13031,1629996692.52105,1
52,4,2,3,13,5,1,c1_WhyFace,2,self-doubt?,31,F_774.jpg,1629996085.2813,1629996085.28362,213.150475730896,8.56760835647583,221.737011423111,223.821122636795,0.3,227.405792226791,0.583550453186035,227.990438928604,3,right,0.566729068756104,227.989342679977,604.479745140076,607.239745140076,1629996301.19178,1629996301.19309,1629996309.77831,1629996309.78011,1629996311.86242,1629996315.44709,1629996315.4486,1629996316.03174,1629996316.03064,1629996692.52105,0
52,4,2,3,13,6,1,c1_WhyFace,1,self-doubt?,28,F_754.jpg,1629996085.2813,1629996085.28362,213.150475730896,8.56760835647583,221.737011423111,223.821122636795,0.3,228.306128492355,0.750279188156128,229.057851066589,1,left,0.728377103805542,229.056407680511,604.479745140076,607.239745140076,1629996301.19178,1629996301.19309,1629996309.77831,1629996309.78011,1629996311.86242,1629996316.34743,1629996316.34854,1629996317.09915,1629996317.09771,1629996692.52105,1
52,4,2,3,13,7,1,c1_WhyFace,2,self-doubt?,32,F_128.jpg,1629996085.2813,1629996085.28362,213.150475730896,8.56760835647583,221.737011423111,223.821122636795,0.3,229.373192062378,0.750280380249023,230.125139942169,3,right,0.725872039794922,230.123472442627,604.479745140076,607.239745140076,1629996301.19178,1629996301.19309,1629996309.77831,1629996309.78011,1629996311.86242,1629996317.41449,1629996317.41639,1629996318.16644,1629996318.16477,1629996692.52105,0
52,4,2,3,13,8,1,c1_WhyFace,1,self-doubt?,30,F_584.jpg,1629996085.2813,1629996085.28362,213.150475730896,8.56760835647583,221.737011423111,223.821122636795,0.3,230.440255870819,0.450169563293457,230.891428937912,1,left,0.429721117019653,230.890425434113,604.479745140076,607.239745140076,1629996301.19178,1629996301.19309,1629996309.77831,1629996309.78011,1629996311.86242,1629996318.48156,1629996318.48354,1629996318.93273,1629996318.93173,1629996692.52105,1
52,4,2,3,14,1,3,c3_HowFace,1,looking at camera?,64,F_128.jpg,1629996085.2813,1629996085.28362,230.97378944397,9.7981276512146,240.777446975708,242.87822889328,2.10078191757202,243.028285255432,0.516858577728271,243.547484865189,1,left,0.49970006942749,243.54514383316,604.479745140076,607.239745140076,1629996319.01509,1629996319.02234,1629996328.81875,1629996328.82236,1629996330.91953,1629996331.06959,1629996331.07291,1629996331.58879,1629996331.58644,1629996692.52105,1
52,4,2,3,14,2,3,c3_HowFace,1,looking at camera?,60,F_618.jpg,1629996085.2813,1629996085.28362,230.97378944397,9.7981276512146,240.777446975708,242.87822889328,0.3,243.86192940712,0.433495044708252,244.297458877563,1,left,0.42336106300354,244.295424451828,604.479745140076,607.239745140076,1629996319.01509,1629996319.02234,1629996328.81875,1629996328.82236,1629996330.91953,1629996331.90323,1629996331.90557,1629996332.33876,1629996332.33673,1629996692.52105,1
52,4,2,3,14,3,3,c3_HowFace,1,looking at camera?,62,F_598.jpg,1629996085.2813,1629996085.28362,230.97378944397,9.7981276512146,240.777446975708,242.87822889328,0.3,244.612208595276,0.483514308929443,245.097286930084,1,left,0.466206073760986,245.095722904205,604.479745140076,607.239745140076,1629996319.01509,1629996319.02234,1629996328.81875,1629996328.82236,1629996330.91953,1629996332.65351,1629996332.6559,1629996333.13859,1629996333.13702,1629996692.52105,1
52,4,2,3,14,4,3,c3_HowFace,2,looking at camera?,63,F_743.jpg,1629996085.2813,1629996085.28362,230.97378944397,9.7981276512146,240.777446975708,242.87822889328,0.3,245.412507762909,0.500186681747437,245.914416065216,3,right,0.482924938201904,245.912694444656,604.479745140076,607.239745140076,1629996319.01509,1629996319.02234,1629996328.81875,1629996328.82236,1629996330.91953,1629996333.45381,1629996333.45595,1629996333.95572,1629996333.954,1629996692.52105,0
52,4,2,3,14,5,3,c3_HowFace,1,looking at camera?,61,F_774.jpg,1629996085.2813,1629996085.28362,230.97378944397,9.7981276512146,240.777446975708,242.87822889328,0.3,246.229478826523,0.450167655944824,246.680579891205,1,left,0.441086053848267,246.679646482468,604.479745140076,607.239745140076,1629996319.01509,1629996319.02234,1629996328.81875,1629996328.82236,1629996330.91953,1629996334.27078,1629996334.27267,1629996334.72188,1629996334.72095,1629996692.52105,1
52,4,2,3,14,6,3,c3_HowFace,2,looking at camera?,57,F_582.jpg,1629996085.2813,1629996085.28362,230.97378944397,9.7981276512146,240.777446975708,242.87822889328,0.3,246.996430864334,0.733607292175293,247.731540908813,3,right,0.724704027175903,247.730038156509,604.479745140076,607.239745140076,1629996319.01509,1629996319.02234,1629996328.81875,1629996328.82236,1629996330.91953,1629996335.03773,1629996335.03932,1629996335.77284,1629996335.77134,1629996692.52105,0
52,4,2,3,14,7,3,c3_HowFace,2,looking at camera?,58,F_754.jpg,1629996085.2813,1629996085.28362,230.97378944397,9.7981276512146,240.777446975708,242.87822889328,0.3,248.046822776794,0.58355188369751,248.631922950745,3,right,0.569330930709839,248.630374660492,604.479745140076,607.239745140076,1629996319.01509,1629996319.02234,1629996328.81875,1629996328.82236,1629996330.91953,1629996336.08812,1629996336.08965,1629996336.67322,1629996336.67168,1629996692.52105,0
52,4,2,3,14,8,3,c3_HowFace,1,looking at camera?,59,F_129.jpg,1629996085.2813,1629996085.28362,230.97378944397,9.7981276512146,240.777446975708,242.87822889328,0.3,248.947159042358,0.566878080368042,249.51564907074,1,left,0.556368112564087,249.514037122726,604.479745140076,607.239745140076,1629996319.01509,1629996319.02234,1629996328.81875,1629996328.82236,1629996330.91953,1629996336.98846,1629996336.99008,1629996337.55695,1629996337.55534,1629996692.52105,1
52,4,2,3,15,1,4,c4_HowHand,1,both hands?,123,H_167.jpg,1629996085.2813,1629996085.28362,249.580728521347,9.98126435279846,259.567786207199,261.668569078445,2.10078287124634,261.818626394272,0.917007923126221,262.747607936859,1,left,0.893360137939453,262.735634317398,604.479745140076,607.239745140076,1629996337.62203,1629996337.62318,1629996347.60909,1629996347.62258,1629996349.70987,1629996349.85993,1629996349.87263,1629996350.78891,1629996350.77694,1629996692.52105,1
52,4,2,3,15,2,4,c4_HowHand,2,both hands?,121,H_091.jpg,1629996085.2813,1629996085.28362,249.580728521347,9.98126435279846,259.567786207199,261.668569078445,0.3,263.05241941452,0.833643674850464,263.887108078003,3,right,0.819595813751221,263.886063089371,604.479745140076,607.239745140076,1629996337.62203,1629996337.62318,1629996347.60909,1629996347.62258,1629996349.70987,1629996351.09372,1629996351.09556,1629996351.92841,1629996351.92736,1629996692.52105,0
52,4,2,3,15,3,4,c4_HowHand,2,both hands?,125,H_627.jpg,1629996085.2813,1629996085.28362,249.580728521347,9.98126435279846,259.567786207199,261.668569078445,0.3,264.202848424912,0.750279426574707,264.954276075363,3,right,0.735689878463745,264.953127851486,604.479745140076,607.239745140076,1629996337.62203,1629996337.62318,1629996347.60909,1629996347.62258,1629996349.70987,1629996352.24415,1629996352.24585,1629996352.99558,1629996352.99443,1629996692.52105,0
52,4,2,3,15,4,4,c4_HowHand,1,both hands?,128,H_027.jpg,1629996085.2813,1629996085.28362,249.580728521347,9.98126435279846,259.567786207199,261.668569078445,0.3,265.269912948608,0.716934442520142,265.988118877411,1,left,0.700019121170044,265.986847391129,604.479745140076,607.239745140076,1629996337.62203,1629996337.62318,1629996347.60909,1629996347.62258,1629996349.70987,1629996353.31121,1629996353.31288,1629996354.02942,1629996354.02815,1629996692.52105,1
52,4,2,3,15,5,4,c4_HowHand,1,both hands?,122,H_111.jpg,1629996085.2813,1629996085.28362,249.580728521347,9.98126435279846,259.567786207199,261.668569078445,0.3,266.303631296158,0.733607292175293,267.039063920975,1,left,0.716624021530151,267.037238588333,604.479745140076,607.239745140076,1629996337.62203,1629996337.62318,1629996347.60909,1629996347.62258,1629996349.70987,1629996354.34493,1629996354.34667,1629996355.08036,1629996355.07854,1629996692.52105,1
52,4,2,3,15,6,4,c4_HowHand,2,both hands?,126,H_159.jpg,1629996085.2813,1629996085.28362,249.580728521347,9.98126435279846,259.567786207199,261.668569078445,0.3,267.354023447037,0.700260400772095,268.056020965576,3,right,0.678032159805298,268.054283847809,604.479745140076,607.239745140076,1629996337.62203,1629996337.62318,1629996347.60909,1629996347.62258,1629996349.70987,1629996355.39532,1629996355.39689,1629996356.09732,1629996356.09558,1629996692.52105,0
52,4,2,3,15,7,4,c4_HowHand,1,both hands?,124,H_581.jpg,1629996085.2813,1629996085.28362,249.580728521347,9.98126435279846,259.567786207199,261.668569078445,0.3,268.371068944931,1.03371953964233,269.414195051193,1,left,1.02165198326111,269.404788484573,604.479745140076,607.239745140076,1629996337.62203,1629996337.62318,1629996347.60909,1629996347.62258,1629996349.70987,1629996356.41237,1629996356.41407,1629996357.4555,1629996357.44609,1629996692.52105,1
52,4,2,3,15,8,4,c4_HowHand,1,both hands?,127,H_349.jpg,1629996085.2813,1629996085.28362,249.580728521347,9.98126435279846,259.567786207199,261.668569078445,0.3,269.721573104858,0.566877841949463,270.297041883469,1,left,0.559644937515259,270.288450946808,604.479745140076,607.239745140076,1629996337.62203,1629996337.62318,1629996347.60909,1629996347.62258,1629996349.70987,1629996357.76287,1629996357.76485,1629996358.33834,1629996358.32975,1629996692.52105,1
52,4,2,3,16,1,2,c2_WhyHand,1,self-protection?,89,H_443.jpg,1629996085.2813,1629996085.28362,270.371815195084,7.98007583618164,278.358127822876,280.458910217285,2.10078239440918,280.608965864182,0.700261116027832,281.314333906174,1,left,0.687665939331055,281.309226980209,604.479745140076,607.239745140076,1629996358.41312,1629996358.41514,1629996366.39943,1629996366.40587,1629996368.50021,1629996368.65027,1629996368.65658,1629996369.35563,1629996369.35053,1629996692.52105,1
52,4,2,3,16,2,2,c2_WhyHand,2,self-protection?,90,H_006.jpg,1629996085.2813,1629996085.28362,270.371815195084,7.98007583618164,278.358127822876,280.458910217285,0.3,281.62601231575,0.716933727264404,282.34396194458,3,right,0.69641900062561,282.342946043015,604.479745140076,607.239745140076,1629996358.41312,1629996358.41514,1629996366.39943,1629996366.40587,1629996368.50021,1629996369.66731,1629996369.66867,1629996370.38526,1629996370.38425,1629996692.52105,0
52,4,2,3,16,3,2,c2_WhyHand,1,self-protection?,91,H_581.jpg,1629996085.2813,1629996085.28362,270.371815195084,7.98007583618164,278.358127822876,280.458910217285,0.3,282.659731855392,0.566877126693726,283.230489006042,1,left,0.553855895996094,283.226608982086,604.479745140076,607.239745140076,1629996358.41312,1629996358.41514,1629996366.39943,1629996366.40587,1629996368.50021,1629996370.70103,1629996370.70566,1629996371.27179,1629996371.26791,1629996692.52105,1
52,4,2,3,16,4,2,c2_WhyHand,2,self-protection?,92,H_532.jpg,1629996085.2813,1629996085.28362,270.371815195084,7.98007583618164,278.358127822876,280.458910217285,0.3,283.543394556046,0.866988658905029,284.41142701149,3,right,0.842910051345825,284.410383214951,604.479745140076,607.239745140076,1629996358.41312,1629996358.41514,1629996366.39943,1629996366.40587,1629996368.50021,1629996371.5847,1629996371.58893,1629996372.45273,1629996372.45168,1629996692.52105,0
52,4,2,3,16,5,2,c2_WhyHand,1,self-protection?,96,H_027.jpg,1629996085.2813,1629996085.28362,270.371815195084,7.98007583618164,278.358127822876,280.458910217285,0.3,284.727167596817,1.05039286613464,285.780365934372,1,left,1.03429007530212,285.777560462952,604.479745140076,607.239745140076,1629996358.41312,1629996358.41514,1629996366.39943,1629996366.40587,1629996368.50021,1629996372.76847,1629996372.77232,1629996373.82167,1629996373.81886,1629996692.52105,1
52,4,2,3,16,6,2,c2_WhyHand,1,self-protection?,93,H_038.jpg,1629996085.2813,1629996085.28362,270.371815195084,7.98007583618164,278.358127822876,280.458910217285,0.3,286.094345321655,0.783625841140747,286.881191959381,1,left,0.762836933135986,286.877971162796,604.479745140076,607.239745140076,1629996358.41312,1629996358.41514,1629996366.39943,1629996366.40587,1629996368.50021,1629996374.13565,1629996374.13904,1629996374.92249,1629996374.91927,1629996692.52105,1
52,4,2,3,16,7,2,c2_WhyHand,2,self-protection?,95,H_332.jpg,1629996085.2813,1629996085.28362,270.371815195084,7.98007583618164,278.358127822876,280.458910217285,0.3,287.194754590988,0.666917324066162,287.863652935028,3,right,0.655805110931396,287.861671915054,604.479745140076,607.239745140076,1629996358.41312,1629996358.41514,1629996366.39943,1629996366.40587,1629996368.50021,1629996375.23606,1629996375.2387,1629996375.90495,1629996375.90297,1629996692.52105,0
52,4,2,3,16,8,2,c2_WhyHand,1,self-protection?,94,H_189.jpg,1629996085.2813,1629996085.28362,270.371815195084,7.98007583618164,278.358127822876,280.458910217285,0.3,288.178455581665,0.716933250427246,288.897903909683,1,left,0.700811147689819,288.895388832092,604.479745140076,607.239745140076,1629996358.41312,1629996358.41514,1629996366.39943,1629996366.40587,1629996368.50021,1629996376.21976,1629996376.22233,1629996376.9392,1629996376.93669,1629996692.52105,1
52,4,2,3,17,1,3,c3_HowFace,1,smiling?,118,F_759.jpg,1629996085.2813,1629996085.28362,288.962081661224,10.8698754310608,299.849474658966,301.950258483887,2.10078382492065,302.100313892365,0.533532381057739,302.634798994064,1,left,0.52214503288269,302.633846273422,604.479745140076,607.239745140076,1629996377.00338,1629996377.00492,1629996387.89078,1629996387.893,1629996389.99156,1629996390.14161,1629996390.14347,1629996390.6761,1629996390.67515,1629996692.52105,1
52,4,2,3,17,2,3,c3_HowFace,2,smiling?,114,F_412.jpg,1629996085.2813,1629996085.28362,288.962081661224,10.8698754310608,299.849474658966,301.950258483887,0.3,302.950631132126,0.583551168441772,303.535214891434,3,right,0.566467046737671,303.534182300568,604.479745140076,607.239745140076,1629996377.00338,1629996377.00492,1629996387.89078,1629996387.893,1629996389.99156,1629996390.99193,1629996390.99355,1629996391.57652,1629996391.57548,1629996692.52105,0
52,4,2,3,17,3,3,c3_HowFace,1,smiling?,117,F_593.jpg,1629996085.2813,1629996085.28362,288.962081661224,10.8698754310608,299.849474658966,301.950258483887,0.3,303.850966920853,0.533532381057739,304.385544052124,1,left,0.518911838531494,304.38449930191,604.479745140076,607.239745140076,1629996377.00338,1629996377.00492,1629996387.89078,1629996387.893,1629996389.99156,1629996391.89227,1629996391.89387,1629996392.42685,1629996392.4258,1629996692.52105,1
52,4,2,3,17,4,3,c3_HowFace,2,smiling?,113,F_712.jpg,1629996085.2813,1629996085.28362,288.962081661224,10.8698754310608,299.849474658966,301.950258483887,0.3,304.701284399033,0.650242805480957,305.363840093613,3,right,0.637717008590698,305.351527204514,604.479745140076,607.239745140076,1629996377.00338,1629996377.00492,1629996387.89078,1629996387.893,1629996389.99156,1629996392.74259,1629996392.74455,1629996393.40514,1629996393.39283,1629996692.52105,0
52,4,2,3,17,5,3,c3_HowFace,1,smiling?,115,F_695.jpg,1629996085.2813,1629996085.28362,288.962081661224,10.8698754310608,299.849474658966,301.950258483887,0.3,305.668311347961,0.51685905456543,306.187046995163,1,left,0.499897003173828,306.185170402527,604.479745140076,607.239745140076,1629996377.00338,1629996377.00492,1629996387.89078,1629996387.893,1629996389.99156,1629996393.70961,1629996393.71131,1629996394.22835,1629996394.22647,1629996692.52105,1
52,4,2,3,17,6,3,c3_HowFace,1,smiling?,119,F_139.jpg,1629996085.2813,1629996085.28362,288.962081661224,10.8698754310608,299.849474658966,301.950258483887,0.3,306.501955976486,0.616895914077759,307.119968881607,1,left,0.600322961807251,307.118851890564,604.479745140076,607.239745140076,1629996377.00338,1629996377.00492,1629996387.89078,1629996387.893,1629996389.99156,1629996394.54326,1629996394.54466,1629996395.16127,1629996395.16015,1629996692.52105,1
52,4,2,3,17,7,3,c3_HowFace,1,smiling?,116,F_083.jpg,1629996085.2813,1629996085.28362,288.962081661224,10.8698754310608,299.849474658966,301.950258483887,0.3,307.435637464523,0.500185489654541,307.937356939316,1,left,0.478618144989014,307.935822954178,604.479745140076,607.239745140076,1629996377.00338,1629996377.00492,1629996387.89078,1629996387.893,1629996389.99156,1629996395.47694,1629996395.47845,1629996395.97866,1629996395.97712,1629996692.52105,1
52,4,2,3,17,8,3,c3_HowFace,2,smiling?,120,F_758.jpg,1629996085.2813,1629996085.28362,288.962081661224,10.8698754310608,299.849474658966,301.950258483887,0.3,308.252608289719,0.600224494934082,308.854521980286,3,right,0.578707933425903,308.852832784653,604.479745140076,607.239745140076,1629996377.00338,1629996377.00492,1629996387.89078,1629996387.893,1629996389.99156,1629996396.29391,1629996396.29588,1629996396.89582,1629996396.89413,1629996692.52105,0
52,4,2,3,18,1,1,c1_WhyFace,1,admiring?,1,F_593.jpg,1629996085.2813,1629996085.28362,308.936195840836,8.68567609786987,317.63944267273,319.740225067139,2.10078239440918,319.890281190872,0.633570194244385,320.530924072266,1,left,0.620271921157837,320.523851385117,604.479745140076,607.239745140076,1629996396.9775,1629996396.97908,1629996405.68074,1629996405.68254,1629996407.78153,1629996407.93158,1629996407.93353,1629996408.57223,1629996408.56515,1629996692.52105,1
52,4,2,3,18,2,1,c1_WhyFace,2,admiring?,2,F_129.jpg,1629996085.2813,1629996085.28362,308.936195840836,8.68567609786987,317.63944267273,319.740225067139,0.3,320.840636482239,0.700260639190674,321.542655935287,3,right,0.676965951919556,321.540897121429,604.479745140076,607.239745140076,1629996396.9775,1629996396.97908,1629996405.68074,1629996405.68254,1629996407.78153,1629996408.88194,1629996408.8837,1629996409.58396,1629996409.5822,1629996692.52105,0
52,4,2,3,18,3,1,c1_WhyFace,1,admiring?,5,F_759.jpg,1629996085.2813,1629996085.28362,308.936195840836,8.68567609786987,317.63944267273,319.740225067139,0.3,321.857681980133,0.500186681747437,322.364085903168,1,left,0.49181604385376,322.357868661881,604.479745140076,607.239745140076,1629996396.9775,1629996396.97908,1629996405.68074,1629996405.68254,1629996407.78153,1629996409.89898,1629996409.90047,1629996410.40539,1629996410.39917,1629996692.52105,1
52,4,2,3,18,4,1,c1_WhyFace,2,admiring?,6,F_692.jpg,1629996085.2813,1629996085.28362,308.936195840836,8.68567609786987,317.63944267273,319.740225067139,0.3,322.674653282166,0.633570194244385,323.314430942535,3,right,0.617904186248779,323.30822347641,604.479745140076,607.239745140076,1629996396.9775,1629996396.97908,1629996405.68074,1629996405.68254,1629996407.78153,1629996410.71595,1629996410.71762,1629996411.35573,1629996411.34952,1629996692.52105,0
52,4,2,3,18,5,1,c1_WhyFace,1,admiring?,4,F_779.jpg,1629996085.2813,1629996085.28362,308.936195840836,8.68567609786987,317.63944267273,319.740225067139,0.3,323.625008096695,0.583549976348877,324.213998069763,1,left,0.574141025543213,324.208558073044,604.479745140076,607.239745140076,1629996396.9775,1629996396.97908,1629996405.68074,1629996405.68254,1629996407.78153,1629996411.66631,1629996411.66796,1629996412.2553,1629996412.24986,1629996692.52105,1
52,4,2,3,18,6,1,c1_WhyFace,1,admiring?,8,F_590.jpg,1629996085.2813,1629996085.28362,308.936195840836,8.68567609786987,317.63944267273,319.740225067139,0.3,324.525344839096,0.50018572807312,325.030803909302,1,left,0.487017869949341,325.025530567169,604.479745140076,607.239745140076,1629996396.9775,1629996396.97908,1629996405.68074,1629996405.68254,1629996407.78153,1629996412.56665,1629996412.56817,1629996413.0721,1629996413.06683,1629996692.52105,1
52,4,2,3,18,7,1,c1_WhyFace,1,admiring?,7,F_648.jpg,1629996085.2813,1629996085.28362,308.936195840836,8.68567609786987,317.63944267273,319.740225067139,0.3,325.342314949036,0.766953229904175,326.113761892319,1,left,0.748588800430298,326.10926817894,604.479745140076,607.239745140076,1629996396.9775,1629996396.97908,1629996405.68074,1629996405.68254,1629996407.78153,1629996413.38362,1629996413.38516,1629996414.15506,1629996414.15057,1629996692.52105,1
52,4,2,3,18,8,1,c1_WhyFace,2,admiring?,3,F_110.jpg,1629996085.2813,1629996085.28362,308.936195840836,8.68567609786987,317.63944267273,319.740225067139,0.3,326.426052083969,0.783625841140747,327.21450709343,3,right,0.763995885848999,327.20967792511,604.479745140076,607.239745140076,1629996396.9775,1629996396.97908,1629996405.68074,1629996405.68254,1629996407.78153,1629996414.46735,1629996414.46886,1629996415.25581,1629996415.25098,1629996692.52105,0
52,4,2,3,19,1,2,c2_WhyHand,1,competing?,9,H_261.jpg,1629996085.2813,1629996085.28362,327.293042411804,8.21891355514526,335.529447546005,337.630231132507,2.10078358650208,337.780286779404,0.516859531402588,338.298099985123,1,left,0.506465911865234,338.297146310806,604.479745140076,607.239745140076,1629996415.33434,1629996415.33908,1629996423.57075,1629996423.57289,1629996425.67153,1629996425.82159,1629996425.82327,1629996426.3394,1629996426.33845,1629996692.52105,1
52,4,2,3,19,2,2,c2_WhyHand,1,competing?,15,H_170.jpg,1629996085.2813,1629996085.28362,327.293042411804,8.21891355514526,335.529447546005,337.630231132507,0.3,338.613930931091,0.566878795623779,339.182600011826,1,left,0.550952911376953,339.180809726715,604.479745140076,607.239745140076,1629996415.33434,1629996415.33908,1629996423.57075,1629996423.57289,1629996425.67153,1629996426.65523,1629996426.65681,1629996427.2239,1629996427.22211,1629996692.52105,1
52,4,2,3,19,3,2,c2_WhyHand,2,competing?,12,H_483.jpg,1629996085.2813,1629996085.28362,327.293042411804,8.21891355514526,335.529447546005,337.630231132507,0.3,339.497594347,0.51685905456543,340.015464057922,3,right,0.500188827514648,340.014453401566,604.479745140076,607.239745140076,1629996415.33434,1629996415.33908,1629996423.57075,1629996423.57289,1629996425.67153,1629996427.5389,1629996427.54064,1629996428.05677,1629996428.05575,1629996692.52105,0
52,4,2,3,19,4,2,c2_WhyHand,1,competing?,14,H_132.jpg,1629996085.2813,1629996085.28362,327.293042411804,8.21891355514526,335.529447546005,337.630231132507,0.3,340.331237783432,0.500186681747437,340.832810869217,1,left,0.485877990722656,340.831424465179,604.479745140076,607.239745140076,1629996415.33434,1629996415.33908,1629996423.57075,1629996423.57289,1629996425.67153,1629996428.37254,1629996428.3741,1629996428.87411,1629996428.87273,1629996692.52105,1
52,4,2,3,19,5,2,c2_WhyHand,1,competing?,16,H_136.jpg,1629996085.2813,1629996085.28362,327.293042411804,8.21891355514526,335.529447546005,337.630231132507,0.3,341.14820980072,0.51685905456543,341.666184892654,1,left,0.49511981010437,341.665068855286,604.479745140076,607.239745140076,1629996415.33434,1629996415.33908,1629996423.57075,1629996423.57289,1629996425.67153,1629996429.18951,1629996429.19102,1629996429.70749,1629996429.70637,1629996692.52105,1
52,4,2,3,19,6,2,c2_WhyHand,1,competing?,13,H_003.jpg,1629996085.2813,1629996085.28362,327.293042411804,8.21891355514526,335.529447546005,337.630231132507,0.3,341.981852998734,0.500187397003174,342.483185043335,1,left,0.477959871292114,342.482040395737,604.479745140076,607.239745140076,1629996415.33434,1629996415.33908,1629996423.57075,1629996423.57289,1629996425.67153,1629996430.02315,1629996430.02468,1629996430.52449,1629996430.52334,1629996692.52105,1
52,4,2,3,19,7,2,c2_WhyHand,2,competing?,10,H_126.jpg,1629996085.2813,1629996085.28362,327.293042411804,8.21891355514526,335.529447546005,337.630231132507,0.3,342.798825731277,0.600223064422607,343.414411058426,3,right,0.591831922531128,343.3990487957,604.479745140076,607.239745140076,1629996415.33434,1629996415.33908,1629996423.57075,1629996423.57289,1629996425.67153,1629996430.84013,1629996430.84175,1629996431.45571,1629996431.44035,1629996692.52105,0
52,4,2,3,19,8,2,c2_WhyHand,2,competing?,11,H_502.jpg,1629996085.2813,1629996085.28362,327.293042411804,8.21891355514526,335.529447546005,337.630231132507,0.3,343.715833177567,0.583551168441772,344.300834884644,3,right,0.572848081588745,344.299384346008,604.479745140076,607.239745140076,1629996415.33434,1629996415.33908,1629996423.57075,1629996423.57289,1629996425.67153,1629996431.75713,1629996431.75899,1629996432.34214,1629996432.34069,1629996692.52105,0
52,4,2,3,20,1,4,c4_HowHand,1,reaching?,111,H_003.jpg,1629996085.2813,1629996085.28362,344.382748832703,12.6091651916504,357.004122486115,359.104906549454,2.10078406333923,359.25496219635,0.650241613388062,359.906878938675,1,left,0.625967979431152,359.905203809738,604.479745140076,607.239745140076,1629996432.42405,1629996432.42589,1629996445.04542,1629996445.0475,1629996447.14621,1629996447.29626,1629996447.29856,1629996447.94818,1629996447.9465,1629996692.52105,1
52,4,2,3,20,2,4,c4_HowHand,1,reaching?,110,H_364.jpg,1629996085.2813,1629996085.28362,344.382748832703,12.6091651916504,357.004122486115,359.104906549454,0.3,360.221989383698,0.600224018096924,360.823852052689,1,left,0.581429958343506,360.822213401794,604.479745140076,607.239745140076,1629996432.42405,1629996432.42589,1629996445.04542,1629996445.0475,1629996447.14621,1629996448.26329,1629996448.26496,1629996448.86515,1629996448.86351,1629996692.52105,1
52,4,2,3,20,3,4,c4_HowHand,2,reaching?,108,H_532.jpg,1629996085.2813,1629996085.28362,344.382748832703,12.6091651916504,357.004122486115,359.104906549454,0.3,361.138997306824,0.58355188369751,361.730458965302,3,right,0.576319932937622,361.722549190521,604.479745140076,607.239745140076,1629996432.42405,1629996432.42589,1629996445.04542,1629996445.0475,1629996447.14621,1629996449.1803,1629996449.18171,1629996449.77176,1629996449.76385,1629996692.52105,0
52,4,2,3,20,4,4,c4_HowHand,1,reaching?,106,H_006.jpg,1629996085.2813,1629996085.28362,344.382748832703,12.6091651916504,357.004122486115,359.104906549454,0.3,362.039333095551,0.500187635421753,362.547094097137,1,left,0.485297203063965,362.539520730972,604.479745140076,607.239745140076,1629996432.42405,1629996432.42589,1629996445.04542,1629996445.0475,1629996447.14621,1629996450.08063,1629996450.08251,1629996450.5884,1629996450.58082,1629996692.52105,1
52,4,2,3,20,5,4,c4_HowHand,2,reaching?,105,H_438.jpg,1629996085.2813,1629996085.28362,344.382748832703,12.6091651916504,357.004122486115,359.104906549454,0.3,362.856305351257,0.70026159286499,363.563729038239,3,right,0.686056852340698,363.556566944122,604.479745140076,607.239745140076,1629996432.42405,1629996432.42589,1629996445.04542,1629996445.0475,1629996447.14621,1629996450.89761,1629996450.89915,1629996451.60503,1629996451.59787,1629996692.52105,0
52,4,2,3,20,6,4,c4_HowHand,1,reaching?,107,H_007.jpg,1629996085.2813,1629996085.28362,344.382748832703,12.6091651916504,357.004122486115,359.104906549454,0.3,363.87335108757,0.566877126693726,364.447062005997,1,left,0.549113988876343,364.440228214264,604.479745140076,607.239745140076,1629996432.42405,1629996432.42589,1629996445.04542,1629996445.0475,1629996447.14621,1629996451.91465,1629996451.91649,1629996452.48836,1629996452.48153,1629996692.52105,1
52,4,2,3,20,7,4,c4_HowHand,1,reaching?,109,H_474.jpg,1629996085.2813,1629996085.28362,344.382748832703,12.6091651916504,357.004122486115,359.104906549454,0.3,364.757013549805,0.766952514648438,365.530858983994,3,right,0.753612041473389,365.523966064453,604.479745140076,607.239745140076,1629996432.42405,1629996432.42589,1629996445.04542,1629996445.0475,1629996447.14621,1629996452.79831,1629996452.79988,1629996453.57216,1629996453.56527,1629996692.52105,0
52,4,2,3,20,8,4,c4_HowHand,2,reaching?,112,H_132.jpg,1629996085.2813,1629996085.28362,344.382748832703,12.6091651916504,357.004122486115,359.104906549454,0.3,365.840750684738,0.917008638381958,366.763711919785,3,right,0.90681004524231,366.75775932312,604.479745140076,607.239745140076,1629996432.42405,1629996432.42589,1629996445.04542,1629996445.0475,1629996447.14621,1629996453.88205,1629996453.88387,1629996454.80501,1629996454.79906,1629996692.52105,0
52,4,2,3,21,1,3,c3_HowFace,1,open mouth?,73,F_403.jpg,1629996085.2813,1629996085.28362,366.84112452507,7.9908344745636,374.844108095169,376.944892158508,2.10078406333923,377.094948759079,0.46683931350708,377.564208021164,1,left,0.447137117385864,377.561788072586,604.479745140076,607.239745140076,1629996454.88243,1629996454.88897,1629996462.88541,1629996462.88915,1629996464.98619,1629996465.13625,1629996465.13909,1629996465.60551,1629996465.60309,1629996692.52105,1
52,4,2,3,21,2,3,c3_HowFace,2,open mouth?,79,F_648.jpg,1629996085.2813,1629996085.28362,366.84112452507,7.9908344745636,374.844108095169,376.944892158508,0.3,377.878573169708,0.483514308929443,378.363708963394,3,right,0.471217155456543,378.362087478638,604.479745140076,607.239745140076,1629996454.88243,1629996454.88897,1629996462.88541,1629996462.88915,1629996464.98619,1629996465.91987,1629996465.92232,1629996466.40501,1629996466.40339,1629996692.52105,0
52,4,2,3,21,3,3,c3_HowFace,1,open mouth?,74,F_776.jpg,1629996085.2813,1629996085.28362,366.84112452507,7.9908344745636,374.844108095169,376.944892158508,0.3,378.678871860504,0.450167655944824,379.130286922455,1,left,0.443819999694824,379.129039516449,604.479745140076,607.239745140076,1629996454.88243,1629996454.88897,1629996462.88541,1629996462.88915,1629996464.98619,1629996466.72017,1629996466.72191,1629996467.17159,1629996467.17034,1629996692.52105,1
52,4,2,3,21,4,3,c3_HowFace,2,open mouth?,77,F_584.jpg,1629996085.2813,1629996085.28362,366.84112452507,7.9908344745636,374.844108095169,376.944892158508,0.3,379.445824375153,0.466840744018555,379.913827886581,3,right,0.442814111709595,379.912665119171,604.479745140076,607.239745140076,1629996454.88243,1629996454.88897,1629996462.88541,1629996462.88915,1629996464.98619,1629996467.48713,1629996467.48949,1629996467.95513,1629996467.95397,1629996692.52105,0
52,4,2,3,21,5,3,c3_HowFace,1,open mouth?,80,F_844.jpg,1629996085.2813,1629996085.28362,366.84112452507,7.9908344745636,374.844108095169,376.944892158508,0.3,380.229449501038,0.500187635421753,380.730623950958,1,left,0.490483999252319,380.729637136459,604.479745140076,607.239745140076,1629996454.88243,1629996454.88897,1629996462.88541,1629996462.88915,1629996464.98619,1629996468.27075,1629996468.2724,1629996468.77192,1629996468.77094,1629996692.52105,1
52,4,2,3,21,6,3,c3_HowFace,1,open mouth?,78,F_692.jpg,1629996085.2813,1629996085.28362,366.84112452507,7.9908344745636,374.844108095169,376.944892158508,0.3,381.046421995163,0.500186443328857,381.547543039322,1,left,0.491374015808105,381.546608438492,604.479745140076,607.239745140076,1629996454.88243,1629996454.88897,1629996462.88541,1629996462.88915,1629996464.98619,1629996469.08772,1629996469.08919,1629996469.58884,1629996469.58791,1629996692.52105,1
52,4,2,3,21,7,3,c3_HowFace,1,open mouth?,75,F_086.jpg,1629996085.2813,1629996085.28362,366.84112452507,7.9908344745636,374.844108095169,376.944892158508,0.3,381.863393774033,0.516858339309692,382.381994953156,1,left,0.494998931884766,382.380252113342,604.479745140076,607.239745140076,1629996454.88243,1629996454.88897,1629996462.88541,1629996462.88915,1629996464.98619,1629996469.90469,1629996469.90617,1629996470.4233,1629996470.42155,1629996692.52105,1
52,4,2,3,21,8,3,c3_HowFace,2,open mouth?,76,F_544.jpg,1629996085.2813,1629996085.28362,366.84112452507,7.9908344745636,374.844108095169,376.944892158508,0.3,382.697037210464,0.616896152496338,383.315402021408,3,right,0.605879068374634,383.313933362961,604.479745140076,607.239745140076,1629996454.88243,1629996454.88897,1629996462.88541,1629996462.88915,1629996464.98619,1629996470.73834,1629996470.73968,1629996471.3567,1629996471.35523,1629996692.52105,0
52,4,2,3,22,1,1,c1_WhyFace,1,argument?,42,F_403.jpg,1629996085.2813,1629996085.28362,383.397298326492,10.1105926036835,393.517739048004,395.61852191925,2.10078287124634,395.768578281403,0.433495044708252,396.213741054535,1,left,0.42046594619751,396.202073326111,604.479745140076,607.239745140076,1629996471.4386,1629996471.44025,1629996481.55904,1629996481.56092,1629996483.65982,1629996483.80988,1629996483.81174,1629996484.25504,1629996484.24337,1629996692.52105,1
52,4,2,3,22,2,1,c1_WhyFace,2,argument?,46,F_844.jpg,1629996085.2813,1629996085.28362,383.397298326492,10.1105926036835,393.517739048004,395.61852191925,0.3,396.518858661652,0.466840744018555,396.997649898529,3,right,0.459319829940796,396.98569940567,604.479745140076,607.239745140076,1629996471.4386,1629996471.44025,1629996481.55904,1629996481.56092,1629996483.65982,1629996484.56016,1629996484.56187,1629996485.03895,1629996485.027,1629996692.52105,0
52,4,2,3,22,3,1,c1_WhyFace,1,argument?,41,F_712.jpg,1629996085.2813,1629996085.28362,383.397298326492,10.1105926036835,393.517739048004,395.61852191925,0.3,397.302484741211,0.450167417526245,397.763786067963,1,left,0.443276882171631,397.752652158737,604.479745140076,607.239745140076,1629996471.4386,1629996471.44025,1629996481.55904,1629996481.56092,1629996483.65982,1629996485.34379,1629996485.3454,1629996485.80509,1629996485.79395,1629996692.52105,1
52,4,2,3,22,4,1,c1_WhyFace,1,argument?,48,F_758.jpg,1629996085.2813,1629996085.28362,383.397298326492,10.1105926036835,393.517739048004,395.61852191925,0.3,398.069436302185,0.650242805480957,398.731296052933,1,left,0.637537956237793,398.719679107666,604.479745140076,607.239745140076,1629996471.4386,1629996471.44025,1629996481.55904,1629996481.56092,1629996483.65982,1629996486.11074,1629996486.11242,1629996486.7726,1629996486.76098,1629996692.52105,1
52,4,2,3,22,5,1,c1_WhyFace,2,argument?,45,F_433.jpg,1629996085.2813,1629996085.28362,383.397298326492,10.1105926036835,393.517739048004,395.61852191925,0.3,399.036464204788,0.516859531402588,399.564353933334,3,right,0.505697011947632,399.553323736191,604.479745140076,607.239745140076,1629996471.4386,1629996471.44025,1629996481.55904,1629996481.56092,1629996483.65982,1629996487.07777,1629996487.07936,1629996487.60565,1629996487.59462,1629996692.52105,0
52,4,2,3,22,6,1,c1_WhyFace,1,argument?,43,F_716.jpg,1629996085.2813,1629996085.28362,383.397298326492,10.1105926036835,393.517739048004,395.61852191925,0.3,399.870108594894,0.550204515457153,400.431031932831,1,left,0.537438869476318,400.420313110352,604.479745140076,607.239745140076,1629996471.4386,1629996471.44025,1629996481.55904,1629996481.56092,1629996483.65982,1629996487.91141,1629996487.91274,1629996488.47233,1629996488.46161,1629996692.52105,1
52,4,2,3,22,7,1,c1_WhyFace,2,argument?,44,F_139.jpg,1629996085.2813,1629996085.28362,383.397298326492,10.1105926036835,393.517739048004,395.61852191925,0.3,400.73709892273,0.833643436431885,401.580877056122,3,right,0.822448968887329,401.570742359161,604.479745140076,607.239745140076,1629996471.4386,1629996471.44025,1629996481.55904,1629996481.56092,1629996483.65982,1629996488.7784,1629996488.77997,1629996489.62218,1629996489.61204,1629996692.52105,0
52,4,2,3,22,8,1,c1_WhyFace,1,argument?,47,F_743.jpg,1629996085.2813,1629996085.28362,383.397298326492,10.1105926036835,393.517739048004,395.61852191925,0.3,401.887526264191,0.450168132781982,402.339489927292,1,left,0.43042778968811,402.337694396973,604.479745140076,607.239745140076,1629996471.4386,1629996471.44025,1629996481.55904,1629996481.56092,1629996483.65982,1629996489.92883,1629996489.93077,1629996490.38079,1629996490.379,1629996692.52105,1
52,4,2,3,23,1,2,c2_WhyHand,1,helping?,39,H_024.jpg,1629996085.2813,1629996085.28362,402.421058168411,9.30688285827637,411.741202344894,413.841985216141,2.10078287124634,413.992041339874,0.816971063613892,414.814420928955,1,left,0.799566984176636,414.809012403488,604.479745140076,607.239745140076,1629996490.46236,1629996490.46359,1629996499.7825,1629996499.78977,1629996501.88329,1629996502.03334,1629996502.04008,1629996502.85572,1629996502.85031,1629996692.52105,1
52,4,2,3,23,2,2,c2_WhyHand,1,helping?,36,H_349.jpg,1629996085.2813,1629996085.28362,402.421058168411,9.30688285827637,411.741202344894,413.841985216141,0.3,415.12579750061,0.55020546913147,415.681022872925,1,left,0.534817934036255,415.676002969742,604.479745140076,607.239745140076,1629996490.46236,1629996490.46359,1629996499.7825,1629996499.78977,1629996501.88329,1629996503.1671,1629996503.16895,1629996503.72232,1629996503.7173,1629996692.52105,1
52,4,2,3,23,3,2,c2_WhyHand,1,helping?,38,H_077.jpg,1629996085.2813,1629996085.28362,402.421058168411,9.30688285827637,411.741202344894,413.841985216141,0.3,415.992787590027,0.850316524505615,416.847524871826,1,left,0.829333066940308,416.843104114532,604.479745140076,607.239745140076,1629996490.46236,1629996490.46359,1629996499.7825,1629996499.78977,1629996501.88329,1629996504.03409,1629996504.0387,1629996504.88883,1629996504.88441,1629996692.52105,1
52,4,2,3,23,4,2,c2_WhyHand,1,helping?,37,H_474.jpg,1629996085.2813,1629996085.28362,402.421058168411,9.30688285827637,411.741202344894,413.841985216141,0.3,417.159889450073,0.650241613388062,417.813664903641,1,left,0.639894962310791,417.810131063461,604.479745140076,607.239745140076,1629996490.46236,1629996490.46359,1629996499.7825,1629996499.78977,1629996501.88329,1629996505.20119,1629996505.20531,1629996505.85497,1629996505.85143,1629996692.52105,1
52,4,2,3,23,5,2,c2_WhyHand,2,helping?,33,H_091.jpg,1629996085.2813,1629996085.28362,402.421058168411,9.30688285827637,411.741202344894,413.841985216141,0.3,418.126916160584,0.683588266372681,418.814506044388,3,right,0.659645080566406,418.810504426956,604.479745140076,607.239745140076,1629996490.46236,1629996490.46359,1629996499.7825,1629996499.78977,1629996501.88329,1629996506.16822,1629996506.17235,1629996506.85581,1629996506.85181,1629996692.52105,0
52,4,2,3,23,6,2,c2_WhyHand,2,helping?,35,H_159.jpg,1629996085.2813,1629996085.28362,402.421058168411,9.30688285827637,411.741202344894,413.841985216141,0.3,419.12728928566,0.666916370391846,419.797870864868,3,right,0.645800113677979,419.794205656052,604.479745140076,607.239745140076,1629996490.46236,1629996490.46359,1629996499.7825,1629996499.78977,1629996501.88329,1629996507.16859,1629996507.17225,1629996507.83917,1629996507.83551,1629996692.52105,0
52,4,2,3,23,7,2,c2_WhyHand,1,helping?,34,H_111.jpg,1629996085.2813,1629996085.28362,402.421058168411,9.30688285827637,411.741202344894,413.841985216141,0.3,420.110988607407,0.583550453186035,420.697561969757,1,left,0.567214965820312,420.694539060593,604.479745140076,607.239745140076,1629996490.46236,1629996490.46359,1629996499.7825,1629996499.78977,1629996501.88329,1629996508.15229,1629996508.15533,1629996508.73886,1629996508.73584,1629996692.52105,1
52,4,2,3,23,8,2,c2_WhyHand,2,helping?,40,H_012.jpg,1629996085.2813,1629996085.28362,402.421058168411,9.30688285827637,411.741202344894,413.841985216141,0.3,421.011325111389,0.700261116027832,421.714371910095,3,right,0.682986974716187,421.711586227417,604.479745140076,607.239745140076,1629996490.46236,1629996490.46359,1629996499.7825,1629996499.78977,1629996501.88329,1629996509.05263,1629996509.05561,1629996509.75567,1629996509.75289,1629996692.52105,0
52,4,2,3,24,1,4,c4_HowHand,1,both hands?,122,H_111.jpg,1629996085.2813,1629996085.28362,421.794951429367,8.00295042991638,429.814608325958,431.915391197205,2.10078287124634,432.065447320938,0.583551168441772,432.650562992096,1,left,0.566671133041382,432.64899848938,604.479745140076,607.239745140076,1629996509.83625,1629996509.83821,1629996517.85591,1629996517.85753,1629996519.95669,1629996520.10675,1629996520.10828,1629996520.69186,1629996520.6903,1629996692.52105,1
52,4,2,3,24,2,4,c4_HowHand,1,both hands?,128,H_027.jpg,1629996085.2813,1629996085.28362,421.794951429367,8.00295042991638,429.814608325958,431.915391197205,0.3,432.965783109665,0.516860008239746,433.484385004044,1,left,0.49560809135437,433.482643117905,604.479745140076,607.239745140076,1629996509.83625,1629996509.83821,1629996517.85591,1629996517.85753,1629996519.95669,1629996521.00708,1629996521.009,1629996521.52569,1629996521.52394,1629996692.52105,1
52,4,2,3,24,3,4,c4_HowHand,2,both hands?,121,H_091.jpg,1629996085.2813,1629996085.28362,421.794951429367,8.00295042991638,429.814608325958,431.915391197205,0.3,433.799426784515,0.500187397003174,434.300642957687,3,right,0.484941005706787,434.299614181519,604.479745140076,607.239745140076,1629996509.83625,1629996509.83821,1629996517.85591,1629996517.85753,1629996519.95669,1629996521.84073,1629996521.84233,1629996522.34194,1629996522.34092,1629996692.52105,0
52,4,2,3,24,4,4,c4_HowHand,1,both hands?,123,H_167.jpg,1629996085.2813,1629996085.28362,421.794951429367,8.00295042991638,429.814608325958,431.915391197205,0.3,434.616399040222,0.48351263999939,435.101278057098,1,left,0.464445114135742,435.099911680222,604.479745140076,607.239745140076,1629996509.83625,1629996509.83821,1629996517.85591,1629996517.85753,1629996519.95669,1629996522.6577,1629996522.65953,1629996523.14258,1629996523.14121,1629996692.52105,1
52,4,2,3,24,5,4,c4_HowHand,1,both hands?,124,H_581.jpg,1629996085.2813,1629996085.28362,421.794951429367,8.00295042991638,429.814608325958,431.915391197205,0.3,435.416697731018,0.683588743209839,436.101892938614,1,left,0.667618036270142,436.100286474228,604.479745140076,607.239745140076,1629996509.83625,1629996509.83821,1629996517.85591,1629996517.85753,1629996519.95669,1629996523.458,1629996523.46008,1629996524.14319,1629996524.14159,1629996692.52105,1
52,4,2,3,24,6,4,c4_HowHand,2,both hands?,126,H_159.jpg,1629996085.2813,1629996085.28362,421.794951429367,8.00295042991638,429.814608325958,431.915391197205,0.3,436.41706990242,0.583550691604614,437.002223005295,3,right,0.563697099685669,437.000620594025,604.479745140076,607.239745140076,1629996509.83625,1629996509.83821,1629996517.85591,1629996517.85753,1629996519.95669,1629996524.45837,1629996524.46,1629996525.04352,1629996525.04192,1629996692.52105,0
52,4,2,3,24,7,4,c4_HowHand,1,both hands?,127,H_349.jpg,1629996085.2813,1629996085.28362,421.794951429367,8.00295042991638,429.814608325958,431.915391197205,0.3,437.317405929565,0.500187158584595,437.819433917999,1,left,0.481198072433472,437.81759308815,604.479745140076,607.239745140076,1629996509.83625,1629996509.83821,1629996517.85591,1629996517.85753,1629996519.95669,1629996525.35871,1629996525.36035,1629996525.86073,1629996525.85889,1629996692.52105,1
52,4,2,3,24,8,4,c4_HowHand,2,both hands?,125,H_627.jpg,1629996085.2813,1629996085.28362,421.794951429367,8.00295042991638,429.814608325958,431.915391197205,0.3,438.134377946854,0.600223541259766,438.747102966309,3,right,0.592948913574219,438.734601488113,604.479745140076,607.239745140076,1629996509.83625,1629996509.83821,1629996517.85591,1629996517.85753,1629996519.95669,1629996526.17568,1629996526.17731,1629996526.7884,1629996526.7759,1629996692.52105,0
52,4,2,3,25,1,2,c2_WhyHand,1,healthy?,18,H_438.jpg,1629996085.2813,1629996085.28362,438.834638109207,8.48027396202087,447.321137418747,449.42192076683,2.1007833480835,449.57197593689,0.73360800743103,450.307276000977,1,left,0.708599090576172,450.305583944321,604.479745140076,607.239745140076,1629996526.87594,1629996526.87781,1629996535.36244,1629996535.37277,1629996537.46322,1629996537.61328,1629996537.62208,1629996538.34858,1629996538.34688,1629996692.52105,1
52,4,2,3,25,2,2,c2_WhyHand,1,healthy?,23,H_364.jpg,1629996085.2813,1629996085.28362,438.834638109207,8.48027396202087,447.321137418747,449.42192076683,0.3,450.622368087769,0.500186204910278,451.123704900742,1,left,0.48186206817627,451.122554292679,604.479745140076,607.239745140076,1629996526.87594,1629996526.87781,1629996535.36244,1629996535.37277,1629996537.46322,1629996538.66367,1629996538.66543,1629996539.16501,1629996539.16386,1629996692.52105,1
52,4,2,3,25,3,2,c2_WhyHand,1,healthy?,17,H_362.jpg,1629996085.2813,1629996085.28362,438.834638109207,8.48027396202087,447.321137418747,449.42192076683,0.3,451.439339389801,0.600223779678345,452.04063700676,1,left,0.579391956329346,452.039563169479,604.479745140076,607.239745140076,1629996526.87594,1629996526.87781,1629996535.36244,1629996535.37277,1629996537.46322,1629996539.48064,1629996539.48238,1629996540.08194,1629996540.08086,1629996692.52105,1
52,4,2,3,25,4,2,c2_WhyHand,2,healthy?,24,H_019.jpg,1629996085.2813,1629996085.28362,438.834638109207,8.48027396202087,447.321137418747,449.42192076683,0.3,452.356348266602,0.633569955825806,452.991615047455,3,right,0.612764120101929,452.989918222427,604.479745140076,607.239745140076,1629996526.87594,1629996526.87781,1629996535.36244,1629996535.37277,1629996537.46322,1629996540.39765,1629996540.39944,1629996541.03292,1629996541.03122,1629996692.52105,0
52,4,2,3,25,5,2,c2_WhyHand,1,healthy?,19,H_167.jpg,1629996085.2813,1629996085.28362,438.834638109207,8.48027396202087,447.321137418747,449.42192076683,0.3,453.306702365875,0.566877603530884,453.875251998901,1,left,0.542428970336914,453.873579969406,604.479745140076,607.239745140076,1629996526.87594,1629996526.87781,1629996535.36244,1629996535.37277,1629996537.46322,1629996541.348,1629996541.34966,1629996541.91655,1629996541.91488,1629996692.52105,1
52,4,2,3,25,6,2,c2_WhyHand,2,healthy?,20,H_007.jpg,1629996085.2813,1629996085.28362,438.834638109207,8.48027396202087,447.321137418747,449.42192076683,0.3,454.190365543365,0.566877603530884,454.763880958557,3,right,0.557878971099854,454.757243146896,604.479745140076,607.239745140076,1629996526.87594,1629996526.87781,1629996535.36244,1629996535.37277,1629996537.46322,1629996542.23167,1629996542.23324,1629996542.80518,1629996542.79854,1629996692.52105,0
52,4,2,3,25,7,2,c2_WhyHand,1,healthy?,21,H_627.jpg,1629996085.2813,1629996085.28362,438.834638109207,8.48027396202087,447.321137418747,449.42192076683,0.3,455.074028244019,0.633569002151489,455.714462032318,1,left,0.61749792098999,455.70759724617,604.479745140076,607.239745140076,1629996526.87594,1629996526.87781,1629996535.36244,1629996535.37277,1629996537.46322,1629996543.11533,1629996543.11703,1629996543.75576,1629996543.7489,1629996692.52105,1
52,4,2,3,25,8,2,c2_WhyHand,2,healthy?,22,H_130.jpg,1629996085.2813,1629996085.28362,438.834638109207,8.48027396202087,447.321137418747,449.42192076683,0.3,456.024382343292,0.716934442520142,456.747458925247,3,right,0.699429035186768,456.741316785812,604.479745140076,607.239745140076,1629996526.87594,1629996526.87781,1629996535.36244,1629996535.37277,1629996537.46322,1629996544.06568,1629996544.06716,1629996544.78876,1629996544.78262,1629996692.52105,0
52,4,2,3,26,1,4,c4_HowHand,1,pressing button?,82,H_126.jpg,1629996085.2813,1629996085.28362,456.824681749344,9.54422831535339,466.378243436813,468.47902797699,2.10078454017639,468.629083862305,0.533531904220581,469.164336910248,1,left,0.520211935043335,469.162615766525,604.479745140076,607.239745140076,1629996544.86598,1629996544.87182,1629996554.41954,1629996554.42224,1629996556.52033,1629996556.67038,1629996556.67219,1629996557.20564,1629996557.20392,1629996692.52105,1
52,4,2,3,26,2,4,c4_HowHand,2,pressing button?,85,H_130.jpg,1629996085.2813,1629996085.28362,456.824681749344,9.54422831535339,466.378243436813,468.47902797699,0.3,469.47940038681,0.566878080368042,470.047616949081,3,right,0.546209096908569,470.046278467178,604.479745140076,607.239745140076,1629996544.86598,1629996544.87182,1629996554.41954,1629996554.42224,1629996556.52033,1629996557.5207,1629996557.52234,1629996558.08892,1629996558.08758,1629996692.52105,0
52,4,2,3,26,3,4,c4_HowHand,1,pressing button?,84,H_483.jpg,1629996085.2813,1629996085.28362,456.824681749344,9.54422831535339,466.378243436813,468.47902797699,0.3,470.363062849045,0.583551168441772,470.948014965057,1,left,0.562570095062256,470.946614017487,604.479745140076,607.239745140076,1629996544.86598,1629996544.87182,1629996554.41954,1629996554.42224,1629996556.52033,1629996558.40436,1629996558.40599,1629996558.98932,1629996558.98792,1629996692.52105,1
52,4,2,3,26,4,4,c4_HowHand,2,pressing button?,87,H_024.jpg,1629996085.2813,1629996085.28362,456.824681749344,9.54422831535339,466.378243436813,468.47902797699,0.3,471.263399353027,0.550204992294312,471.814518918991,3,right,0.539802074432373,471.813604345322,604.479745140076,607.239745140076,1629996544.86598,1629996544.87182,1629996554.41954,1629996554.42224,1629996556.52033,1629996559.3047,1629996559.30614,1629996559.85582,1629996559.85491,1629996692.52105,0
52,4,2,3,26,5,4,c4_HowHand,1,pressing button?,86,H_332.jpg,1629996085.2813,1629996085.28362,456.824681749344,9.54422831535339,466.378243436813,468.47902797699,0.3,472.130388250351,0.466840982437134,472.598211040497,1,left,0.455343961715698,472.597229232788,604.479745140076,607.239745140076,1629996544.86598,1629996544.87182,1629996554.41954,1629996554.42224,1629996556.52033,1629996560.17169,1629996560.17314,1629996560.63951,1629996560.63853,1629996692.52105,1
52,4,2,3,26,6,4,c4_HowHand,1,pressing button?,88,H_019.jpg,1629996085.2813,1629996085.28362,456.824681749344,9.54422831535339,466.378243436813,468.47902797699,0.3,472.914014091492,0.716934204101562,473.632925977707,1,left,0.698636054992676,473.630948295593,604.479745140076,607.239745140076,1629996544.86598,1629996544.87182,1629996554.41954,1629996554.42224,1629996556.52033,1629996560.95532,1629996560.95689,1629996561.67423,1629996561.67225,1629996692.52105,1
52,4,2,3,26,7,4,c4_HowHand,2,pressing button?,81,H_261.jpg,1629996085.2813,1629996085.28362,456.824681749344,9.54422831535339,466.378243436813,468.47902797699,0.3,473.947733631134,0.533531904220581,474.482192983627,3,right,0.523859977722168,474.481265535355,604.479745140076,607.239745140076,1629996544.86598,1629996544.87182,1629996554.41954,1629996554.42224,1629996556.52033,1629996561.98903,1629996561.99074,1629996562.52349,1629996562.52257,1629996692.52105,0
52,4,2,3,26,8,4,c4_HowHand,1,pressing button?,83,H_502.jpg,1629996085.2813,1629996085.28362,456.824681749344,9.54422831535339,466.378243436813,468.47902797699,0.3,474.798050394058,0.466840744018555,475.26631688118,1,left,0.44665002822876,475.264891138077,604.479745140076,607.239745140076,1629996544.86598,1629996544.87182,1629996554.41954,1629996554.42224,1629996556.52033,1629996562.83935,1629996562.841,1629996563.30762,1629996563.30619,1629996692.52105,1
52,4,2,3,27,1,3,c3_HowFace,1,looking at camera?,60,F_618.jpg,1629996085.2813,1629996085.28362,475.348255386353,8.55079555511475,483.918117990494,486.002228012085,2.08411002159119,486.152284374237,0.566877841949463,486.73111700058,1,left,0.543524026870728,486.719162216187,604.479745140076,607.239745140076,1629996563.38956,1629996563.39121,1629996571.95942,1629996571.96141,1629996574.04353,1629996574.19359,1629996574.20589,1629996574.77242,1629996574.76046,1629996692.52105,1
52,4,2,3,27,2,3,c3_HowFace,2,looking at camera?,58,F_754.jpg,1629996085.2813,1629996085.28362,475.348255386353,8.55079555511475,483.918117990494,486.002228012085,0.3,487.03594874382,0.500185489654541,487.53779791832,3,right,0.481818914413452,487.536134233475,604.479745140076,607.239745140076,1629996563.38956,1629996563.39121,1629996571.95942,1629996571.96141,1629996574.04353,1629996575.07725,1629996575.07935,1629996575.5791,1629996575.57744,1629996692.52105,0
52,4,2,3,27,3,3,c3_HowFace,1,looking at camera?,59,F_129.jpg,1629996085.2813,1629996085.28362,475.348255386353,8.55079555511475,483.918117990494,486.002228012085,0.3,487.852918615341,0.500186204910278,488.364397039413,1,left,0.491962909698486,488.353104820251,604.479745140076,607.239745140076,1629996563.38956,1629996563.39121,1629996571.95942,1629996571.96141,1629996574.04353,1629996575.89422,1629996575.89597,1629996576.4057,1629996576.39441,1629996692.52105,1
52,4,2,3,27,4,3,c3_HowFace,1,looking at camera?,62,F_598.jpg,1629996085.2813,1629996085.28362,475.348255386353,8.55079555511475,483.918117990494,486.002228012085,0.3,488.669890155792,0.5668785572052,489.238131990433,1,left,0.548658132553101,489.236768712997,604.479745140076,607.239745140076,1629996563.38956,1629996563.39121,1629996571.95942,1629996571.96141,1629996574.04353,1629996576.71119,1629996576.713,1629996577.27943,1629996577.27807,1629996692.52105,1
52,4,2,3,27,5,3,c3_HowFace,1,looking at camera?,64,F_128.jpg,1629996085.2813,1629996085.28362,475.348255386353,8.55079555511475,483.918117990494,486.002228012085,0.3,489.553553094864,0.533532619476318,490.097153892517,1,left,0.525479078292847,490.08708571434,604.479745140076,607.239745140076,1629996563.38956,1629996563.39121,1629996571.95942,1629996571.96141,1629996574.04353,1629996577.59485,1629996577.59634,1629996578.13845,1629996578.12839,1629996692.52105,1
52,4,2,3,27,6,3,c3_HowFace,2,looking at camera?,57,F_582.jpg,1629996085.2813,1629996085.28362,475.348255386353,8.55079555511475,483.918117990494,486.002228012085,0.3,490.403870096207,0.583551406860352,490.997493972778,3,right,0.574911117553711,490.987421503067,604.479745140076,607.239745140076,1629996563.38956,1629996563.39121,1629996571.95942,1629996571.96141,1629996574.04353,1629996578.44517,1629996578.44702,1629996579.03879,1629996579.02872,1629996692.52105,0
52,4,2,3,27,7,3,c3_HowFace,1,looking at camera?,61,F_774.jpg,1629996085.2813,1629996085.28362,475.348255386353,8.55079555511475,483.918117990494,486.002228012085,0.3,491.304206600189,0.416821956634521,491.730529060364,1,left,0.406759977340698,491.721028556824,604.479745140076,607.239745140076,1629996563.38956,1629996563.39121,1629996571.95942,1629996571.96141,1629996574.04353,1629996579.34551,1629996579.34749,1629996579.77183,1629996579.76233,1629996692.52105,1
52,4,2,3,27,8,3,c3_HowFace,2,looking at camera?,63,F_743.jpg,1629996085.2813,1629996085.28362,475.348255386353,8.55079555511475,483.918117990494,486.002228012085,0.3,492.037813653946,0.633568286895752,492.680478086472,3,right,0.621925115585327,492.671381940842,604.479745140076,607.239745140076,1629996563.38956,1629996563.39121,1629996571.95942,1629996571.96141,1629996574.04353,1629996580.07911,1629996580.08069,1629996580.72178,1629996580.71268,1629996692.52105,0
