src_subject_id,session_id,run_id,param_counterbalance_ver,param_block_num,param_trial_num,param_cond_type_num,param_cond_type_string,param_normative_response,param_ques_type_string,param_image_num,param_image_filename,param_trigger_onset,param_start_biopac,event01_fixation,event01_fixation_dur,event01_blockquestion_onset,event01_block_isi_blacksreen,event01_blockquestion_dur,event02_image_onset,event02_image_dur,event03_response_onset,event03_response_key,event03_response_keyname,event03_RT,event04_shortquestion_onset,param_end_instruct_onset,param_experiment_duration,RAW_e1_fixation,RAW_e1_fixation_biopac,RAW_e1_blockquestion_onset,RAW_e1_blockquestion_onset_biopac,RAW_e1_block_isi_blacksreen,RAW_e2_image_onset,RAW_e2_image_onset_biopac,RAW_e3_response_onset,RAW_e4_shortquestion_onset,RAW_param_end_instruct_onset,accuracy
105,4,1,3,1,1,4,c4_HowHand,1,reaching?,107,H_007.jpg,1646350735.27011,1646350735.28064,0.0400395298004148,0.0447094440460205,0.0900328063964841,2.10644244194031,2.01640963554382,2.27308868408203,0.966542720794678,3.25104998588562,1,left,0.941989898681641,3.23963140487671,604.479857196808,607.239857196808,1646350738.07015,1646350738.08369,1646350738.12015,1646350738.13164,1646350740.13656,1646350740.3032,1646350740.30479,1646350741.28116,1646350741.26974,1646351342.50997,1
105,4,1,3,1,2,4,c4_HowHand,2,reaching?,108,H_532.jpg,1646350735.27011,1646350735.28064,0.0400395298004148,0.0447094440460205,0.0900328063964841,2.10644244194031,0.3,3.55625890731812,0.966543912887573,4.52466296195984,3,right,0.947793960571289,4.52280282020569,604.479857196808,607.239857196808,1646350738.07015,1646350738.08369,1646350738.12015,1646350738.13164,1646350740.13656,1646350741.58637,1646350741.58771,1646350742.55478,1646350742.55292,1646351342.50997,0
105,4,1,3,1,3,4,c4_HowHand,1,reaching?,109,H_474.jpg,1646350735.27011,1646350735.28064,0.0400395298004148,0.0447094440460205,0.0900328063964841,2.10644244194031,0.3,4.83942889213562,0.799898386001587,5.64918493270874,1,left,0.785539150238037,5.63932727813721,604.479857196808,607.239857196808,1646350738.07015,1646350738.08369,1646350738.12015,1646350738.13164,1646350740.13656,1646350742.86954,1646350742.87141,1646350743.6793,1646350743.66944,1646351342.50997,1
105,4,1,3,1,4,4,c4_HowHand,2,reaching?,105,H_438.jpg,1646350735.27011,1646350735.28064,0.0400395298004148,0.0447094440460205,0.0900328063964841,2.10644244194031,0.3,5.95595406532288,0.916549682617188,6.88153099060059,1,left,0.900053977966309,6.87250374794006,604.479857196808,607.239857196808,1646350738.07015,1646350738.08369,1646350738.12015,1646350738.13164,1646350740.13656,1646350743.98607,1646350743.98804,1646350744.91164,1646350744.90262,1646351342.50997,0
105,4,1,3,1,5,4,c4_HowHand,1,reaching?,110,H_364.jpg,1646350735.27011,1646350735.28064,0.0400395298004148,0.0447094440460205,0.0900328063964841,2.10644244194031,0.3,7.18913053512573,0.699910402297974,7.89941500663757,3,right,0.683058023452759,7.88904093742371,604.479857196808,607.239857196808,1646350738.07015,1646350738.08369,1646350738.12015,1646350738.13164,1646350740.13656,1646350745.21924,1646350745.22182,1646350745.92953,1646350745.91915,1646351342.50997,0
105,4,1,3,1,6,4,c4_HowHand,1,reaching?,106,H_006.jpg,1646350735.27011,1646350735.28064,0.0400395298004148,0.0447094440460205,0.0900328063964841,2.10644244194031,0.3,8.20566724777222,0.899885416030884,9.10744999885559,1,left,0.881163835525513,9.1055526638031,604.479857196808,607.239857196808,1646350738.07015,1646350738.08369,1646350738.12015,1646350738.13164,1646350740.13656,1646350746.23578,1646350746.23684,1646350747.13756,1646350747.13567,1646351342.50997,1
105,4,1,3,1,7,4,c4_HowHand,1,reaching?,111,H_003.jpg,1646350735.27011,1646350735.28064,0.0400395298004148,0.0447094440460205,0.0900328063964841,2.10644244194031,0.3,9.42217945098877,0.783232688903809,10.2071609401703,1,left,0.762923002243042,10.2054121398926,604.479857196808,607.239857196808,1646350738.07015,1646350738.08369,1646350738.12015,1646350738.13164,1646350740.13656,1646350747.45229,1646350747.45419,1646350748.23727,1646350748.23553,1646351342.50997,1
105,4,1,3,1,8,4,c4_HowHand,2,reaching?,112,H_132.jpg,1646350735.27011,1646350735.28064,0.0400395298004148,0.0447094440460205,0.0900328063964841,2.10644244194031,0.3,10.5220391654968,0.666582345962524,11.1896750831604,1,left,0.647505044937134,11.1886215114594,604.479857196808,607.239857196808,1646350738.07015,1646350738.08369,1646350738.12015,1646350738.13164,1646350740.13656,1646350748.55215,1646350748.55347,1646350749.21979,1646350749.21873,1646351342.50997,0
105,4,1,3,2,1,2,c2_WhyHand,1,healthy?,21,H_627.jpg,1646350735.27011,1646350735.28064,11.4385893249512,6.09254264831543,17.5378129386902,19.6375477218628,2.09973478317261,19.7875282669067,0.766568183898926,20.5582370662689,3,right,0.744456052780151,20.5540964508057,604.479857196808,607.239857196808,1646350749.4687,1646350749.47133,1646350755.56793,1646350755.57356,1646350757.66766,1646350757.81764,1646350757.82211,1646350758.58835,1646350758.58421,1646351342.50997,0
105,4,1,3,2,2,2,c2_WhyHand,1,healthy?,18,H_438.jpg,1646350735.27011,1646350735.28064,11.4385893249512,6.09254264831543,17.5378129386902,19.6375477218628,0.3,20.8707234764099,0.516601324081421,21.3905858898163,1,left,0.493638038635254,21.3873248004913,604.479857196808,607.239857196808,1646350749.4687,1646350749.47133,1646350755.56793,1646350755.57356,1646350757.66766,1646350758.90084,1646350758.90436,1646350759.4207,1646350759.41744,1646351342.50997,1
105,4,1,3,2,3,2,c2_WhyHand,1,healthy?,23,H_364.jpg,1646350735.27011,1646350735.28064,11.4385893249512,6.09254264831543,17.5378129386902,19.6375477218628,0.3,21.7039513492584,0.666582584381104,22.3728771114349,1,left,0.653003931045532,22.3705339336395,604.479857196808,607.239857196808,1646350749.4687,1646350749.47133,1646350755.56793,1646350755.57356,1646350757.66766,1646350759.73406,1646350759.7373,1646350760.40299,1646350760.40065,1646351342.50997,1
105,4,1,3,2,4,2,c2_WhyHand,2,healthy?,22,H_130.jpg,1646350735.27011,1646350735.28064,11.4385893249512,6.09254264831543,17.5378129386902,19.6375477218628,0.3,22.6871597671509,0.649916410446167,23.3395280742645,3,right,0.636093139648438,23.337076177597,604.479857196808,607.239857196808,1646350749.4687,1646350749.47133,1646350755.56793,1646350755.57356,1646350757.66766,1646350760.71727,1646350760.71952,1646350761.36964,1646350761.36719,1646351342.50997,0
105,4,1,3,2,5,2,c2_WhyHand,1,healthy?,17,H_362.jpg,1646350735.27011,1646350735.28064,11.4385893249512,6.09254264831543,17.5378129386902,19.6375477218628,0.3,23.6537036800385,0.633251905441284,24.2884890937805,1,left,0.622434139251709,24.2869555854797,604.479857196808,607.239857196808,1646350749.4687,1646350749.47133,1646350755.56793,1646350755.57356,1646350757.66766,1646350761.68382,1646350761.68641,1646350762.3186,1646350762.31707,1646351342.50997,1
105,4,1,3,2,6,2,c2_WhyHand,2,healthy?,20,H_007.jpg,1646350735.27011,1646350735.28064,11.4385893249512,6.09254264831543,17.5378129386902,19.6375477218628,0.3,24.6035821342468,0.56659460067749,25.1714908981323,3,right,0.545446872711182,25.1701767349243,604.479857196808,607.239857196808,1646350749.4687,1646350749.47133,1646350755.56793,1646350755.57356,1646350757.66766,1646350762.6337,1646350762.63553,1646350763.2016,1646350763.20029,1646351342.50997,0
105,4,1,3,2,7,2,c2_WhyHand,1,healthy?,19,H_167.jpg,1646350735.27011,1646350735.28064,11.4385893249512,6.09254264831543,17.5378129386902,19.6375477218628,0.3,25.4868032836914,0.716575622558594,26.2044000530243,3,right,0.701197862625122,26.20337890625,604.479857196808,607.239857196808,1646350749.4687,1646350749.47133,1646350755.56793,1646350755.57356,1646350757.66766,1646350763.51692,1646350763.51851,1646350764.23451,1646350764.23349,1646351342.50997,0
105,4,1,3,2,8,2,c2_WhyHand,2,healthy?,24,H_019.jpg,1646350735.27011,1646350735.28064,11.4385893249512,6.09254264831543,17.5378129386902,19.6375477218628,0.3,26.5200054550171,0.56659460067749,27.088051071167,1,left,0.552752017974854,27.0866000556946,604.479857196808,607.239857196808,1646350749.4687,1646350749.47133,1646350755.56793,1646350755.57356,1646350757.66766,1646350764.55012,1646350764.55156,1646350765.11816,1646350765.11671,1646351342.50997,0
105,4,1,3,3,1,1,c1_WhyFace,1,admiring?,4,F_779.jpg,1646350735.27011,1646350735.28064,27.186587562561,9.45251035690308,36.6520500087738,38.7517831230164,2.09973311424255,38.9017641448975,0.483271837234497,39.3868570232391,1,left,0.464388847351074,39.385035982132,604.479857196808,607.239857196808,1646350765.2167,1646350765.21832,1646350774.68216,1646350774.68446,1646350776.7819,1646350776.93188,1646350776.93403,1646350777.41697,1646350777.41515,1646351342.50997,1
105,4,1,3,3,2,1,c1_WhyFace,1,admiring?,1,F_593.jpg,1646350735.27011,1646350735.28064,27.186587562561,9.45251035690308,36.6520500087738,38.7517831230164,0.3,39.7016622924805,0.699911594390869,40.4033260250092,1,left,0.682823896408081,40.4015738868713,604.479857196808,607.239857196808,1646350765.2167,1646350765.21832,1646350774.68216,1646350774.68446,1646350776.7819,1646350777.73178,1646350777.73368,1646350778.43344,1646350778.43169,1646351342.50997,1
105,4,1,3,3,3,1,c1_WhyFace,2,admiring?,3,F_110.jpg,1646350735.27011,1646350735.28064,27.186587562561,9.45251035690308,36.6520500087738,38.7517831230164,0.3,40.7182004356384,0.483271837234497,41.2031659984589,1,left,0.466171979904175,41.2014722728729,604.479857196808,607.239857196808,1646350765.2167,1646350765.21832,1646350774.68216,1646350774.68446,1646350776.7819,1646350778.74831,1646350778.75003,1646350779.23328,1646350779.23159,1646351342.50997,0
105,4,1,3,3,4,1,c1_WhyFace,1,admiring?,8,F_590.jpg,1646350735.27011,1646350735.28064,27.186587562561,9.45251035690308,36.6520500087738,38.7517831230164,0.3,41.5180983448029,0.44994330406189,41.9697620773315,1,left,0.427996158599854,41.9680416488647,604.479857196808,607.239857196808,1646350765.2167,1646350765.21832,1646350774.68216,1646350774.68446,1646350776.7819,1646350779.54821,1646350779.55004,1646350779.99988,1646350779.99815,1646351342.50997,1
105,4,1,3,3,5,1,c1_WhyFace,2,admiring?,6,F_692.jpg,1646350735.27011,1646350735.28064,27.186587562561,9.45251035690308,36.6520500087738,38.7517831230164,0.3,42.284668674469,0.699911117553711,42.9964868927002,3,right,0.691282987594604,42.9845797920227,604.479857196808,607.239857196808,1646350765.2167,1646350765.21832,1646350774.68216,1646350774.68446,1646350776.7819,1646350780.31478,1646350780.31652,1646350781.0266,1646350781.01469,1646351342.50997,0
105,4,1,3,3,6,1,c1_WhyFace,1,admiring?,5,F_759.jpg,1646350735.27011,1646350735.28064,27.186587562561,9.45251035690308,36.6520500087738,38.7517831230164,0.3,43.3012053871155,0.5166015625,43.8195350074768,1,left,0.498729944229126,43.8178069496155,604.479857196808,607.239857196808,1646350765.2167,1646350765.21832,1646350774.68216,1646350774.68446,1646350776.7819,1646350781.33132,1646350781.33326,1646350781.84965,1646350781.84792,1646351342.50997,1
105,4,1,3,3,7,1,c1_WhyFace,1,admiring?,7,F_648.jpg,1646350735.27011,1646350735.28064,27.186587562561,9.45251035690308,36.6520500087738,38.7517831230164,0.3,44.1344323062897,0.683246850967407,44.8194880390167,1,left,0.666568994522095,44.8176791572571,604.479857196808,607.239857196808,1646350765.2167,1646350765.21832,1646350774.68216,1646350774.68446,1646350776.7819,1646350782.16455,1646350782.16643,1646350782.8496,1646350782.84779,1646351342.50997,1
105,4,1,3,3,8,1,c1_WhyFace,2,admiring?,2,F_129.jpg,1646350735.27011,1646350735.28064,27.186587562561,9.45251035690308,36.6520500087738,38.7517831230164,0.3,45.1343057060242,0.799899101257324,45.9444439315796,3,right,0.792948961257935,45.9342048072815,604.479857196808,607.239857196808,1646350765.2167,1646350765.21832,1646350774.68216,1646350774.68446,1646350776.7819,1646350783.16442,1646350783.16587,1646350783.97456,1646350783.96432,1646351342.50997,0
105,4,1,3,4,1,3,c3_HowFace,1,smiling?,119,F_139.jpg,1646350735.27011,1646350735.28064,46.0341911220551,9.56900691986084,55.6163065338135,57.7160394096375,2.09973287582397,57.8660211467743,0.649916410446167,58.5221910381317,1,left,0.631103038787842,58.5159375572205,604.479857196808,607.239857196808,1646350784.0643,1646350784.07519,1646350793.64642,1646350793.65507,1646350795.74615,1646350795.89613,1646350795.9029,1646350796.5523,1646350796.54605,1646351342.50997,1
105,4,1,3,4,2,3,c3_HowFace,2,smiling?,113,F_712.jpg,1646350735.27011,1646350735.28064,46.0341911220551,9.56900691986084,55.6163065338135,57.7160394096375,0.3,58.8325645828247,0.633251905441284,59.4714500808716,3,right,0.61702299118042,59.465816488266,604.479857196808,607.239857196808,1646350784.0643,1646350784.07519,1646350793.64642,1646350793.65507,1646350795.74615,1646350796.86268,1646350796.86472,1646350797.50156,1646350797.49593,1646351342.50997,0
105,4,1,3,4,3,3,c3_HowFace,1,smiling?,115,F_695.jpg,1646350735.27011,1646350735.28064,46.0341911220551,9.56900691986084,55.6163065338135,57.7160394096375,0.3,59.782444229126,0.883219480514526,60.6709899806976,3,right,0.865891218185425,60.6656637096405,604.479857196808,607.239857196808,1646350784.0643,1646350784.07519,1646350793.64642,1646350793.65507,1646350795.74615,1646350797.81256,1646350797.81447,1646350798.7011,1646350798.69578,1646351342.50997,0
105,4,1,3,4,4,3,c3_HowFace,2,smiling?,120,F_758.jpg,1646350735.27011,1646350735.28064,46.0341911220551,9.56900691986084,55.6163065338135,57.7160394096375,0.3,60.9822904968262,0.633252620697021,61.6205289268494,3,right,0.621233940124512,61.6155431175232,604.479857196808,607.239857196808,1646350784.0643,1646350784.07519,1646350793.64642,1646350793.65507,1646350795.74615,1646350799.0124,1646350799.01399,1646350799.65064,1646350799.64566,1646351342.50997,0
105,4,1,3,4,5,3,c3_HowFace,1,smiling?,116,F_083.jpg,1646350735.27011,1646350735.28064,46.0341911220551,9.56900691986084,55.6163065338135,57.7160394096375,0.3,61.9321691894531,0.549931287765503,62.4835901165009,1,left,0.529536962509155,62.4821004772186,604.479857196808,607.239857196808,1646350784.0643,1646350784.07519,1646350793.64642,1646350793.65507,1646350795.74615,1646350799.96228,1646350799.96363,1646350800.5137,1646350800.51221,1646351342.50997,1
105,4,1,3,4,6,3,c3_HowFace,1,smiling?,118,F_759.jpg,1646350735.27011,1646350735.28064,46.0341911220551,9.56900691986084,55.6163065338135,57.7160394096375,0.3,62.7987265491486,0.499936819076538,63.3028869533539,1,left,0.476299047470093,63.2986633682251,604.479857196808,607.239857196808,1646350784.0643,1646350784.07519,1646350793.64642,1646350793.65507,1646350795.74615,1646350800.82884,1646350800.8335,1646350801.333,1646350801.32878,1646351342.50997,1
105,4,1,3,4,7,3,c3_HowFace,2,smiling?,114,F_412.jpg,1646350735.27011,1646350735.28064,46.0341911220551,9.56900691986084,55.6163065338135,57.7160394096375,0.3,63.615289440155,0.583258628845215,64.2002761268616,3,right,0.559657096862793,64.1985480690002,604.479857196808,607.239857196808,1646350784.0643,1646350784.07519,1646350793.64642,1646350793.65507,1646350795.74615,1646350801.6454,1646350801.64964,1646350802.23039,1646350802.22866,1646351342.50997,0
105,4,1,3,4,8,3,c3_HowFace,1,smiling?,117,F_593.jpg,1646350735.27011,1646350735.28064,46.0341911220551,9.56900691986084,55.6163065338135,57.7160394096375,0.3,64.5151743793487,0.583260297775269,65.1014730834961,1,left,0.572038173675537,65.098434677124,604.479857196808,607.239857196808,1646350784.0643,1646350784.07519,1646350793.64642,1646350793.65507,1646350795.74615,1646350802.54529,1646350802.54918,1646350803.13159,1646350803.12855,1646351342.50997,1
105,4,1,3,5,1,4,c4_HowHand,1,lifting?,56,H_136.jpg,1646350735.27011,1646350735.28064,65.1650915050507,7.96875953674316,73.1474099063873,75.2471430206299,2.09973311424255,75.3971245193481,0.999872922897339,76.3980169200897,1,left,0.981950998306274,76.3969974422455,604.479857196808,607.239857196808,1646350803.1952,1646350803.19878,1646350811.17752,1646350811.1804,1646350813.27726,1646350813.42724,1646350813.42908,1646350814.42813,1646350814.42711,1646351342.50997,1
105,4,1,3,5,2,4,c4_HowHand,2,lifting?,51,H_038.jpg,1646350735.27011,1646350735.28064,65.1650915050507,7.96875953674316,73.1474099063873,75.2471430206299,0.3,76.7136244678497,0.583258867263794,77.3120748901367,3,right,0.575347185134888,77.2968833351135,604.479857196808,607.239857196808,1646350803.1952,1646350803.19878,1646350811.17752,1646350811.1804,1646350813.27726,1646350814.74374,1646350814.74548,1646350815.34219,1646350815.327,1646351342.50997,0
105,4,1,3,5,3,4,c4_HowHand,1,lifting?,52,H_189.jpg,1646350735.27011,1646350735.28064,65.1650915050507,7.96875953674316,73.1474099063873,75.2471430206299,0.3,77.613509645462,0.716575860977173,78.3317160511017,1,left,0.701489925384521,78.3300855064392,604.479857196808,607.239857196808,1646350803.1952,1646350803.19878,1646350811.17752,1646350811.1804,1646350813.27726,1646350815.64362,1646350815.64485,1646350816.36183,1646350816.3602,1646351342.50997,1
105,4,1,3,5,4,4,c4_HowHand,2,lifting?,53,H_077.jpg,1646350735.27011,1646350735.28064,65.1650915050507,7.96875953674316,73.1474099063873,75.2471430206299,0.3,78.6467113399506,0.599924087524414,79.2618029022217,3,right,0.590590953826904,79.246635427475,604.479857196808,607.239857196808,1646350803.1952,1646350803.19878,1646350811.17752,1646350811.1804,1646350813.27726,1646350816.67682,1646350816.67818,1646350817.29192,1646350817.27675,1646351342.50997,0
105,4,1,3,5,5,4,c4_HowHand,1,lifting?,50,H_443.jpg,1646350735.27011,1646350735.28064,65.1650915050507,7.96875953674316,73.1474099063873,75.2471430206299,0.3,79.5632617378235,0.633252859115601,80.1982030773163,1,left,0.616626024246216,80.1965145969391,604.479857196808,607.239857196808,1646350803.1952,1646350803.19878,1646350811.17752,1646350811.1804,1646350813.27726,1646350817.59337,1646350817.59495,1646350818.22832,1646350818.22663,1646351342.50997,1
105,4,1,3,5,6,4,c4_HowHand,2,lifting?,55,H_012.jpg,1646350735.27011,1646350735.28064,65.1650915050507,7.96875953674316,73.1474099063873,75.2471430206299,0.3,80.5131411457062,0.61658787727356,81.1312489414215,3,right,0.604398965835571,81.1297290229797,604.479857196808,607.239857196808,1646350803.1952,1646350803.19878,1646350811.17752,1646350811.1804,1646350813.27726,1646350818.54325,1646350818.54497,1646350819.16136,1646350819.15984,1646351342.50997,0
105,4,1,3,5,7,4,c4_HowHand,1,lifting?,49,H_362.jpg,1646350735.27011,1646350735.28064,65.1650915050507,7.96875953674316,73.1474099063873,75.2471430206299,0.3,81.4463558101654,0.583259105682373,82.0313789749145,1,left,0.563104867935181,82.0296149158478,604.479857196808,607.239857196808,1646350803.1952,1646350803.19878,1646350811.17752,1646350811.1804,1646350813.27726,1646350819.47647,1646350819.47828,1646350820.06149,1646350820.05973,1646351342.50997,1
105,4,1,3,5,8,4,c4_HowHand,1,lifting?,54,H_170.jpg,1646350735.27011,1646350735.28064,65.1650915050507,7.96875953674316,73.1474099063873,75.2471430206299,0.3,82.3462405109405,0.749905824661255,83.097784986496,1,left,0.736061096191406,83.0961463356018,604.479857196808,607.239857196808,1646350803.1952,1646350803.19878,1646350811.17752,1646350811.1804,1646350813.27726,1646350820.37635,1646350820.37824,1646350821.1279,1646350821.12626,1646351342.50997,1
105,4,1,3,6,1,2,c2_WhyHand,1,helping?,38,H_077.jpg,1646350735.27011,1646350735.28064,83.1961338424683,12.418927192688,95.6278855705261,97.7276198768616,2.09973430633545,97.8775992298126,0.549931049346924,98.4349579715729,1,left,0.531891822814941,98.4275302791595,604.479857196808,607.239857196808,1646350821.22625,1646350821.22807,1646350833.658,1646350833.65954,1646350835.75773,1646350835.90771,1646350835.91605,1646350836.46507,1646350836.45764,1646351342.50997,1
105,4,1,3,6,2,2,c2_WhyHand,1,helping?,36,H_349.jpg,1646350735.27011,1646350735.28064,83.1961338424683,12.418927192688,95.6278855705261,97.7276198768616,0.3,98.7441563510895,0.566595315933228,99.3184039497375,1,left,0.550994873046875,99.3107516670227,604.479857196808,607.239857196808,1646350821.22625,1646350821.22807,1646350833.658,1646350833.65954,1646350835.75773,1646350836.77427,1646350836.77579,1646350837.34852,1646350837.34086,1646351342.50997,1
105,4,1,3,6,3,2,c2_WhyHand,1,helping?,37,H_474.jpg,1646350735.27011,1646350735.28064,83.1961338424683,12.418927192688,95.6278855705261,97.7276198768616,0.3,99.6273772621155,0.666582107543945,100.295910110474,1,left,0.642674207687378,100.293959369659,604.479857196808,607.239857196808,1646350821.22625,1646350821.22807,1646350833.658,1646350833.65954,1646350835.75773,1646350837.65749,1646350837.65925,1646350838.32602,1646350838.32407,1646351342.50997,1
105,4,1,3,6,4,2,c2_WhyHand,1,helping?,39,H_024.jpg,1646350735.27011,1646350735.28064,83.1961338424683,12.418927192688,95.6278855705261,97.7276198768616,0.3,100.610585441589,0.766568899154663,101.384094944,1,left,0.749708890914917,101.377154340744,604.479857196808,607.239857196808,1646350821.22625,1646350821.22807,1646350833.658,1646350833.65954,1646350835.75773,1646350838.6407,1646350838.6424,1646350839.41421,1646350839.40727,1646351342.50997,1
105,4,1,3,6,5,2,c2_WhyHand,2,helping?,40,H_012.jpg,1646350735.27011,1646350735.28064,83.1961338424683,12.418927192688,95.6278855705261,97.7276198768616,0.3,101.693781604767,0.516601324081421,102.217010011673,1,left,0.503804922103882,102.210382928848,604.479857196808,607.239857196808,1646350821.22625,1646350821.22807,1646350833.658,1646350833.65954,1646350835.75773,1646350839.72389,1646350839.72538,1646350840.24712,1646350840.2405,1646351342.50997,0
105,4,1,3,6,6,2,c2_WhyHand,2,helping?,35,H_159.jpg,1646350735.27011,1646350735.28064,83.1961338424683,12.418927192688,95.6278855705261,97.7276198768616,0.3,102.52700876236,1.0332019329071,103.56124710083,3,right,1.01298689842224,103.560210695267,604.479857196808,607.239857196808,1646350821.22625,1646350821.22807,1646350833.658,1646350833.65954,1646350835.75773,1646350840.55712,1646350840.55882,1646350841.59136,1646350841.59032,1646351342.50997,0
105,4,1,3,6,7,2,c2_WhyHand,1,helping?,34,H_111.jpg,1646350735.27011,1646350735.28064,83.1961338424683,12.418927192688,95.6278855705261,97.7276198768616,0.3,103.876837244034,1.14985299110413,105.031613101959,1,left,1.13715982437134,105.026690235138,604.479857196808,607.239857196808,1646350821.22625,1646350821.22807,1646350833.658,1646350833.65954,1646350835.75773,1646350841.90695,1646350841.90851,1646350843.06173,1646350843.0568,1646351342.50997,1
105,4,1,3,6,8,2,c2_WhyHand,2,helping?,33,H_091.jpg,1646350735.27011,1646350735.28064,83.1961338424683,12.418927192688,95.6278855705261,97.7276198768616,0.3,105.343317499161,0.833227157592773,106.178101053238,3,right,0.813192129135132,106.176544656754,604.479857196808,607.239857196808,1646350821.22625,1646350821.22807,1646350833.658,1646350833.65954,1646350835.75773,1646350843.37343,1646350843.375,1646350844.20821,1646350844.20666,1646351342.50997,0
105,4,1,3,7,1,1,c1_WhyFace,1,proud?,104,F_598.jpg,1646350735.27011,1646350735.28064,106.243202438354,7.24683260917664,113.50894569397,115.608678331375,2.0997326374054,115.758659830093,0.649918079376221,116.410355081558,1,left,0.635158777236938,116.40857790947,604.479857196808,607.239857196808,1646350844.27332,1646350844.27814,1646350851.53906,1646350851.54201,1646350853.63879,1646350853.78877,1646350853.79068,1646350854.44047,1646350854.43869,1646351342.50997,1
105,4,1,3,7,2,1,c1_WhyFace,2,proud?,102,F_760.jpg,1646350735.27011,1646350735.28064,106.243202438354,7.24683260917664,113.50894569397,115.608678331375,0.3,116.725203266144,0.599924564361572,117.32664393425,3,right,0.578074932098389,117.325127830505,604.479857196808,607.239857196808,1646350844.27332,1646350844.27814,1646350851.53906,1646350851.54201,1646350853.63879,1646350854.75532,1646350854.75717,1646350855.35676,1646350855.35524,1646351342.50997,0
105,4,1,3,7,3,1,c1_WhyFace,1,proud?,97,F_582.jpg,1646350735.27011,1646350735.28064,106.243202438354,7.24683260917664,113.50894569397,115.608678331375,0.3,117.641753664017,0.583259105682373,118.2267811203,1,left,0.568944931030273,118.225012769699,604.479857196808,607.239857196808,1646350844.27332,1646350844.27814,1646350851.53906,1646350851.54201,1646350853.63879,1646350855.67187,1646350855.67346,1646350856.25689,1646350856.25513,1646351342.50997,1
105,4,1,3,7,4,1,c1_WhyFace,2,proud?,98,F_412.jpg,1646350735.27011,1646350735.28064,106.243202438354,7.24683260917664,113.50894569397,115.608678331375,0.3,118.541640033722,0.59992241859436,119.142590990067,3,right,0.587748050689697,119.141562452316,604.479857196808,607.239857196808,1646350844.27332,1646350844.27814,1646350851.53906,1646350851.54201,1646350853.63879,1646350856.57175,1646350856.57338,1646350857.1727,1646350857.17168,1646351342.50997,0
105,4,1,3,7,5,1,c1_WhyFace,1,proud?,101,F_083.jpg,1646350735.27011,1646350735.28064,106.243202438354,7.24683260917664,113.50894569397,115.608678331375,0.3,119.458189954758,0.599923849105835,120.059145917892,1,left,0.587479829788208,120.058113803864,604.479857196808,607.239857196808,1646350844.27332,1646350844.27814,1646350851.53906,1646350851.54201,1646350853.63879,1646350857.4883,1646350857.48995,1646350858.08926,1646350858.08823,1646351342.50997,1
105,4,1,3,7,6,1,c1_WhyFace,2,proud?,100,F_776.jpg,1646350735.27011,1646350735.28064,106.243202438354,7.24683260917664,113.50894569397,115.608678331375,0.3,120.374739160538,0.666582584381104,121.057068099976,3,right,0.65890097618103,121.041321744919,604.479857196808,607.239857196808,1646350844.27332,1646350844.27814,1646350851.53906,1646350851.54201,1646350853.63879,1646350858.40485,1646350858.40661,1646350859.08718,1646350859.07143,1646351342.50997,0
105,4,1,3,7,7,1,c1_WhyFace,1,proud?,103,F_618.jpg,1646350735.27011,1646350735.28064,106.243202438354,7.24683260917664,113.50894569397,115.608678331375,0.3,121.357948532104,0.61658787727356,121.97609495163,1,left,0.603871822357178,121.974536409378,604.479857196808,607.239857196808,1646350844.27332,1646350844.27814,1646350851.53906,1646350851.54201,1646350853.63879,1646350859.38806,1646350859.39,1646350860.00621,1646350860.00465,1646351342.50997,1
105,4,1,3,7,8,1,c1_WhyFace,1,proud?,99,F_695.jpg,1646350735.27011,1646350735.28064,106.243202438354,7.24683260917664,113.50894569397,115.608678331375,0.3,122.291162242889,0.783233880996704,123.075894107819,1,left,0.772948980331421,123.074396123886,604.479857196808,607.239857196808,1646350844.27332,1646350844.27814,1646350851.53906,1646350851.54201,1646350853.63879,1646350860.32128,1646350860.32313,1646350861.10601,1646350861.10451,1646351342.50997,1
105,4,1,3,8,1,3,c3_HowFace,1,looking to side?,72,F_590.jpg,1646350735.27011,1646350735.28064,123.141054382324,7.87886452674866,131.023385753632,133.123118629456,2.09973287582397,133.273099412918,0.766570329666138,134.040812959671,3,right,0.73661208152771,134.039669742584,604.479857196808,607.239857196808,1646350861.17117,1646350861.17291,1646350869.0535,1646350869.06629,1646350871.15323,1646350871.30321,1646350871.31517,1646350872.07093,1646350872.06978,1646351342.50997,0
105,4,1,3,8,2,3,c3_HowFace,1,looking to side?,71,F_433.jpg,1646350735.27011,1646350735.28064,123.141054382324,7.87886452674866,131.023385753632,133.123118629456,0.3,134.356295099258,0.74990439414978,135.10784696579,1,left,0.731310129165649,135.106199493408,604.479857196808,607.239857196808,1646350861.17117,1646350861.17291,1646350869.0535,1646350869.06629,1646350871.15323,1646350872.38641,1646350872.38833,1646350873.13796,1646350873.13631,1646351342.50997,1
105,4,1,3,8,3,3,c3_HowFace,1,looking to side?,67,F_716.jpg,1646350735.27011,1646350735.28064,123.141054382324,7.87886452674866,131.023385753632,133.123118629456,0.3,135.422827472687,0.649916410446167,136.073871126175,1,left,0.633067846298218,136.072743883133,604.479857196808,607.239857196808,1646350861.17117,1646350861.17291,1646350869.0535,1646350869.06629,1646350871.15323,1646350873.45294,1646350873.45478,1646350874.10398,1646350874.10286,1646351342.50997,1
105,4,1,3,8,4,3,c3_HowFace,2,looking to side?,70,F_779.jpg,1646350735.27011,1646350735.28064,123.141054382324,7.87886452674866,131.023385753632,133.123118629456,0.3,136.389370193481,0.666582345962524,137.056987037659,3,right,0.650700807571411,137.055952539444,604.479857196808,607.239857196808,1646350861.17117,1646350861.17291,1646350869.0535,1646350869.06629,1646350871.15323,1646350874.41948,1646350874.42125,1646350875.0871,1646350875.08607,1646351342.50997,0
105,4,1,3,8,5,3,c3_HowFace,1,looking to side?,68,F_760.jpg,1646350735.27011,1646350735.28064,123.141054382324,7.87886452674866,131.023385753632,133.123118629456,0.3,137.372577896118,0.783234834671021,138.165050020218,1,left,0.770049095153809,138.155812730789,604.479857196808,607.239857196808,1646350861.17117,1646350861.17291,1646350869.0535,1646350869.06629,1646350871.15323,1646350875.40269,1646350875.40455,1646350876.19516,1646350876.18593,1646351342.50997,1
105,4,1,3,8,6,3,c3_HowFace,2,looking to side?,66,F_111.jpg,1646350735.27011,1646350735.28064,123.141054382324,7.87886452674866,131.023385753632,133.123118629456,0.3,138.472438564301,0.69991135597229,139.18161605835,3,right,0.688787937164307,139.172349920273,604.479857196808,607.239857196808,1646350861.17117,1646350861.17291,1646350869.0535,1646350869.06629,1646350871.15323,1646350876.50255,1646350876.50419,1646350877.21173,1646350877.20246,1646351342.50997,0
105,4,1,3,8,7,3,c3_HowFace,1,looking to side?,69,F_110.jpg,1646350735.27011,1646350735.28064,123.141054382324,7.87886452674866,131.023385753632,133.123118629456,0.3,139.48897646904,1.01653671264648,140.513771047592,3,right,1.00705313682556,140.505513181686,604.479857196808,607.239857196808,1646350861.17117,1646350861.17291,1646350869.0535,1646350869.06629,1646350871.15323,1646350877.51909,1646350877.52093,1646350878.54388,1646350878.53563,1646351342.50997,0
105,4,1,3,8,8,3,c3_HowFace,2,looking to side?,65,F_798.jpg,1646350735.27011,1646350735.28064,123.141054382324,7.87886452674866,131.023385753632,133.123118629456,0.3,140.822139730454,0.916550636291504,141.746998062134,3,right,0.90393590927124,141.738690366745,604.479857196808,607.239857196808,1646350861.17117,1646350861.17291,1646350869.0535,1646350869.06629,1646350871.15323,1646350878.85225,1646350878.85409,1646350879.77711,1646350879.7688,1646351342.50997,0
105,4,1,3,9,1,1,c1_WhyFace,1,argument?,43,F_716.jpg,1646350735.27011,1646350735.28064,141.805348148346,8.32253980636597,150.137622823715,152.237357606888,2.09973478317261,152.38733672142,0.849890947341919,153.240864028931,1,left,0.832333087921143,153.237227668762,604.479857196808,607.239857196808,1646350879.83546,1646350879.84333,1646350888.16774,1646350888.17338,1646350890.26747,1646350890.41745,1646350890.42203,1646350891.27098,1646350891.26734,1646351342.50997,1
105,4,1,3,9,2,1,c1_WhyFace,2,argument?,44,F_139.jpg,1646350735.27011,1646350735.28064,141.805348148346,8.32253980636597,150.137622823715,152.237357606888,0.3,153.553854455948,0.716576337814331,154.274548044205,3,right,0.693745851516724,154.270430793762,604.479857196808,607.239857196808,1646350879.83546,1646350879.84333,1646350888.16774,1646350888.17338,1646350890.26747,1646350891.58397,1646350891.58805,1646350892.30466,1646350892.30054,1646351342.50997,0
105,4,1,3,9,3,1,c1_WhyFace,1,argument?,41,F_712.jpg,1646350735.27011,1646350735.28064,141.805348148346,8.32253980636597,150.137622823715,152.237357606888,0.3,154.587056627274,0.533266067504883,155.123121013641,1,left,0.520365953445435,155.120322694778,604.479857196808,607.239857196808,1646350879.83546,1646350879.84333,1646350888.16774,1646350888.17338,1646350890.26747,1646350892.61717,1646350892.62078,1646350893.15323,1646350893.15044,1646351342.50997,1
105,4,1,3,9,4,1,c1_WhyFace,2,argument?,45,F_433.jpg,1646350735.27011,1646350735.28064,141.805348148346,8.32253980636597,150.137622823715,152.237357606888,0.3,155.436948289871,0.716575860977173,156.1564249897,3,right,0.697021007537842,156.153524150848,604.479857196808,607.239857196808,1646350879.83546,1646350879.84333,1646350888.16774,1646350888.17338,1646350890.26747,1646350893.46706,1646350893.47006,1646350894.18654,1646350894.18364,1646351342.50997,0
105,4,1,3,9,5,1,c1_WhyFace,1,argument?,42,F_403.jpg,1646350735.27011,1646350735.28064,141.805348148346,8.32253980636597,150.137622823715,152.237357606888,0.3,156.470150461197,0.816563129425049,157.289377918243,1,left,0.801690816879272,157.286713590622,604.479857196808,607.239857196808,1646350879.83546,1646350879.84333,1646350888.16774,1646350888.17338,1646350890.26747,1646350894.50026,1646350894.50317,1646350895.31949,1646350895.31683,1646351342.50997,1
105,4,1,3,9,6,1,c1_WhyFace,2,argument?,46,F_844.jpg,1646350735.27011,1646350735.28064,141.805348148346,8.32253980636597,150.137622823715,152.237357606888,0.3,157.603339424133,0.566595315933228,158.172328939438,3,right,0.544075965881348,158.169934740067,604.479857196808,607.239857196808,1646350879.83546,1646350879.84333,1646350888.16774,1646350888.17338,1646350890.26747,1646350895.63345,1646350895.63569,1646350896.20244,1646350896.20005,1646351342.50997,0
105,4,1,3,9,7,1,c1_WhyFace,1,argument?,47,F_743.jpg,1646350735.27011,1646350735.28064,141.805348148346,8.32253980636597,150.137622823715,152.237357606888,0.3,158.486560335159,0.599924087524414,159.087892045975,1,left,0.58671498298645,159.086484422684,604.479857196808,607.239857196808,1646350879.83546,1646350879.84333,1646350888.16774,1646350888.17338,1646350890.26747,1646350896.51667,1646350896.51849,1646350897.11801,1646350897.1166,1646351342.50997,1
105,4,1,3,9,8,1,c1_WhyFace,1,argument?,48,F_758.jpg,1646350735.27011,1646350735.28064,141.805348148346,8.32253980636597,150.137622823715,152.237357606888,0.3,159.403110733032,0.749903917312622,160.15477894783,1,left,0.737869024276733,160.153014650345,604.479857196808,607.239857196808,1646350879.83546,1646350879.84333,1646350888.16774,1646350888.17338,1646350890.26747,1646350897.43322,1646350897.43501,1646350898.18489,1646350898.18313,1646351342.50997,1
105,4,1,3,10,1,3,c3_HowFace,1,open mouth?,80,F_844.jpg,1646350735.27011,1646350735.28064,160.21967338562,7.74821853637695,167.98535369873,170.085086336136,2.0997326374054,170.235067596436,0.783232688903809,171.032002916336,1,left,0.772270917892456,171.018300285339,604.479857196808,607.239857196808,1646350898.24979,1646350898.2511,1646350906.01547,1646350906.01745,1646350908.1152,1646350908.26518,1646350908.26693,1646350909.06212,1646350909.04841,1646351342.50997,1
105,4,1,3,10,2,3,c3_HowFace,1,open mouth?,74,F_776.jpg,1646350735.27011,1646350735.28064,160.21967338562,7.74821853637695,167.98535369873,170.085086336136,0.3,171.334928026199,0.499935388565063,171.836708059311,1,left,0.47870397567749,171.834863414764,604.479857196808,607.239857196808,1646350898.24979,1646350898.2511,1646350906.01547,1646350906.01745,1646350908.1152,1646350909.36504,1646350909.36701,1646350909.86682,1646350909.86498,1646351342.50997,1
105,4,1,3,10,3,3,c3_HowFace,2,open mouth?,76,F_544.jpg,1646350735.27011,1646350735.28064,160.21967338562,7.74821853637695,167.98535369873,170.085086336136,0.3,172.151489248276,0.749905586242676,172.903109064102,3,right,0.728924989700317,172.901394834518,604.479857196808,607.239857196808,1646350898.24979,1646350898.2511,1646350906.01547,1646350906.01745,1646350908.1152,1646350910.1816,1646350910.18335,1646350910.93322,1646350910.93151,1646351342.50997,0
105,4,1,3,10,4,3,c3_HowFace,1,open mouth?,78,F_692.jpg,1646350735.27011,1646350735.28064,160.21967338562,7.74821853637695,167.98535369873,170.085086336136,0.3,173.21802066803,0.449942588806152,173.669341077805,1,left,0.427995920181274,173.667963256836,604.479857196808,607.239857196808,1646350898.24979,1646350898.2511,1646350906.01547,1646350906.01745,1646350908.1152,1646350911.24813,1646350911.2501,1646350911.69945,1646350911.69808,1646351342.50997,1
105,4,1,3,10,5,3,c3_HowFace,2,open mouth?,77,F_584.jpg,1646350735.27011,1646350735.28064,160.21967338562,7.74821853637695,167.98535369873,170.085086336136,0.3,173.984590044022,0.683246374130249,174.669573059082,3,right,0.663541078567505,174.667836418152,604.479857196808,607.239857196808,1646350898.24979,1646350898.2511,1646350906.01547,1646350906.01745,1646350908.1152,1646350912.0147,1646350912.01622,1646350912.69969,1646350912.69795,1646351342.50997,0
105,4,1,3,10,6,3,c3_HowFace,1,open mouth?,73,F_403.jpg,1646350735.27011,1646350735.28064,160.21967338562,7.74821853637695,167.98535369873,170.085086336136,0.3,174.984463682175,0.44994330406189,175.446346988678,1,left,0.442728996276855,175.434406986237,604.479857196808,607.239857196808,1646350898.24979,1646350898.2511,1646350906.01547,1646350906.01745,1646350908.1152,1646350913.01458,1646350913.01596,1646350913.47646,1646350913.46452,1646351342.50997,1
105,4,1,3,10,7,3,c3_HowFace,1,open mouth?,75,F_086.jpg,1646350735.27011,1646350735.28064,160.21967338562,7.74821853637695,167.98535369873,170.085086336136,0.3,175.751032104492,0.549930095672607,176.313333978653,1,left,0.54007887840271,176.300962200165,604.479857196808,607.239857196808,1646350898.24979,1646350898.2511,1646350906.01547,1646350906.01745,1646350908.1152,1646350913.78115,1646350913.78295,1646350914.34345,1646350914.33108,1646351342.50997,1
105,4,1,3,10,8,3,c3_HowFace,2,open mouth?,79,F_648.jpg,1646350735.27011,1646350735.28064,160.21967338562,7.74821853637695,167.98535369873,170.085086336136,0.3,176.617589702606,0.599923133850098,177.218676080704,3,right,0.580651044845581,177.217512836456,604.479857196808,607.239857196808,1646350898.24979,1646350898.2511,1646350906.01547,1646350906.01745,1646350908.1152,1646350914.6477,1646350914.6491,1646350915.24879,1646350915.24763,1646351342.50997,0
105,4,1,3,11,1,4,c4_HowHand,1,pressing button?,88,H_019.jpg,1646350735.27011,1646350735.28064,177.284170856476,8.57372212409973,185.866414060593,187.966146459579,2.09973239898682,188.116127243042,0.983206987380981,189.106184949875,1,left,0.965336799621582,189.099334230423,604.479857196808,607.239857196808,1646350915.31428,1646350915.32614,1646350923.89653,1646350923.90553,1646350925.99626,1646350926.14624,1646350926.1544,1646350927.1363,1646350927.12945,1646351342.50997,1
105,4,1,3,11,2,4,c4_HowHand,2,pressing button?,87,H_024.jpg,1646350735.27011,1646350735.28064,177.284170856476,8.57372212409973,185.866414060593,187.966146459579,0.3,189.415961971283,1.46647953987122,190.888714065552,3,right,1.45627593994141,190.882441511154,604.479857196808,607.239857196808,1646350915.31428,1646350915.32614,1646350923.89653,1646350923.90553,1646350925.99626,1646350927.44607,1646350927.44737,1646350928.91883,1646350928.91255,1646351342.50997,0
105,4,1,3,11,3,4,c4_HowHand,2,pressing button?,85,H_130.jpg,1646350735.27011,1646350735.28064,177.284170856476,8.57372212409973,185.866414060593,187.966146459579,0.3,191.199068059921,0.68324613571167,191.888056983948,3,right,0.676419019699097,191.882314195633,604.479857196808,607.239857196808,1646350915.31428,1646350915.32614,1646350923.89653,1646350923.90553,1646350925.99626,1646350929.22918,1646350929.2305,1646350929.91817,1646350929.91243,1646351342.50997,0
105,4,1,3,11,4,4,c4_HowHand,1,pressing button?,83,H_502.jpg,1646350735.27011,1646350735.28064,177.284170856476,8.57372212409973,185.866414060593,187.966146459579,0.3,192.198941459656,0.766568899154663,192.971791973114,1,left,0.750015020370483,192.96551035881,604.479857196808,607.239857196808,1646350915.31428,1646350915.32614,1646350923.89653,1646350923.90553,1646350925.99626,1646350930.22905,1646350930.23053,1646350931.0019,1646350930.99562,1646351342.50997,1
105,4,1,3,11,5,4,c4_HowHand,2,pressing button?,81,H_261.jpg,1646350735.27011,1646350735.28064,177.284170856476,8.57372212409973,185.866414060593,187.966146459579,0.3,193.282137145996,0.649917602539062,193.937751045227,3,right,0.6338210105896,193.932054748535,604.479857196808,607.239857196808,1646350915.31428,1646350915.32614,1646350923.89653,1646350923.90553,1646350925.99626,1646350931.31225,1646350931.31377,1646350931.96786,1646350931.96217,1646351342.50997,0
105,4,1,3,11,6,4,c4_HowHand,1,pressing button?,86,H_332.jpg,1646350735.27011,1646350735.28064,177.284170856476,8.57372212409973,185.866414060593,187.966146459579,0.3,194.248680582047,0.533264398574829,194.786696901321,1,left,0.52362585067749,194.781944980621,604.479857196808,607.239857196808,1646350915.31428,1646350915.32614,1646350923.89653,1646350923.90553,1646350925.99626,1646350932.27879,1646350932.28079,1646350932.81681,1646350932.81206,1646351342.50997,1
105,4,1,3,11,7,4,c4_HowHand,1,pressing button?,82,H_126.jpg,1646350735.27011,1646350735.28064,177.284170856476,8.57372212409973,185.866414060593,187.966146459579,0.3,195.098572483063,0.783233880996704,195.886177053452,1,left,0.766880035400391,195.881806364059,604.479857196808,607.239857196808,1646350915.31428,1646350915.32614,1646350923.89653,1646350923.90553,1646350925.99626,1646350933.12869,1646350933.1338,1646350933.91629,1646350933.91192,1646351342.50997,1
105,4,1,3,11,8,4,c4_HowHand,1,pressing button?,84,H_483.jpg,1646350735.27011,1646350735.28064,177.284170856476,8.57372212409973,185.866414060593,187.966146459579,0.3,196.198432674408,1.333163022995,197.535990943909,1,left,1.3111400604248,197.531595697403,604.479857196808,607.239857196808,1646350915.31428,1646350915.32614,1646350923.89653,1646350923.90553,1646350925.99626,1646350934.22855,1646350934.23336,1646350935.5661,1646350935.56171,1646351342.50997,1
105,4,1,3,12,1,2,c2_WhyHand,1,competing?,9,H_261.jpg,1646350735.27011,1646350735.28064,197.614919652939,6.03297734260559,203.664150466919,205.763883342743,2.09973287582397,205.913864364624,0.666582584381104,206.581753959656,1,left,0.646034955978394,206.580446949005,604.479857196808,607.239857196808,1646350935.64503,1646350935.64932,1646350941.69426,1646350941.6964,1646350943.794,1646350943.94398,1646350943.94584,1646350944.61187,1646350944.61056,1646351342.50997,1
105,4,1,3,12,2,2,c2_WhyHand,2,competing?,12,H_483.jpg,1646350735.27011,1646350735.28064,197.614919652939,6.03297734260559,203.664150466919,205.763883342743,0.3,206.897072305679,0.699911117553711,207.597898950577,3,right,0.688564777374268,207.596983423233,604.479857196808,607.239857196808,1646350935.64503,1646350935.64932,1646350941.69426,1646350941.6964,1646350943.794,1646350944.92719,1646350944.92892,1646350945.62801,1646350945.6271,1646351342.50997,0
105,4,1,3,12,3,2,c2_WhyHand,1,competing?,14,H_132.jpg,1646350735.27011,1646350735.28064,197.614919652939,6.03297734260559,203.664150466919,205.763883342743,0.3,207.913610925674,0.933213949203491,208.847921123505,1,left,0.918992042541504,208.846824874878,604.479857196808,607.239857196808,1646350935.64503,1646350935.64932,1646350941.69426,1646350941.6964,1646350943.794,1646350945.94372,1646350945.9452,1646350946.87803,1646350946.87694,1646351342.50997,1
105,4,1,3,12,4,2,c2_WhyHand,2,competing?,10,H_126.jpg,1646350735.27011,1646350735.28064,197.614919652939,6.03297734260559,203.664150466919,205.763883342743,0.3,209.163451423645,0.716575145721436,209.881395092011,3,right,0.70409107208252,209.880026569366,604.479857196808,607.239857196808,1646350935.64503,1646350935.64932,1646350941.69426,1646350941.6964,1646350943.794,1646350947.19356,1646350947.19491,1646350947.91151,1646350947.91014,1646351342.50997,0
105,4,1,3,12,5,2,c2_WhyHand,1,competing?,16,H_136.jpg,1646350735.27011,1646350735.28064,197.614919652939,6.03297734260559,203.664150466919,205.763883342743,0.3,210.196652402878,0.949878692626953,211.148159017563,1,left,0.936726093292236,211.146531095505,604.479857196808,607.239857196808,1646350935.64503,1646350935.64932,1646350941.69426,1646350941.6964,1646350943.794,1646350948.22677,1646350948.22893,1646350949.17827,1646350949.17664,1646351342.50997,1
105,4,1,3,12,6,2,c2_WhyHand,2,competing?,11,H_502.jpg,1646350735.27011,1646350735.28064,197.614919652939,6.03297734260559,203.664150466919,205.763883342743,0.3,211.46315788269,0.749905109405518,212.22844909668,3,right,0.74242115020752,212.213062992096,604.479857196808,607.239857196808,1646350935.64503,1646350935.64932,1646350941.69426,1646350941.6964,1646350943.794,1646350949.49327,1646350949.49493,1646350950.25856,1646350950.24318,1646351342.50997,0
105,4,1,3,12,7,2,c2_WhyHand,1,competing?,13,H_003.jpg,1646350735.27011,1646350735.28064,197.614919652939,6.03297734260559,203.664150466919,205.763883342743,0.3,212.529689540863,0.866557121276855,213.397949924469,1,left,0.845171213150024,213.39624666214,604.479857196808,607.239857196808,1646350935.64503,1646350935.64932,1646350941.69426,1646350941.6964,1646350943.794,1646350950.5598,1646350950.56184,1646350951.42806,1646350951.42636,1646351342.50997,1
105,4,1,3,12,8,2,c2_WhyHand,1,competing?,15,H_170.jpg,1646350735.27011,1646350735.28064,197.614919652939,6.03297734260559,203.664150466919,205.763883342743,0.3,213.71287273407,0.616589069366455,214.330703010559,1,left,0.602231025695801,214.329461803436,604.479857196808,607.239857196808,1646350935.64503,1646350935.64932,1646350941.69426,1646350941.6964,1646350943.794,1646350951.74299,1646350951.74487,1646350952.36082,1646350952.35957,1646351342.50997,1
105,4,1,3,13,1,1,c1_WhyFace,1,self-doubt?,29,F_544.jpg,1646350735.27011,1646350735.28064,214.396119585037,7.32187438011169,221.728520383835,223.828253259659,2.09973287582397,223.978234758377,0.68324613571167,224.662652959824,1,left,0.665086984634399,224.661480894089,604.479857196808,607.239857196808,1646350952.42623,1646350952.42778,1646350959.75863,1646350959.76043,1646350961.85837,1646350962.00835,1646350962.01016,1646350962.69277,1646350962.69159,1646351342.50997,1
105,4,1,3,13,2,1,c1_WhyFace,2,self-doubt?,27,F_086.jpg,1646350735.27011,1646350735.28064,214.396119585037,7.32187438011169,221.728520383835,223.828253259659,0.3,224.978107204437,0.566594123840332,225.545790901184,3,right,0.552098035812378,225.544701328278,604.479857196808,607.239857196808,1646350952.42623,1646350952.42778,1646350959.75863,1646350959.76043,1646350961.85837,1646350963.00822,1646350963.00977,1646350963.5759,1646350963.57481,1646351342.50997,0
105,4,1,3,13,3,1,c1_WhyFace,1,self-doubt?,25,F_798.jpg,1646350735.27011,1646350735.28064,214.396119585037,7.32187438011169,221.728520383835,223.828253259659,0.3,225.861327400208,0.516602277755737,226.379317989349,1,left,0.500025987625122,226.377929677963,604.479857196808,607.239857196808,1646350952.42623,1646350952.42778,1646350959.75863,1646350959.76043,1646350961.85837,1646350963.89144,1646350963.89294,1646350964.40943,1646350964.40804,1646351342.50997,1
105,4,1,3,13,4,1,c1_WhyFace,1,self-doubt?,26,F_111.jpg,1646350735.27011,1646350735.28064,214.396119585037,7.32187438011169,221.728520383835,223.828253259659,0.3,226.694555511475,0.533266067504883,227.229326953888,1,left,0.512222051620483,227.22782157898,604.479857196808,607.239857196808,1646350952.42623,1646350952.42778,1646350959.75863,1646350959.76043,1646350961.85837,1646350964.72467,1646350964.72656,1646350965.25944,1646350965.25793,1646351342.50997,1
105,4,1,3,13,5,1,c1_WhyFace,2,self-doubt?,31,F_774.jpg,1646350735.27011,1646350735.28064,214.396119585037,7.32187438011169,221.728520383835,223.828253259659,0.3,227.544447889328,0.49993634223938,228.045772066116,3,right,0.483983993530273,228.044384231567,604.479857196808,607.239857196808,1646350952.42623,1646350952.42778,1646350959.75863,1646350959.76043,1646350961.85837,1646350965.57456,1646350965.57652,1646350966.07589,1646350966.0745,1646351342.50997,0
105,4,1,3,13,6,1,c1_WhyFace,1,self-doubt?,28,F_754.jpg,1646350735.27011,1646350735.28064,214.396119585037,7.32187438011169,221.728520383835,223.828253259659,0.3,228.361010541916,0.716574907302856,229.086549034119,1,left,0.706881046295166,229.077585449219,604.479857196808,607.239857196808,1646350952.42623,1646350952.42778,1646350959.75863,1646350959.76043,1646350961.85837,1646350966.39112,1646350966.39311,1646350967.11666,1646350967.1077,1646351342.50997,1
105,4,1,3,13,7,1,c1_WhyFace,2,self-doubt?,32,F_128.jpg,1646350735.27011,1646350735.28064,214.396119585037,7.32187438011169,221.728520383835,223.828253259659,0.3,229.394212713242,0.99987268447876,230.395874013901,3,right,0.979286909103394,230.39408539772,604.479857196808,607.239857196808,1646350952.42623,1646350952.42778,1646350959.75863,1646350959.76043,1646350961.85837,1646350967.42433,1646350967.42602,1646350968.42599,1646350968.4242,1646351342.50997,0
105,4,1,3,13,8,1,c1_WhyFace,1,self-doubt?,30,F_584.jpg,1646350735.27011,1646350735.28064,214.396119585037,7.32187438011169,221.728520383835,223.828253259659,0.3,230.710711231232,1.14985394477844,231.868122091293,3,right,1.13708710670471,231.86056517601,604.479857196808,607.239857196808,1646350952.42623,1646350952.42778,1646350959.75863,1646350959.76043,1646350961.85837,1646350968.74082,1646350968.74319,1646350969.89824,1646350969.89068,1646351342.50997,0
105,4,1,3,14,1,3,c3_HowFace,1,looking at camera?,64,F_128.jpg,1646350735.27011,1646350735.28064,231.94388841629,8.82799649238586,240.776098241806,242.87583111763,2.09973287582397,243.02581237793,0.616588592529297,243.645430078506,1,left,0.605771064758301,243.642400970459,604.479857196808,607.239857196808,1646350969.974,1646350969.97568,1646350978.80621,1646350978.81127,1646350980.90594,1646350981.05593,1646350981.05996,1646350981.67554,1646350981.67251,1646351342.50997,1
105,4,1,3,14,2,3,c3_HowFace,1,looking at camera?,60,F_618.jpg,1646350735.27011,1646350735.28064,231.94388841629,8.82799649238586,240.776098241806,242.87583111763,0.3,243.959027519226,0.61658763885498,244.576736917496,1,left,0.591287136077881,244.575615158081,604.479857196808,607.239857196808,1646350969.974,1646350969.97568,1646350978.80621,1646350978.81127,1646350980.90594,1646350981.98914,1646350981.99287,1646350982.60685,1646350982.60573,1646351342.50997,1
105,4,1,3,14,3,3,c3_HowFace,1,looking at camera?,62,F_598.jpg,1646350735.27011,1646350735.28064,231.94388841629,8.82799649238586,240.776098241806,242.87583111763,0.3,244.892240991592,0.616589307785034,245.511347045898,1,left,0.605643033981323,245.508830299377,604.479857196808,607.239857196808,1646350969.974,1646350969.97568,1646350978.80621,1646350978.81127,1646350980.90594,1646350982.92235,1646350982.92562,1646350983.54146,1646350983.53894,1646351342.50997,1
105,4,1,3,14,4,3,c3_HowFace,2,looking at camera?,63,F_743.jpg,1646350735.27011,1646350735.28064,231.94388841629,8.82799649238586,240.776098241806,242.87583111763,0.3,245.825456371307,0.633251905441284,246.461513032913,3,right,0.616909980773926,246.458708276749,604.479857196808,607.239857196808,1646350969.974,1646350969.97568,1646350978.80621,1646350978.81127,1646350980.90594,1646350983.85557,1646350983.85837,1646350984.49163,1646350984.48882,1646351342.50997,0
105,4,1,3,14,5,3,c3_HowFace,1,looking at camera?,61,F_774.jpg,1646350735.27011,1646350735.28064,231.94388841629,8.82799649238586,240.776098241806,242.87583111763,0.3,246.775335540771,0.566594362258911,247.343883981705,1,left,0.547150850296021,247.34192990303,604.479857196808,607.239857196808,1646350969.974,1646350969.97568,1646350978.80621,1646350978.81127,1646350980.90594,1646350984.80545,1646350984.80766,1646350985.374,1646350985.37204,1646351342.50997,1
105,4,1,3,14,6,3,c3_HowFace,2,looking at camera?,57,F_582.jpg,1646350735.27011,1646350735.28064,231.94388841629,8.82799649238586,240.776098241806,242.87583111763,0.3,247.658556451797,0.766570329666138,248.427087059021,3,right,0.751107931137085,248.425126781464,604.479857196808,607.239857196808,1646350969.974,1646350969.97568,1646350978.80621,1646350978.81127,1646350980.90594,1646350985.68867,1646350985.69092,1646350986.4572,1646350986.45524,1646351342.50997,0
105,4,1,3,14,7,3,c3_HowFace,2,looking at camera?,58,F_754.jpg,1646350735.27011,1646350735.28064,231.94388841629,8.82799649238586,240.776098241806,242.87583111763,0.3,248.741752138138,0.716574907302856,249.459290971756,3,right,0.709336996078491,249.458327045441,604.479857196808,607.239857196808,1646350969.974,1646350969.97568,1646350978.80621,1646350978.81127,1646350980.90594,1646350986.77187,1646350986.7739,1646350987.4894,1646350987.48844,1646351342.50997,0
105,4,1,3,14,8,3,c3_HowFace,1,looking at camera?,59,F_129.jpg,1646350735.27011,1646350735.28064,231.94388841629,8.82799649238586,240.776098241806,242.87583111763,0.3,249.774953832626,0.749904632568359,250.52585600853,1,left,0.742074012756348,250.524858465195,604.479857196808,607.239857196808,1646350969.974,1646350969.97568,1646350978.80621,1646350978.81127,1646350980.90594,1646350987.80507,1646350987.8066,1646350988.55597,1646350988.55497,1646351342.50997,1
105,4,1,3,15,1,4,c4_HowHand,1,both hands?,123,H_167.jpg,1646350735.27011,1646350735.28064,250.591517677307,8.97042036056519,259.573708524704,261.673441162109,2.0997326374054,261.823421707153,1.21651268005371,263.041240921021,1,left,1.19840002059937,263.039934387207,604.479857196808,607.239857196808,1646350988.62163,1646350988.62264,1646350997.60382,1646350997.60565,1646350999.70355,1646350999.85353,1646350999.85515,1646351001.07135,1646351001.07005,1646351342.50997,1
105,4,1,3,15,2,4,c4_HowHand,2,both hands?,121,H_091.jpg,1646350735.27011,1646350735.28064,250.591517677307,8.97042036056519,259.573708524704,261.673441162109,0.3,263.356561412811,0.73323917388916,264.10198592186,3,right,0.723856925964355,264.0898005867,604.479857196808,607.239857196808,1646350988.62163,1646350988.62264,1646350997.60382,1646350997.60565,1646350999.70355,1646351001.38667,1646351001.38839,1646351002.1321,1646351002.11991,1646351342.50997,0
105,4,1,3,15,3,4,c4_HowHand,2,both hands?,125,H_627.jpg,1646350735.27011,1646350735.28064,250.591517677307,8.97042036056519,259.573708524704,261.673441162109,0.3,264.406427850723,0.93321418762207,265.35189699173,3,right,0.921190977096558,265.339642038345,604.479857196808,607.239857196808,1646350988.62163,1646350988.62264,1646350997.60382,1646350997.60565,1646350999.70355,1646351002.43654,1646351002.43799,1646351003.38201,1646351003.36976,1646351342.50997,0
105,4,1,3,15,4,4,c4_HowHand,1,both hands?,128,H_027.jpg,1646350735.27011,1646350735.28064,250.591517677307,8.97042036056519,259.573708524704,261.673441162109,0.3,265.656268587112,1.04986643791199,266.707814922333,1,left,1.03183102607727,266.706135025024,604.479857196808,607.239857196808,1646350988.62163,1646350988.62264,1646350997.60382,1646350997.60565,1646350999.70355,1646351003.68638,1646351003.68792,1646351004.73793,1646351004.73625,1646351342.50997,1
105,4,1,3,15,5,4,c4_HowHand,1,both hands?,122,H_111.jpg,1646350735.27011,1646350735.28064,250.591517677307,8.97042036056519,259.573708524704,261.673441162109,0.3,267.022762050629,0.949878692626953,267.984116067886,1,left,0.940128803253174,267.972640743256,604.479857196808,607.239857196808,1646350988.62163,1646350988.62264,1646350997.60382,1646350997.60565,1646350999.70355,1646351005.05288,1646351005.0543,1646351006.01423,1646351006.00275,1646351342.50997,1
105,4,1,3,15,6,4,c4_HowHand,2,both hands?,126,H_159.jpg,1646350735.27011,1646350735.28064,250.591517677307,8.97042036056519,259.573708524704,261.673441162109,0.3,268.289267530441,1.0332019329071,269.324381103516,3,right,1.0151891708374,269.322469463348,604.479857196808,607.239857196808,1646350988.62163,1646350988.62264,1646350997.60382,1646350997.60565,1646350999.70355,1646351006.31938,1646351006.32091,1646351007.35449,1646351007.35258,1646351342.50997,0
105,4,1,3,15,7,4,c4_HowHand,1,both hands?,124,H_581.jpg,1646350735.27011,1646350735.28064,250.591517677307,8.97042036056519,259.573708524704,261.673441162109,0.3,269.639095535278,0.783233642578125,270.432168951035,1,left,0.769729852676392,270.422329177856,604.479857196808,607.239857196808,1646350988.62163,1646350988.62264,1646350997.60382,1646350997.60565,1646350999.70355,1646351007.66921,1646351007.67119,1646351008.46228,1646351008.45244,1646351342.50997,1
105,4,1,3,15,8,4,c4_HowHand,1,both hands?,127,H_349.jpg,1646350735.27011,1646350735.28064,250.591517677307,8.97042036056519,259.573708524704,261.673441162109,0.3,270.738955249786,0.733241558074951,271.473282089233,1,left,0.717268228530884,271.472196807861,604.479857196808,607.239857196808,1646350988.62163,1646350988.62264,1646350997.60382,1646350997.60565,1646350999.70355,1646351008.76907,1646351008.77068,1646351009.5034,1646351009.50231,1646351342.50997,1
105,4,1,3,16,1,2,c2_WhyHand,1,self-protection?,89,H_443.jpg,1646350735.27011,1646350735.28064,271.555518140793,6.79644680023193,278.371318569183,280.454387893677,2.08306932449341,280.604368200302,0.733238697052002,281.343497982025,1,left,0.708920001983643,281.337606897354,604.479857196808,607.239857196808,1646351009.58563,1646351009.58663,1646351016.40143,1646351016.40308,1646351018.4845,1646351018.63448,1646351018.64162,1646351019.37361,1646351019.36772,1646351342.50997,1
105,4,1,3,16,2,2,c2_WhyHand,2,self-protection?,90,H_006.jpg,1646350735.27011,1646350735.28064,271.555518140793,6.79644680023193,278.371318569183,280.454387893677,0.3,281.654234161377,1.43315172195435,283.093100061417,3,right,1.41922092437744,283.087385883331,604.479857196808,607.239857196808,1646351009.58563,1646351009.58663,1646351016.40143,1646351016.40308,1646351018.4845,1646351019.68435,1646351019.68592,1646351021.12321,1646351021.1175,1646351342.50997,0
105,4,1,3,16,3,2,c2_WhyHand,1,self-protection?,91,H_581.jpg,1646350735.27011,1646350735.28064,271.555518140793,6.79644680023193,278.371318569183,280.454387893677,0.3,283.404012432098,1.71644830703735,285.25638007164,3,right,1.82583994865417,285.120460739136,604.479857196808,607.239857196808,1646351009.58563,1646351009.58663,1646351016.40143,1646351016.40308,1646351018.4845,1646351021.43413,1646351021.43561,1646351023.28649,1646351023.15057,1646351342.50997,0
105,4,1,3,16,4,2,c2_WhyHand,2,self-protection?,92,H_532.jpg,1646350735.27011,1646350735.28064,271.555518140793,6.79644680023193,278.371318569183,280.454387893677,0.3,285.437087049484,1.03320050239563,286.474707117081,3,right,1.0146369934082,286.47028755188,604.479857196808,607.239857196808,1646351009.58563,1646351009.58663,1646351016.40143,1646351016.40308,1646351018.4845,1646351023.4672,1646351023.47204,1646351024.50482,1646351024.5004,1646351342.50997,0
105,4,1,3,16,5,2,c2_WhyHand,1,self-protection?,96,H_027.jpg,1646350735.27011,1646350735.28064,271.555518140793,6.79644680023193,278.371318569183,280.454387893677,0.3,286.786916007996,0.916549205780029,287.70760392189,1,left,0.903440952301025,287.703465213776,604.479857196808,607.239857196808,1646351009.58563,1646351009.58663,1646351016.40143,1646351016.40308,1646351018.4845,1646351024.81703,1646351024.82126,1646351025.73772,1646351025.73358,1646351342.50997,1
105,4,1,3,16,6,2,c2_WhyHand,1,self-protection?,93,H_038.jpg,1646350735.27011,1646350735.28064,271.555518140793,6.79644680023193,278.371318569183,280.454387893677,0.3,288.020091762543,0.716575384140015,288.739737977982,3,right,0.706721067428589,288.736667146683,604.479857196808,607.239857196808,1646351009.58563,1646351009.58663,1646351016.40143,1646351016.40308,1646351018.4845,1646351026.0502,1646351026.05425,1646351026.76985,1646351026.76678,1646351342.50997,0
105,4,1,3,16,7,2,c2_WhyHand,2,self-protection?,95,H_332.jpg,1646350735.27011,1646350735.28064,271.555518140793,6.79644680023193,278.371318569183,280.454387893677,0.3,289.053293457031,0.816563844680786,289.87167309761,3,right,0.791580200195312,289.869857301712,604.479857196808,607.239857196808,1646351009.58563,1646351009.58663,1646351016.40143,1646351016.40308,1646351018.4845,1646351027.08341,1646351027.08679,1646351027.90179,1646351027.89997,1646351342.50997,0
105,4,1,3,16,8,2,c2_WhyHand,1,self-protection?,94,H_189.jpg,1646350735.27011,1646350735.28064,271.555518140793,6.79644680023193,278.371318569183,280.454387893677,0.3,290.186483135223,0.783234834671021,290.972497930527,1,left,0.764467000961304,290.969717969894,604.479857196808,607.239857196808,1646351009.58563,1646351009.58663,1646351016.40143,1646351016.40308,1646351018.4845,1646351028.2166,1646351028.21981,1646351029.00261,1646351028.99983,1646351342.50997,1
105,4,1,3,17,1,3,c3_HowFace,1,smiling?,118,F_759.jpg,1646350735.27011,1646350735.28064,291.036375274658,8.79560780525208,299.851921548843,301.934989204407,2.08306765556335,302.084970941544,0.583258867263794,302.682817926407,1,left,0.560266971588135,302.668229808807,604.479857196808,607.239857196808,1646351029.06649,1646351029.06858,1646351037.88203,1646351037.88417,1646351039.9651,1646351040.11508,1646351040.13045,1646351040.71293,1646351040.69834,1646351342.50997,1
105,4,1,3,17,2,3,c3_HowFace,2,smiling?,114,F_412.jpg,1646350735.27011,1646350735.28064,291.036375274658,8.79560780525208,299.851921548843,301.934989204407,0.3,302.9848554039,0.666583299636841,303.652514925003,3,right,0.650039911270142,303.651438703537,604.479857196808,607.239857196808,1646351029.06649,1646351029.06858,1646351037.88203,1646351037.88417,1646351039.9651,1646351041.01497,1646351041.01677,1646351041.68263,1646351041.68155,1646351342.50997,0
105,4,1,3,17,3,3,c3_HowFace,1,smiling?,117,F_593.jpg,1646350735.27011,1646350735.28064,291.036375274658,8.79560780525208,299.851921548843,301.934989204407,0.3,303.968064775467,0.766569375991821,304.749026050568,1,left,0.757550954818726,304.734634151459,604.479857196808,607.239857196808,1646351029.06649,1646351029.06858,1646351037.88203,1646351037.88417,1646351039.9651,1646351041.99818,1646351041.99977,1646351042.77914,1646351042.76475,1646351342.50997,1
105,4,1,3,17,4,3,c3_HowFace,2,smiling?,113,F_712.jpg,1646350735.27011,1646350735.28064,291.036375274658,8.79560780525208,299.851921548843,301.934989204407,0.3,305.051259746552,0.649918079376221,305.702404966354,3,right,0.629614114761353,305.701177825928,604.479857196808,607.239857196808,1646351029.06649,1646351029.06858,1646351037.88203,1646351037.88417,1646351039.9651,1646351043.08137,1646351043.08288,1646351043.73252,1646351043.73129,1646351342.50997,0
105,4,1,3,17,5,3,c3_HowFace,1,smiling?,115,F_695.jpg,1646350735.27011,1646350735.28064,291.036375274658,8.79560780525208,299.851921548843,301.934989204407,0.3,306.017803421021,0.749904870986938,306.7806498909,1,left,0.739597082138062,306.767708292007,604.479857196808,607.239857196808,1646351029.06649,1646351029.06858,1646351037.88203,1646351037.88417,1646351039.9651,1646351044.04792,1646351044.04975,1646351044.81076,1646351044.79782,1646351342.50997,1
105,4,1,3,17,6,3,c3_HowFace,1,smiling?,119,F_139.jpg,1646350735.27011,1646350735.28064,291.036375274658,8.79560780525208,299.851921548843,301.934989204407,0.3,307.084334602356,1.03320217132568,308.130069961548,1,left,1.02365493774414,308.117536773682,604.479857196808,607.239857196808,1646351029.06649,1646351029.06858,1646351037.88203,1646351037.88417,1646351039.9651,1646351045.11445,1646351045.11611,1646351046.16018,1646351046.14765,1646351342.50997,1
105,4,1,3,17,7,3,c3_HowFace,1,smiling?,116,F_083.jpg,1646350735.27011,1646350735.28064,291.036375274658,8.79560780525208,299.851921548843,301.934989204407,0.3,308.434163322449,0.483271837234497,308.918591966629,1,left,0.470230102539062,308.917435159683,604.479857196808,607.239857196808,1646351029.06649,1646351029.06858,1646351037.88203,1646351037.88417,1646351039.9651,1646351046.46428,1646351046.4661,1646351046.9487,1646351046.94755,1646351342.50997,1
105,4,1,3,17,8,3,c3_HowFace,2,smiling?,120,F_758.jpg,1646350735.27011,1646350735.28064,291.036375274658,8.79560780525208,299.851921548843,301.934989204407,0.3,309.234061231613,0.69991135597229,309.945765962601,3,right,0.687220096588135,309.933972587585,604.479857196808,607.239857196808,1646351029.06649,1646351029.06858,1646351037.88203,1646351037.88417,1646351039.9651,1646351047.26417,1646351047.26573,1646351047.97588,1646351047.96409,1646351342.50997,0
105,4,1,3,18,1,1,c1_WhyFace,1,admiring?,1,F_593.jpg,1646350735.27011,1646350735.28064,310.017295351028,7.60461854934692,317.632993688583,319.73272608757,2.09973239898682,319.882707824707,0.649917602539062,320.53459810257,1,left,0.620731830596924,320.532625427246,604.479857196808,607.239857196808,1646351048.04741,1646351048.04905,1646351055.66311,1646351055.67303,1646351057.76284,1646351057.91282,1646351057.92157,1646351058.56471,1646351058.56274,1646351342.50997,1
105,4,1,3,18,2,1,c1_WhyFace,2,admiring?,2,F_129.jpg,1646350735.27011,1646350735.28064,310.017295351028,7.60461854934692,317.632993688583,319.73272608757,0.3,320.849251022339,0.666583061218262,321.523440113068,3,right,0.655802011489868,321.515834083557,604.479857196808,607.239857196808,1646351048.04741,1646351048.04905,1646351055.66311,1646351055.67303,1646351057.76284,1646351058.87936,1646351058.88122,1646351059.55355,1646351059.54595,1646351342.50997,0
105,4,1,3,18,3,1,c1_WhyFace,1,admiring?,5,F_759.jpg,1646350735.27011,1646350735.28064,310.017295351028,7.60461854934692,317.632993688583,319.73272608757,0.3,321.83245967865,1.38315773010254,323.223025074005,3,right,1.36938190460205,323.215617408752,604.479857196808,607.239857196808,1646351048.04741,1646351048.04905,1646351055.66311,1646351055.67303,1646351057.76284,1646351059.86257,1646351059.86399,1646351061.25314,1646351061.24573,1646351342.50997,0
105,4,1,3,18,4,1,c1_WhyFace,2,admiring?,6,F_692.jpg,1646350735.27011,1646350735.28064,310.017295351028,7.60461854934692,317.632993688583,319.73272608757,0.3,323.532243480682,0.766569852828979,324.305268993378,3,right,0.756966114044189,324.298813333511,604.479857196808,607.239857196808,1646351048.04741,1646351048.04905,1646351055.66311,1646351055.67303,1646351057.76284,1646351061.56236,1646351061.56407,1646351062.33538,1646351062.32893,1646351342.50997,0
105,4,1,3,18,5,1,c1_WhyFace,1,admiring?,4,F_779.jpg,1646350735.27011,1646350735.28064,310.017295351028,7.60461854934692,317.632993688583,319.73272608757,0.3,324.615439405441,0.66658091545105,325.28806303978,1,left,0.651571035385132,325.282020320892,604.479857196808,607.239857196808,1646351048.04741,1646351048.04905,1646351055.66311,1646351055.67303,1646351057.76284,1646351062.64555,1646351062.64748,1646351063.31818,1646351063.31213,1646351342.50997,1
105,4,1,3,18,6,1,c1_WhyFace,1,admiring?,8,F_590.jpg,1646350735.27011,1646350735.28064,310.017295351028,7.60461854934692,317.632993688583,319.73272608757,0.3,325.598647108078,0.666582584381104,326.266681900024,1,left,0.645527124404907,326.265229692459,604.479857196808,607.239857196808,1646351048.04741,1646351048.04905,1646351055.66311,1646351055.67303,1646351057.76284,1646351063.62876,1646351063.63029,1646351064.29679,1646351064.29534,1646351342.50997,1
105,4,1,3,18,7,1,c1_WhyFace,1,admiring?,7,F_648.jpg,1646350735.27011,1646350735.28064,310.017295351028,7.60461854934692,317.632993688583,319.73272608757,0.3,326.581854810715,0.799899578094482,327.382887115479,1,left,0.779259204864502,327.381754388809,604.479857196808,607.239857196808,1646351048.04741,1646351048.04905,1646351055.66311,1646351055.67303,1646351057.76284,1646351064.61197,1646351064.6136,1646351065.413,1646351065.41187,1646351342.50997,1
105,4,1,3,18,8,1,c1_WhyFace,2,admiring?,3,F_110.jpg,1646350735.27011,1646350735.28064,310.017295351028,7.60461854934692,317.632993688583,319.73272608757,0.3,327.698379983902,0.716576337814331,328.420462121964,3,right,0.698329925537109,328.414956321716,604.479857196808,607.239857196808,1646351048.04741,1646351048.04905,1646351055.66311,1646351055.67303,1646351057.76284,1646351065.72849,1646351065.73034,1646351066.45058,1646351066.44507,1646351342.50997,0
105,4,1,3,19,1,2,c2_WhyHand,1,competing?,9,H_261.jpg,1646350735.27011,1646350735.28064,328.498278131485,7.01369690895081,335.530718317032,337.630450954437,2.0997326374054,337.780432691574,0.649917125701904,338.432327022552,1,left,0.631324052810669,338.430349817276,604.479857196808,607.239857196808,1646351066.52839,1646351066.53392,1646351073.56083,1646351073.56393,1646351075.66056,1646351075.81055,1646351075.81291,1646351076.46244,1646351076.46046,1646351342.50997,1
105,4,1,3,19,2,2,c2_WhyHand,1,competing?,15,H_170.jpg,1646350735.27011,1646350735.28064,328.498278131485,7.01369690895081,335.530718317032,337.630450954437,0.3,338.746976366043,0.516600370407104,339.264513959885,1,left,0.50845193862915,339.26357673645,604.479857196808,607.239857196808,1646351066.52839,1646351066.53392,1646351073.56083,1646351073.56393,1646351075.66056,1646351076.77709,1646351076.77934,1646351077.29463,1646351077.29369,1646351342.50997,1
105,4,1,3,19,3,2,c2_WhyHand,2,competing?,12,H_483.jpg,1646350735.27011,1646350735.28064,328.498278131485,7.01369690895081,335.530718317032,337.630450954437,0.3,339.580203762054,1.14985370635986,340.731538047791,3,right,1.13253593444824,340.730057468414,604.479857196808,607.239857196808,1646351066.52839,1646351066.53392,1646351073.56083,1646351073.56393,1646351075.66056,1646351077.61032,1646351077.61123,1646351078.76165,1646351078.76017,1646351342.50997,0
105,4,1,3,19,4,2,c2_WhyHand,1,competing?,14,H_132.jpg,1646350735.27011,1646350735.28064,328.498278131485,7.01369690895081,335.530718317032,337.630450954437,0.3,341.046683778763,0.649916648864746,341.69770406723,1,left,0.631294965744019,341.696600427628,604.479857196808,607.239857196808,1646351066.52839,1646351066.53392,1646351073.56083,1646351073.56393,1646351075.66056,1646351079.0768,1646351079.07829,1646351079.72782,1646351079.72671,1646351342.50997,1
105,4,1,3,19,5,2,c2_WhyHand,1,competing?,16,H_136.jpg,1646350735.27011,1646350735.28064,328.498278131485,7.01369690895081,335.530718317032,337.630450954437,0.3,342.013227214813,0.7665696144104,342.781153907776,1,left,0.757424116134644,342.779796829224,604.479857196808,607.239857196808,1646351066.52839,1646351066.53392,1646351073.56083,1646351073.56393,1646351075.66056,1646351080.04334,1646351080.04493,1646351080.81127,1646351080.80991,1646351342.50997,1
105,4,1,3,19,6,2,c2_WhyHand,1,competing?,13,H_003.jpg,1646350735.27011,1646350735.28064,328.498278131485,7.01369690895081,335.530718317032,337.630450954437,0.3,343.096423377991,0.649916887283325,343.747425069809,1,left,0.628010034561157,343.746340265274,604.479857196808,607.239857196808,1646351066.52839,1646351066.53392,1646351073.56083,1646351073.56393,1646351075.66056,1646351081.12654,1646351081.12827,1646351081.77754,1646351081.77645,1646351342.50997,1
105,4,1,3,19,7,2,c2_WhyHand,2,competing?,10,H_126.jpg,1646350735.27011,1646350735.28064,328.498278131485,7.01369690895081,335.530718317032,337.630450954437,0.3,344.062966575623,0.966543197631836,345.030729999542,3,right,0.954619884490967,345.029509773254,604.479857196808,607.239857196808,1646351066.52839,1646351066.53392,1646351073.56083,1646351073.56393,1646351075.66056,1646351082.09308,1646351082.09464,1646351083.06084,1646351083.05962,1646351342.50997,0
105,4,1,3,19,8,2,c2_WhyHand,2,competing?,11,H_502.jpg,1646350735.27011,1646350735.28064,328.498278131485,7.01369690895081,335.530718317032,337.630450954437,0.3,345.346137275696,0.666581392288208,346.014446964264,1,left,0.647795915603638,346.012718667984,604.479857196808,607.239857196808,1646351066.52839,1646351066.53392,1646351073.56083,1646351073.56393,1646351075.66056,1646351083.37625,1646351083.37796,1646351084.04456,1646351084.04283,1646351342.50997,0
105,4,1,3,20,1,4,c4_HowHand,1,reaching?,111,H_003.jpg,1646350735.27011,1646350735.28064,346.096041908264,10.8958871364594,357.011320343018,359.094388713837,2.08306837081909,359.26103471756,0.983207941055298,360.254599084854,1,left,0.969035863876343,360.244242658615,604.479857196808,607.239857196808,1646351084.12615,1646351084.12774,1646351095.04143,1646351095.04356,1646351097.1245,1646351097.29115,1646351097.29323,1646351098.28471,1646351098.27436,1646351342.50997,1
105,4,1,3,20,2,4,c4_HowHand,1,reaching?,110,H_364.jpg,1646350735.27011,1646350735.28064,346.096041908264,10.8958871364594,357.011320343018,359.094388713837,0.3,360.560869207382,0.666582345962524,361.228563060761,1,left,0.648421049118042,361.227451553345,604.479857196808,607.239857196808,1646351084.12615,1646351084.12774,1646351095.04143,1646351095.04356,1646351097.1245,1646351098.59098,1646351098.59237,1646351099.25868,1646351099.25756,1646351342.50997,1
105,4,1,3,20,3,4,c4_HowHand,2,reaching?,108,H_532.jpg,1646350735.27011,1646350735.28064,346.096041908264,10.8958871364594,357.011320343018,359.094388713837,0.3,361.544077148438,0.649917602539062,362.195066919327,3,right,0.628870964050293,362.193994750977,604.479857196808,607.239857196808,1646351084.12615,1646351084.12774,1646351095.04143,1646351095.04356,1646351097.1245,1646351099.57419,1646351099.57586,1646351100.22518,1646351100.22411,1646351342.50997,0
105,4,1,3,20,4,4,c4_HowHand,1,reaching?,106,H_006.jpg,1646350735.27011,1646350735.28064,346.096041908264,10.8958871364594,357.011320343018,359.094388713837,0.3,362.510622014999,0.833226919174194,363.352411022186,1,left,0.820827007293701,363.343848934174,604.479857196808,607.239857196808,1646351084.12615,1646351084.12774,1646351095.04143,1646351095.04356,1646351097.1245,1646351100.54074,1646351100.54177,1646351101.38252,1646351101.37396,1646351342.50997,1
105,4,1,3,20,5,4,c4_HowHand,2,reaching?,105,H_438.jpg,1646350735.27011,1646350735.28064,346.096041908264,10.8958871364594,357.011320343018,359.094388713837,0.3,363.660474529266,0.016664981842041,363.686249008179,1,left,0.000374078750610352,363.677139511108,604.479857196808,607.239857196808,1646351084.12615,1646351084.12774,1646351095.04143,1646351095.04356,1646351097.1245,1646351101.69059,1646351101.69232,1646351101.71636,1646351101.70725,1646351342.50997,0
105,4,1,3,20,6,4,c4_HowHand,1,reaching?,107,H_007.jpg,1646350735.27011,1646350735.28064,346.096041908264,10.8958871364594,357.011320343018,359.094388713837,0.3,363.993766059875,1.09986042976379,365.10198592186,1,left,1.09227585792542,365.093626489639,604.479857196808,607.239857196808,1646351084.12615,1646351084.12774,1646351095.04143,1646351095.04356,1646351097.1245,1646351102.02388,1646351102.02585,1646351103.1321,1646351103.12374,1646351342.50997,1
105,4,1,3,20,7,4,c4_HowHand,1,reaching?,109,H_474.jpg,1646350735.27011,1646350735.28064,346.096041908264,10.8958871364594,357.011320343018,359.094388713837,0.3,365.410252561569,1.01653814315796,366.434245100021,3,right,1.00544404983521,366.426790704727,604.479857196808,607.239857196808,1646351084.12615,1646351084.12774,1646351095.04143,1646351095.04356,1646351097.1245,1646351103.44037,1646351103.44206,1646351104.46436,1646351104.4569,1646351342.50997,0
105,4,1,3,20,8,4,c4_HowHand,2,reaching?,112,H_132.jpg,1646350735.27011,1646350735.28064,346.096041908264,10.8958871364594,357.011320343018,359.094388713837,0.3,366.743416061401,0.899885654449463,367.650285949707,3,right,0.885720014572144,367.643301715851,604.479857196808,607.239857196808,1646351084.12615,1646351084.12774,1646351095.04143,1646351095.04356,1646351097.1245,1646351104.77353,1646351104.77542,1646351105.6804,1646351105.67341,1646351342.50997,0
105,4,1,3,21,1,3,c3_HowFace,1,open mouth?,73,F_403.jpg,1646350735.27011,1646350735.28064,367.726624240875,7.10533475875854,374.842387189865,376.942120780945,2.09973359107971,377.092100133896,0.599924802780151,377.695322980881,1,left,0.586197853088379,377.692024936676,604.479857196808,607.239857196808,1646351105.75674,1646351105.75859,1646351112.8725,1646351112.87809,1646351114.97223,1646351115.12221,1646351115.1263,1646351115.72544,1646351115.72214,1646351342.50997,1
105,4,1,3,21,2,3,c3_HowFace,2,open mouth?,79,F_648.jpg,1646350735.27011,1646350735.28064,367.726624240875,7.10533475875854,374.842387189865,376.942120780945,0.3,378.008651485443,0.566593647003174,378.578046073914,3,right,0.545122146606445,378.575245132446,604.479857196808,607.239857196808,1646351105.75674,1646351105.75859,1646351112.8725,1646351112.87809,1646351114.97223,1646351116.03876,1646351116.0425,1646351116.60816,1646351116.60536,1646351342.50997,0
105,4,1,3,21,3,3,c3_HowFace,1,open mouth?,74,F_776.jpg,1646350735.27011,1646350735.28064,367.726624240875,7.10533475875854,374.842387189865,376.942120780945,0.3,378.891871681213,0.533265590667725,379.427572002411,1,left,0.522607088088989,379.425137271881,604.479857196808,607.239857196808,1646351105.75674,1646351105.75859,1646351112.8725,1646351112.87809,1646351114.97223,1646351116.92198,1646351116.9252,1646351117.45768,1646351117.45525,1646351342.50997,1
105,4,1,3,21,4,3,c3_HowFace,2,open mouth?,77,F_584.jpg,1646350735.27011,1646350735.28064,367.726624240875,7.10533475875854,374.842387189865,376.942120780945,0.3,379.741764297485,0.766567945480347,380.510576000214,3,right,0.752368927001953,380.508332242966,604.479857196808,607.239857196808,1646351105.75674,1646351105.75859,1646351112.8725,1646351112.87809,1646351114.97223,1646351117.77188,1646351117.77494,1646351118.54069,1646351118.53845,1646351342.50997,0
105,4,1,3,21,5,3,c3_HowFace,1,open mouth?,80,F_844.jpg,1646350735.27011,1646350735.28064,367.726624240875,7.10533475875854,374.842387189865,376.942120780945,0.3,380.82495926857,0.666582345962524,381.49331401825,1,left,0.652226209640503,381.491541614532,604.479857196808,607.239857196808,1646351105.75674,1646351105.75859,1646351112.8725,1646351112.87809,1646351114.97223,1646351118.85507,1646351118.85755,1646351119.52343,1646351119.52165,1646351342.50997,1
105,4,1,3,21,6,3,c3_HowFace,1,open mouth?,78,F_692.jpg,1646350735.27011,1646350735.28064,367.726624240875,7.10533475875854,374.842387189865,376.942120780945,0.3,381.808168640137,0.549929857254028,382.359400978088,1,left,0.539902925491333,382.358098497391,604.479857196808,607.239857196808,1646351105.75674,1646351105.75859,1646351112.8725,1646351112.87809,1646351114.97223,1646351119.83828,1646351119.84032,1646351120.38951,1646351120.38821,1646351342.50997,1
105,4,1,3,21,7,3,c3_HowFace,1,open mouth?,75,F_086.jpg,1646350735.27011,1646350735.28064,367.726624240875,7.10533475875854,374.842387189865,376.942120780945,0.3,382.674725046158,0.499934911727905,383.175786008835,1,left,0.481312990188599,383.174659957886,604.479857196808,607.239857196808,1646351105.75674,1646351105.75859,1646351112.8725,1646351112.87809,1646351114.97223,1646351120.70484,1646351120.70666,1646351121.2059,1646351121.20477,1646351342.50997,1
105,4,1,3,21,8,3,c3_HowFace,2,open mouth?,76,F_544.jpg,1646350735.27011,1646350735.28064,367.726624240875,7.10533475875854,374.842387189865,376.942120780945,0.3,383.49128698349,0.633252382278442,384.125725975037,3,right,0.611376047134399,384.124539365768,604.479857196808,607.239857196808,1646351105.75674,1646351105.75859,1646351112.8725,1646351112.87809,1646351114.97223,1646351121.5214,1646351121.52264,1646351122.15584,1646351122.15465,1646351342.50997,0
105,4,1,3,22,1,1,c1_WhyFace,1,argument?,42,F_403.jpg,1646350735.27011,1646350735.28064,384.191197147369,9.31673097610474,393.523345222473,395.623078813553,2.09973359107971,395.773058166504,0.533265352249146,396.319343080521,1,left,0.522629022598267,396.306323518753,604.479857196808,607.239857196808,1646351122.22131,1646351122.22219,1646351131.55346,1646351131.55571,1646351133.65319,1646351133.80317,1646351133.80497,1646351134.34946,1646351134.33644,1646351342.50997,1
105,4,1,3,22,2,1,c1_WhyFace,2,argument?,46,F_844.jpg,1646350735.27011,1646350735.28064,384.191197147369,9.31673097610474,393.523345222473,395.623078813553,0.3,396.622950544357,1.18318247795105,397.818440904617,3,right,1.17412209510803,397.806133022308,604.479857196808,607.239857196808,1646351122.22131,1646351122.22219,1646351131.55346,1646351131.55571,1646351133.65319,1646351134.65306,1646351134.65532,1646351135.84855,1646351135.83625,1646351342.50997,0
105,4,1,3,22,3,1,c1_WhyFace,1,argument?,41,F_712.jpg,1646350735.27011,1646350735.28064,384.191197147369,9.31673097610474,393.523345222473,395.623078813553,0.3,398.12276052475,0.866556644439697,398.990427007675,3,right,0.843352079391479,398.989317169189,604.479857196808,607.239857196808,1646351122.22131,1646351122.22219,1646351131.55346,1646351131.55571,1646351133.65319,1646351136.15287,1646351136.15459,1646351137.02054,1646351137.01943,1646351342.50997,0
105,4,1,3,22,4,1,c1_WhyFace,1,argument?,48,F_758.jpg,1646350735.27011,1646350735.28064,384.191197147369,9.31673097610474,393.523345222473,395.623078813553,0.3,399.305943241119,0.666581869125366,399.973690023422,1,left,0.65322208404541,399.972525110245,604.479857196808,607.239857196808,1646351122.22131,1646351122.22219,1646351131.55346,1646351131.55571,1646351133.65319,1646351137.33606,1646351137.33786,1646351138.0038,1646351138.00264,1646351342.50997,1
105,4,1,3,22,5,1,c1_WhyFace,2,argument?,45,F_433.jpg,1646350735.27011,1646350735.28064,384.191197147369,9.31673097610474,393.523345222473,395.623078813553,0.3,400.289151420593,0.633252859115601,400.923743000031,3,right,0.608362197875977,400.922404279709,604.479857196808,607.239857196808,1646351122.22131,1646351122.22219,1646351131.55346,1646351131.55571,1646351133.65319,1646351138.31926,1646351138.32078,1646351138.95386,1646351138.95252,1646351342.50997,0
105,4,1,3,22,6,1,c1_WhyFace,1,argument?,43,F_716.jpg,1646350735.27011,1646350735.28064,384.191197147369,9.31673097610474,393.523345222473,395.623078813553,0.3,401.239030828476,0.583259582519531,401.824197044373,1,left,0.563095092773438,401.822290410995,604.479857196808,607.239857196808,1646351122.22131,1646351122.22219,1646351131.55346,1646351131.55571,1646351133.65319,1646351139.26914,1646351139.27052,1646351139.85431,1646351139.8524,1646351342.50997,1
105,4,1,3,22,7,1,c1_WhyFace,2,argument?,44,F_139.jpg,1646350735.27011,1646350735.28064,384.191197147369,9.31673097610474,393.523345222473,395.623078813553,0.3,402.13891576767,0.899886131286621,403.049274911881,3,right,0.886337995529175,403.038801898956,604.479857196808,607.239857196808,1646351122.22131,1646351122.22219,1646351131.55346,1646351131.55571,1646351133.65319,1646351140.16903,1646351140.17092,1646351141.07939,1646351141.06891,1646351342.50997,0
105,4,1,3,22,8,1,c1_WhyFace,1,argument?,47,F_743.jpg,1646350735.27011,1646350735.28064,384.191197147369,9.31673097610474,393.523345222473,395.623078813553,0.3,403.355428924561,0.81656289100647,404.173074951172,1,left,0.798932075500488,404.171991815567,604.479857196808,607.239857196808,1646351122.22131,1646351122.22219,1646351131.55346,1646351131.55571,1646351133.65319,1646351141.38554,1646351141.38721,1646351142.20319,1646351142.2021,1646351342.50997,1
105,4,1,3,23,1,2,c2_WhyHand,1,helping?,39,H_024.jpg,1646350735.27011,1646350735.28064,404.255313625336,7.47257041931152,411.737696399689,413.837429275513,2.09973287582397,413.987410058975,1.14985322952271,415.143054952621,3,right,1.13817095756531,415.137263288498,604.479857196808,607.239857196808,1646351142.28543,1646351142.29572,1646351149.76781,1646351149.77545,1646351151.86754,1646351152.01752,1646351152.02409,1646351153.17317,1646351153.16738,1646351342.50997,0
105,4,1,3,23,2,2,c2_WhyHand,1,helping?,36,H_349.jpg,1646350735.27011,1646350735.28064,404.255313625336,7.47257041931152,411.737696399689,413.837429275513,0.3,415.453890075684,0.733240127563477,416.19259809494,1,left,0.722697973251343,416.187130203247,604.479857196808,607.239857196808,1646351142.28543,1646351142.29572,1646351149.76781,1646351149.77545,1646351151.86754,1646351153.484,1646351153.48557,1646351154.22271,1646351154.21724,1646351342.50997,1
105,4,1,3,23,3,2,c2_WhyHand,1,helping?,38,H_077.jpg,1646350735.27011,1646350735.28064,404.255313625336,7.47257041931152,411.737696399689,413.837429275513,0.3,416.503756752014,1.34982824325562,417.855335941315,3,right,1.32977199554443,417.85358499527,604.479857196808,607.239857196808,1646351142.28543,1646351142.29572,1646351149.76781,1646351149.77545,1646351151.86754,1646351154.53387,1646351154.53554,1646351155.88545,1646351155.8837,1646351342.50997,0
105,4,1,3,23,4,2,c2_WhyHand,1,helping?,37,H_474.jpg,1646350735.27011,1646350735.28064,404.255313625336,7.47257041931152,411.737696399689,413.837429275513,0.3,418.170212259293,0.849891424179077,419.021127929688,1,left,0.82903003692627,419.020103683472,604.479857196808,607.239857196808,1646351142.28543,1646351142.29572,1646351149.76781,1646351149.77545,1646351151.86754,1646351156.20033,1646351156.20233,1646351157.05124,1646351157.05022,1646351342.50997,1
105,4,1,3,23,5,2,c2_WhyHand,2,helping?,33,H_091.jpg,1646350735.27011,1646350735.28064,404.255313625336,7.47257041931152,411.737696399689,413.837429275513,0.3,419.336729278564,0.583259105682373,419.924472084045,1,left,0.56807804107666,419.919988384247,604.479857196808,607.239857196808,1646351142.28543,1646351142.29572,1646351149.76781,1646351149.77545,1646351151.86754,1646351157.36684,1646351157.37167,1646351157.95459,1646351157.9501,1646351342.50997,0
105,4,1,3,23,6,2,c2_WhyHand,2,helping?,35,H_159.jpg,1646350735.27011,1646350735.28064,404.255313625336,7.47257041931152,411.737696399689,413.837429275513,0.3,420.236615171433,0.983208656311035,421.224144926071,3,right,0.964332103729248,421.219823827744,604.479857196808,607.239857196808,1646351142.28543,1646351142.29572,1646351149.76781,1646351149.77545,1646351151.86754,1646351158.26673,1646351158.27108,1646351159.25426,1646351159.24994,1646351342.50997,0
105,4,1,3,23,7,2,c2_WhyHand,1,helping?,34,H_111.jpg,1646350735.27011,1646350735.28064,404.255313625336,7.47257041931152,411.737696399689,413.837429275513,0.3,421.536450138092,0.716576099395752,422.2568800354,1,left,0.692650079727173,422.253026237488,604.479857196808,607.239857196808,1646351142.28543,1646351142.29572,1646351149.76781,1646351149.77545,1646351151.86754,1646351159.56656,1646351159.57151,1646351160.28699,1646351160.28314,1646351342.50997,1
105,4,1,3,23,8,2,c2_WhyHand,2,helping?,40,H_012.jpg,1646350735.27011,1646350735.28064,404.255313625336,7.47257041931152,411.737696399689,413.837429275513,0.3,422.569652786255,0.84989070892334,423.422255983353,3,right,0.837059020996094,423.419543495178,604.479857196808,607.239857196808,1646351142.28543,1646351142.29572,1646351149.76781,1646351149.77545,1646351151.86754,1646351160.59977,1646351160.60349,1646351161.45237,1646351161.44966,1646351342.50997,0
105,4,1,3,24,1,4,c4_HowHand,1,both hands?,122,H_111.jpg,1646350735.27011,1646350735.28064,423.502866735458,6.29510235786438,429.80206536293,431.901798000336,2.0997326374054,432.051780691147,0.58325719833374,432.636820068359,1,left,0.547538995742798,432.635037889481,604.479857196808,607.239857196808,1646351161.53298,1646351161.53636,1646351167.83218,1646351167.8507,1646351169.93191,1646351170.08189,1646351170.09987,1646351170.66693,1646351170.66515,1646351342.50997,1
105,4,1,3,24,2,4,c4_HowHand,1,both hands?,128,H_027.jpg,1646350735.27011,1646350735.28064,423.502866735458,6.29510235786438,429.80206536293,431.901798000336,0.3,432.951665630341,0.633252859115601,433.586718072891,1,left,0.614628076553345,433.584918489456,604.479857196808,607.239857196808,1646351161.53298,1646351161.53636,1646351167.83218,1646351167.8507,1646351169.93191,1646351170.98178,1646351170.98369,1646351171.61683,1646351171.61503,1646351342.50997,1
105,4,1,3,24,3,4,c4_HowHand,2,both hands?,121,H_091.jpg,1646350735.27011,1646350735.28064,423.502866735458,6.29510235786438,429.80206536293,431.901798000336,0.3,433.901544322968,0.616589546203613,434.519767036438,3,right,0.599133968353271,434.518133869171,604.479857196808,607.239857196808,1646351161.53298,1646351161.53636,1646351167.83218,1646351167.8507,1646351169.93191,1646351171.93166,1646351171.93328,1646351172.54988,1646351172.54825,1646351342.50997,0
105,4,1,3,24,4,4,c4_HowHand,1,both hands?,123,H_167.jpg,1646350735.27011,1646350735.28064,423.502866735458,6.29510235786438,429.80206536293,431.901798000336,0.3,434.834758987427,1.04986786842346,435.900048961639,1,left,1.04049706459045,435.88462685585,604.479857196808,607.239857196808,1646351161.53298,1646351161.53636,1646351167.83218,1646351167.8507,1646351169.93191,1646351172.86487,1646351172.86649,1646351173.93016,1646351173.91474,1646351342.50997,1
105,4,1,3,24,5,4,c4_HowHand,1,both hands?,124,H_581.jpg,1646350735.27011,1646350735.28064,423.502866735458,6.29510235786438,429.80206536293,431.901798000336,0.3,436.201251974106,0.916550397872925,437.118871917725,1,left,0.894979000091553,437.117802371979,604.479857196808,607.239857196808,1646351161.53298,1646351161.53636,1646351167.83218,1646351167.8507,1646351169.93191,1646351174.23136,1646351174.23309,1646351175.14898,1646351175.14792,1646351342.50997,1
105,4,1,3,24,6,4,c4_HowHand,2,both hands?,126,H_159.jpg,1646350735.27011,1646350735.28064,423.502866735458,6.29510235786438,429.80206536293,431.901798000336,0.3,437.434427967072,0.699912309646606,438.136045923233,3,right,0.686300992965698,438.134340276718,604.479857196808,607.239857196808,1646351161.53298,1646351161.53636,1646351167.83218,1646351167.8507,1646351169.93191,1646351175.46454,1646351175.46657,1646351176.16616,1646351176.16445,1646351342.50997,0
105,4,1,3,24,7,4,c4_HowHand,1,both hands?,127,H_349.jpg,1646350735.27011,1646350735.28064,423.502866735458,6.29510235786438,429.80206536293,431.901798000336,0.3,438.450966348648,0.833227872848511,439.285727968216,1,left,0.815691947937012,439.284194221497,604.479857196808,607.239857196808,1646351161.53298,1646351161.53636,1646351167.83218,1646351167.8507,1646351169.93191,1646351176.48108,1646351176.4827,1646351177.31584,1646351177.31431,1646351342.50997,1
105,4,1,3,24,8,4,c4_HowHand,2,both hands?,125,H_627.jpg,1646350735.27011,1646350735.28064,423.502866735458,6.29510235786438,429.80206536293,431.901798000336,0.3,439.600820293427,0.79989767074585,440.401804914474,3,right,0.784462928771973,440.400717964172,604.479857196808,607.239857196808,1646351161.53298,1646351161.53636,1646351167.83218,1646351167.8507,1646351169.93191,1646351177.63093,1646351177.6324,1646351178.43192,1646351178.43083,1646351342.50997,0
105,4,1,3,25,1,2,c2_WhyHand,1,healthy?,18,H_438.jpg,1646350735.27011,1646350735.28064,440.484040966034,6.83087396621704,447.333170166016,449.432903757095,2.09973359107971,449.582884540558,1.08319544792175,450.667838087082,1,left,1.06068181991577,450.66607998848,604.479857196808,607.239857196808,1646351178.51415,1646351178.51572,1646351185.36328,1646351185.36514,1646351187.46302,1646351187.613,1646351187.61523,1646351188.69795,1646351188.69619,1646351342.50997,1
105,4,1,3,25,2,2,c2_WhyHand,1,healthy?,23,H_364.jpg,1646350735.27011,1646350735.28064,440.484040966034,6.83087396621704,447.333170166016,449.432903757095,0.3,450.982706775665,1.03320169448853,452.017575969696,1,left,1.01145792007446,452.015908470154,604.479857196808,607.239857196808,1646351178.51415,1646351178.51572,1646351185.36328,1646351185.36514,1646351187.46302,1646351189.01282,1646351189.01468,1646351190.04769,1646351190.04602,1646351342.50997,1
105,4,1,3,25,3,2,c2_WhyHand,1,healthy?,17,H_362.jpg,1646350735.27011,1646350735.28064,440.484040966034,6.83087396621704,447.333170166016,449.432903757095,0.3,452.332534542084,0.666581630706787,453.000179042816,1,left,0.64461088180542,452.999116172791,604.479857196808,607.239857196808,1646351178.51415,1646351178.51572,1646351185.36328,1646351185.36514,1646351187.46302,1646351190.36265,1646351190.36458,1646351191.03029,1646351191.02923,1646351342.50997,1
105,4,1,3,25,4,2,c2_WhyHand,2,healthy?,24,H_019.jpg,1646350735.27011,1646350735.28064,440.484040966034,6.83087396621704,447.333170166016,449.432903757095,0.3,453.315741291046,0.733242511749268,454.057389965057,3,right,0.722325801849365,454.048983802795,604.479857196808,607.239857196808,1646351178.51415,1646351178.51572,1646351185.36328,1646351185.36514,1646351187.46302,1646351191.34585,1646351191.3477,1646351192.0875,1646351192.0791,1646351342.50997,0
105,4,1,3,25,5,2,c2_WhyHand,1,healthy?,19,H_167.jpg,1646350735.27011,1646350735.28064,440.484040966034,6.83087396621704,447.333170166016,449.432903757095,0.3,454.36560915947,0.666582345962524,455.040524950027,1,left,0.65030312538147,455.032191505432,604.479857196808,607.239857196808,1646351178.51415,1646351178.51572,1646351185.36328,1646351185.36514,1646351187.46302,1646351192.39572,1646351192.39746,1646351193.07064,1646351193.0623,1646351342.50997,1
105,4,1,3,25,6,2,c2_WhyHand,2,healthy?,20,H_007.jpg,1646350735.27011,1646350735.28064,440.484040966034,6.83087396621704,447.333170166016,449.432903757095,0.3,455.348818531036,0.916550159454346,456.273426046371,3,right,0.900413990020752,456.265368690491,604.479857196808,607.239857196808,1646351178.51415,1646351178.51572,1646351185.36328,1646351185.36514,1646351187.46302,1646351193.37893,1646351193.38072,1646351194.30354,1646351194.29548,1646351342.50997,0
105,4,1,3,25,7,2,c2_WhyHand,1,healthy?,21,H_627.jpg,1646350735.27011,1646350735.28064,440.484040966034,6.83087396621704,447.333170166016,449.432903757095,0.3,456.581994047165,0.966544389724731,457.555630912781,3,right,0.956346988677979,457.54853843689,604.479857196808,607.239857196808,1646351178.51415,1646351178.51572,1646351185.36328,1646351185.36514,1646351187.46302,1646351194.61211,1646351194.6136,1646351195.58574,1646351195.57865,1646351342.50997,0
105,4,1,3,25,8,2,c2_WhyHand,2,healthy?,22,H_130.jpg,1646350735.27011,1646350735.28064,440.484040966034,6.83087396621704,447.333170166016,449.432903757095,0.3,457.865164985657,1.23317623138428,459.104552021027,3,right,1.22059297561646,459.098341217041,604.479857196808,607.239857196808,1646351178.51415,1646351178.51572,1646351185.36328,1646351185.36514,1646351187.46302,1646351195.89528,1646351195.89677,1646351197.13467,1646351197.12845,1646351342.50997,0
105,4,1,3,26,1,4,c4_HowHand,1,pressing button?,82,H_126.jpg,1646350735.27011,1646350735.28064,459.181663742065,7.18726325035095,466.380748977661,468.480481853485,2.09973287582397,468.630462398529,0.683247566223145,469.315887918472,1,left,0.67298412322998,469.313709964752,604.479857196808,607.239857196808,1646351197.21178,1646351197.21797,1646351204.41086,1646351204.41512,1646351206.51059,1646351206.66058,1646351206.66404,1646351207.346,1646351207.34382,1646351342.50997,1
105,4,1,3,26,2,4,c4_HowHand,2,pressing button?,85,H_130.jpg,1646350735.27011,1646350735.28064,459.181663742065,7.18726325035095,466.380748977661,468.480481853485,0.3,469.630335798264,0.583258390426636,470.2155859375,3,right,0.570048093795776,470.21359418869,604.479857196808,607.239857196808,1646351197.21178,1646351197.21797,1646351204.41086,1646351204.41512,1646351206.51059,1646351207.66045,1646351207.66277,1646351208.2457,1646351208.24371,1646351342.50997,0
105,4,1,3,26,3,4,c4_HowHand,1,pressing button?,84,H_483.jpg,1646350735.27011,1646350735.28064,459.181663742065,7.18726325035095,466.380748977661,468.480481853485,0.3,470.53022192955,0.749903202056885,471.281590929031,1,left,0.742119789123535,471.280125131607,604.479857196808,607.239857196808,1646351197.21178,1646351197.21797,1646351204.41086,1646351204.41512,1646351206.51059,1646351208.56033,1646351208.56286,1646351209.3117,1646351209.31024,1646351342.50997,1
105,4,1,3,26,4,4,c4_HowHand,2,pressing button?,87,H_024.jpg,1646350735.27011,1646350735.28064,459.181663742065,7.18726325035095,466.380748977661,468.480481853485,0.3,471.59675239563,0.783233642578125,472.381499996185,3,right,0.761023998260498,472.379986038208,604.479857196808,607.239857196808,1646351197.21178,1646351197.21797,1646351204.41086,1646351204.41512,1646351206.51059,1646351209.62687,1646351209.6289,1646351210.41161,1646351210.4101,1646351342.50997,0
105,4,1,3,26,5,4,c4_HowHand,1,pressing button?,86,H_332.jpg,1646350735.27011,1646350735.28064,459.181663742065,7.18726325035095,466.380748977661,468.480481853485,0.3,472.696613063812,0.499935388565063,473.197648992538,1,left,0.486431121826172,473.196548452377,604.479857196808,607.239857196808,1646351197.21178,1646351197.21797,1646351204.41086,1646351204.41512,1646351206.51059,1646351210.72673,1646351210.72829,1646351211.22776,1646351211.22666,1646351342.50997,1
105,4,1,3,26,6,4,c4_HowHand,1,pressing button?,88,H_019.jpg,1646350735.27011,1646350735.28064,459.181663742065,7.18726325035095,466.380748977661,468.480481853485,0.3,473.5131757164,0.61658787727356,474.130815973282,1,left,0.608242034912109,474.129763593674,604.479857196808,607.239857196808,1646351197.21178,1646351197.21797,1646351204.41086,1646351204.41512,1646351206.51059,1646351211.54329,1646351211.54489,1646351212.16093,1646351212.15988,1646351342.50997,1
105,4,1,3,26,7,4,c4_HowHand,2,pressing button?,81,H_261.jpg,1646350735.27011,1646350735.28064,459.181663742065,7.18726325035095,466.380748977661,468.480481853485,0.3,474.446389427185,0.683247327804565,475.131359090805,3,right,0.672723054885864,475.12963675499,604.479857196808,607.239857196808,1646351197.21178,1646351197.21797,1646351204.41086,1646351204.41512,1646351206.51059,1646351212.4765,1646351212.47803,1646351213.16147,1646351213.15975,1646351342.50997,0
105,4,1,3,26,8,4,c4_HowHand,1,pressing button?,83,H_502.jpg,1646350735.27011,1646350735.28064,459.181663742065,7.18726325035095,466.380748977661,468.480481853485,0.3,475.446262350082,0.599924087524414,476.047132959366,1,left,0.588293075561523,476.046186437607,604.479857196808,607.239857196808,1646351197.21178,1646351197.21797,1646351204.41086,1646351204.41512,1646351206.51059,1646351213.47638,1646351213.47817,1646351214.07725,1646351214.0763,1646351342.50997,1
105,4,1,3,27,1,3,c3_HowFace,1,looking at camera?,60,F_618.jpg,1646350735.27011,1646350735.28064,476.129509439468,7.76947665214539,483.911853780746,486.011586418152,2.0997326374054,486.161567678452,0.583259105682373,486.746199121475,1,left,0.568428993225098,486.744826784134,604.479857196808,607.239857196808,1646351214.15962,1646351214.16141,1646351221.94197,1646351221.94367,1646351224.0417,1646351224.19168,1646351224.19366,1646351224.77631,1646351224.77494,1646351342.50997,1
105,4,1,3,27,2,3,c3_HowFace,2,looking at camera?,58,F_754.jpg,1646350735.27011,1646350735.28064,476.129509439468,7.76947665214539,483.911853780746,486.011586418152,0.3,487.061452617645,0.599924087524414,487.674263944626,3,right,0.593437910079956,487.66137670517,604.479857196808,607.239857196808,1646351214.15962,1646351214.16141,1646351221.94197,1646351221.94367,1646351224.0417,1646351225.09157,1646351225.09307,1646351225.70438,1646351225.69149,1646351342.50997,0
105,4,1,3,27,3,3,c3_HowFace,1,looking at camera?,59,F_129.jpg,1646350735.27011,1646350735.28064,476.129509439468,7.76947665214539,483.911853780746,486.011586418152,0.3,487.978002300262,0.566595315933228,488.545635929108,1,left,0.54864501953125,488.544597616196,604.479857196808,607.239857196808,1646351214.15962,1646351214.16141,1646351221.94197,1646351221.94367,1646351224.0417,1646351226.00812,1646351226.00973,1646351226.57575,1646351226.57471,1646351342.50997,1
105,4,1,3,27,4,3,c3_HowFace,1,looking at camera?,62,F_598.jpg,1646350735.27011,1646350735.28064,476.129509439468,7.76947665214539,483.911853780746,486.011586418152,0.3,488.861223688126,0.733241081237793,489.596005907059,1,left,0.715868949890137,489.594464769363,604.479857196808,607.239857196808,1646351214.15962,1646351214.16141,1646351221.94197,1646351221.94367,1646351224.0417,1646351226.89134,1646351226.893,1646351227.62612,1646351227.62458,1646351342.50997,1
105,4,1,3,27,5,3,c3_HowFace,1,looking at camera?,64,F_128.jpg,1646350735.27011,1646350735.28064,476.129509439468,7.76947665214539,483.911853780746,486.011586418152,0.3,489.911089887619,0.983208894729614,490.89593290329,1,left,0.966511011123657,490.894298782349,604.479857196808,607.239857196808,1646351214.15962,1646351214.16141,1646351221.94197,1646351221.94367,1646351224.0417,1646351227.9412,1646351227.94276,1646351228.92605,1646351228.92441,1646351342.50997,1
105,4,1,3,27,6,3,c3_HowFace,2,looking at camera?,57,F_582.jpg,1646350735.27011,1646350735.28064,476.129509439468,7.76947665214539,483.911853780746,486.011586418152,0.3,491.21092461586,0.8998863697052,492.112255086899,3,right,0.884108066558838,492.110810985565,604.479857196808,607.239857196808,1646351214.15962,1646351214.16141,1646351221.94197,1646351221.94367,1646351224.0417,1646351229.24104,1646351229.24274,1646351230.14237,1646351230.14092,1646351342.50997,0
105,4,1,3,27,7,3,c3_HowFace,1,looking at camera?,61,F_774.jpg,1646350735.27011,1646350735.28064,476.129509439468,7.76947665214539,483.911853780746,486.011586418152,0.3,492.427436819077,0.449943065643311,492.888226976395,1,left,0.438103199005127,492.87737988472,604.479857196808,607.239857196808,1646351214.15962,1646351214.16141,1646351221.94197,1646351221.94367,1646351224.0417,1646351230.45755,1646351230.4592,1646351230.91834,1646351230.90749,1646351342.50997,1
