src_subject_id,session_id,run_id,param_counterbalance_ver,param_block_num,param_trial_num,param_cond_type_num,param_cond_type_string,param_normative_response,param_ques_type_string,param_image_num,param_image_filename,param_trigger_onset,param_start_biopac,event01_fixation,event01_fixation_dur,event01_blockquestion_onset,event01_block_isi_blacksreen,event01_blockquestion_dur,event02_image_onset,event02_image_dur,event03_response_onset,event03_response_key,event03_response_keyname,event03_RT,event04_shortquestion_onset,param_end_instruct_onset,param_experiment_duration,RAW_e1_fixation,RAW_e1_fixation_biopac,RAW_e1_blockquestion_onset,RAW_e1_blockquestion_onset_biopac,RAW_e1_block_isi_blacksreen,RAW_e2_image_onset,RAW_e2_image_onset_biopac,RAW_e3_response_onset,RAW_e4_shortquestion_onset,RAW_param_end_instruct_onset,accuracy
89,4,2,4,1,1,3,c3_HowFace,1,smiling?,118,F_759.jpg,1642106958.32311,1642106958.32496,0.0171499156951902,0.0453701019287109,0.0671687030792234,2.11793397903442,2.0507652759552,2.26798962593079,1.11708331108093,3.3878099822998,1,left,1.08495092391968,3.38507293701172,604.475899686813,607.235899686813,1642106961.10026,1642106961.11535,1642106961.15027,1642106961.16252,1642106963.20104,1642106963.35109,1642106963.35274,1642106964.47092,1642106964.46818,1642107565.559,1
89,4,2,4,1,2,3,c3_HowFace,2,smiling?,114,F_412.jpg,1642106958.32311,1642106958.32496,0.0171499156951902,0.0453701019287109,0.0671687030792234,2.11793397903442,0.3,3.70185803413391,0.90033483505249,4.6045498752594,3,right,0.882204055786133,4.6021928691864,604.475899686813,607.235899686813,1642106961.10026,1642106961.11535,1642106961.15027,1642106961.16252,1642106963.20104,1642106964.78496,1642106964.78666,1642106965.68765,1642106965.6853,1642107565.559,0
89,4,2,4,1,3,3,c3_HowFace,1,smiling?,117,F_593.jpg,1642106958.32311,1642106958.32496,0.0171499156951902,0.0453701019287109,0.0671687030792234,2.11793397903442,0.3,4.91897772789001,0.850317478179932,5.77132390975952,1,left,0.826850175857544,5.76929520606995,604.475899686813,607.235899686813,1642106961.10026,1642106961.11535,1642106961.15027,1642106961.16252,1642106963.20104,1642106966.00208,1642106966.004,1642106966.85443,1642106966.8524,1642107565.559,1
89,4,2,4,1,4,3,c3_HowFace,2,smiling?,113,F_712.jpg,1642106958.32311,1642106958.32496,0.0171499156951902,0.0453701019287109,0.0671687030792234,2.11793397903442,0.3,6.08608006477356,0.850317478179932,6.93854092597961,3,right,0.829726934432983,6.93639754295349,604.475899686813,607.235899686813,1642106961.10026,1642106961.11535,1642106961.15027,1642106961.16252,1642106963.20104,1642106967.16919,1642106967.17077,1642106968.02165,1642106968.0195,1642107565.559,0
89,4,2,4,1,5,3,c3_HowFace,1,smiling?,115,F_695.jpg,1642106958.32311,1642106958.32496,0.0171499156951902,0.0453701019287109,0.0671687030792234,2.11793397903442,0.3,7.25318216323853,0.783626079559326,8.04641078948975,1,left,0.77097487449646,8.03680824279785,604.475899686813,607.235899686813,1642106961.10026,1642106961.11535,1642106961.15027,1642106961.16252,1642106963.20104,1642106968.33629,1642106968.33967,1642106969.12952,1642106969.11991,1642107565.559,1
89,4,2,4,1,6,3,c3_HowFace,1,smiling?,119,F_139.jpg,1642106958.32311,1642106958.32496,0.0171499156951902,0.0453701019287109,0.0671687030792234,2.11793397903442,0.3,8.35359333992004,0.016671895980835,8.37939690589905,1,left,0.000243902206420898,8.37026523590088,604.475899686813,607.235899686813,1642106961.10026,1642106961.11535,1642106961.15027,1642106961.16252,1642106963.20104,1642106969.4367,1642106969.44474,1642106969.4625,1642106969.45337,1642107565.559,1
89,4,2,4,1,7,3,c3_HowFace,1,smiling?,116,F_083.jpg,1642106958.32311,1642106958.32496,0.0171499156951902,0.0453701019287109,0.0671687030792234,2.11793397903442,0.3,8.68705009460449,0.766953229904175,9.46222399711609,1,left,0.758591890335083,9.45400332450867,604.475899686813,607.235899686813,1642106961.10026,1642106961.11535,1642106961.15027,1642106961.16252,1642106963.20104,1642106969.77016,1642106969.77204,1642106970.54533,1642106970.53711,1642107565.559,1
89,4,2,4,1,8,3,c3_HowFace,2,smiling?,120,F_758.jpg,1642106958.32311,1642106958.32496,0.0171499156951902,0.0453701019287109,0.0671687030792234,2.11793397903442,0.3,9.77078675270081,0.816972255706787,10.5958559417725,3,right,0.804394006729126,10.5877590084076,604.475899686813,607.235899686813,1642106961.10026,1642106961.11535,1642106961.15027,1642106961.16252,1642106963.20104,1642106970.85389,1642106970.85544,1642106971.67896,1642106971.67086,1642107565.559,0
89,4,2,4,2,1,1,c1_WhyFace,1,admiring?,1,F_593.jpg,1642106958.32311,1642106958.32496,10.7378148937225,8.37133502960205,19.1242754364014,21.225059261322,2.10078382492065,21.3751146697998,0.900336503982544,22.278666009903,1,left,0.88283896446228,22.2754511737823,604.475899686813,607.235899686813,1642106971.82092,1642106971.82896,1642106980.20738,1642106980.2131,1642106982.30816,1642106982.45822,1642106982.46221,1642106983.36177,1642106983.35856,1642107565.559,1
89,4,2,4,2,2,1,c1_WhyFace,2,admiring?,2,F_129.jpg,1642106958.32311,1642106958.32496,10.7378148937225,8.37133502960205,19.1242754364014,21.225059261322,0.3,22.592236032486,1.15042901039124,23.7456660175323,1,left,1.13097810745239,23.7426650428772,604.475899686813,607.235899686813,1642106971.82092,1642106971.82896,1642106980.20738,1642106980.2131,1642106982.30816,1642106983.67534,1642106983.67872,1642106984.82877,1642106984.82577,1642107565.559,0
89,4,2,4,2,3,1,c1_WhyFace,1,admiring?,5,F_759.jpg,1642106958.32311,1642106958.32496,10.7378148937225,8.37133502960205,19.1242754364014,21.225059261322,0.3,24.0594501399994,0.766951560974121,24.8289317989349,1,left,0.7586510181427,24.8264017009735,604.475899686813,607.235899686813,1642106971.82092,1642106971.82896,1642106980.20738,1642106980.2131,1642106982.30816,1642106985.14256,1642106985.14541,1642106985.91204,1642106985.90951,1642107565.559,1
89,4,2,4,2,4,1,c1_WhyFace,2,admiring?,6,F_692.jpg,1642106958.32311,1642106958.32496,10.7378148937225,8.37133502960205,19.1242754364014,21.225059261322,0.3,25.1431870365143,1.25046610832214,26.3954899215698,1,left,1.23441600799561,26.3936531448364,604.475899686813,607.235899686813,1642106971.82092,1642106971.82896,1642106980.20738,1642106980.2131,1642106982.30816,1642106986.22629,1642106986.22886,1642106987.4786,1642106987.47676,1642107565.559,0
89,4,2,4,2,5,1,c1_WhyFace,1,admiring?,4,F_779.jpg,1642106958.32311,1642106958.32496,10.7378148937225,8.37133502960205,19.1242754364014,21.225059261322,0.3,26.7104389572144,0.933679580688477,27.6455049419403,1,left,0.917979001998901,27.6441185379028,604.475899686813,607.235899686813,1642106971.82092,1642106971.82896,1642106980.20738,1642106980.2131,1642106982.30816,1642106987.79354,1642106987.79562,1642106988.72861,1642106988.72722,1642107565.559,1
89,4,2,4,2,6,1,c1_WhyFace,1,admiring?,8,F_590.jpg,1642106958.32311,1642106958.32496,10.7378148937225,8.37133502960205,19.1242754364014,21.225059261322,0.3,27.9609045886993,1.01704597473145,28.9795257949829,1,left,1.00225496292114,28.9779505634308,604.475899686813,607.235899686813,1642106971.82092,1642106971.82896,1642106980.20738,1642106980.2131,1642106982.30816,1642106989.04401,1642106989.04543,1642106990.06263,1642106990.06106,1642107565.559,1
89,4,2,4,2,7,1,c1_WhyFace,1,admiring?,7,F_648.jpg,1642106958.32311,1642106958.32496,10.7378148937225,8.37133502960205,19.1242754364014,21.225059261322,0.3,29.2947351837158,0.900335788726807,30.1969368362427,1,left,0.880702018737793,30.1950709724426,604.475899686813,607.235899686813,1642106971.82092,1642106971.82896,1642106980.20738,1642106980.2131,1642106982.30816,1642106990.37784,1642106990.3794,1642106991.28004,1642106991.27818,1642107565.559,1
89,4,2,4,2,8,1,c1_WhyFace,2,admiring?,3,F_110.jpg,1642106958.32311,1642106958.32496,10.7378148937225,8.37133502960205,19.1242754364014,21.225059261322,0.3,30.5118563079834,0.833643674850464,31.3473198318481,3,right,0.805608034133911,31.3454999828339,604.475899686813,607.235899686813,1642106971.82092,1642106971.82896,1642106980.20738,1642106980.2131,1642106982.30816,1642106991.59496,1642106991.5966,1642106992.43042,1642106992.42861,1642107565.559,0
89,4,2,4,3,1,2,c2_WhyHand,1,competing?,9,H_261.jpg,1642106958.32311,1642106958.32496,31.4455366039276,6.71754336357117,38.1813828849793,40.2654926681519,2.08410978317261,40.4155492687225,0.900336027145386,41.3169839286804,1,left,0.87205696105957,41.3158852958679,604.475899686813,607.235899686813,1642106992.52864,1642106992.53074,1642106999.26449,1642106999.26663,1642107001.3486,1642107001.49865,1642107001.51268,1642107002.40009,1642107002.39899,1642107565.559,1
89,4,2,4,3,2,2,c2_WhyHand,1,competing?,15,H_170.jpg,1642106958.32311,1642106958.32496,31.4455366039276,6.71754336357117,38.1813828849793,40.2654926681519,0.3,41.632669916153,1.23379278182983,42.867552986145,1,left,1.21705102920532,42.8664626979828,604.475899686813,607.235899686813,1642106992.52864,1642106992.53074,1642106999.26449,1642106999.26663,1642107001.3486,1642107002.71578,1642107002.71762,1642107003.95066,1642107003.94957,1642107565.559,1
89,4,2,4,3,3,2,c2_WhyHand,2,competing?,12,H_483.jpg,1642106958.32311,1642106958.32496,31.4455366039276,6.71754336357117,38.1813828849793,40.2654926681519,0.3,43.1832480335236,0.900336265563965,44.0846698188782,3,right,0.879756927490234,44.0835842990875,604.475899686813,607.235899686813,1642106992.52864,1642106992.53074,1642106999.26449,1642106999.26663,1642107001.3486,1642107004.26635,1642107004.2679,1642107005.16777,1642107005.16669,1642107565.559,0
89,4,2,4,3,4,2,c2_WhyHand,1,competing?,14,H_132.jpg,1642106958.32311,1642106958.32496,31.4455366039276,6.71754336357117,38.1813828849793,40.2654926681519,0.3,44.4003679656982,0.816971302032471,45.2191748523712,1,left,0.800321817398071,45.2173392677307,604.475899686813,607.235899686813,1642106992.52864,1642106992.53074,1642106999.26449,1642106999.26663,1642107001.3486,1642107005.48347,1642107005.48509,1642107006.30228,1642107006.30044,1642107565.559,1
89,4,2,4,3,5,2,c2_WhyHand,1,competing?,16,H_136.jpg,1642106958.32311,1642106958.32496,31.4455366039276,6.71754336357117,38.1813828849793,40.2654926681519,0.3,45.5341243648529,1.11708354949951,46.6525828742981,1,left,1.09844899177551,46.6512079143524,604.475899686813,607.235899686813,1642106992.52864,1642106992.53074,1642106999.26449,1642106999.26663,1642107001.3486,1642107006.61723,1642107006.61867,1642107007.73569,1642107007.73431,1642107565.559,1
89,4,2,4,3,6,2,c2_WhyHand,1,competing?,13,H_003.jpg,1642106958.32311,1642106958.32496,31.4455366039276,6.71754336357117,38.1813828849793,40.2654926681519,0.3,46.9679932498932,0.783624410629272,47.7531349563599,1,left,0.75977897644043,47.7516176605225,604.475899686813,607.235899686813,1642106992.52864,1642106992.53074,1642106999.26449,1642106999.26663,1642107001.3486,1642107008.0511,1642107008.05258,1642107008.83624,1642107008.83472,1642107565.559,1
89,4,2,4,3,7,2,c2_WhyHand,2,competing?,10,H_126.jpg,1642106958.32311,1642106958.32496,31.4455366039276,6.71754336357117,38.1813828849793,40.2654926681519,0.3,48.0684032344818,0.967026710510254,49.0458388233185,3,right,0.958003997802734,49.0354299449921,604.475899686813,607.235899686813,1642106992.52864,1642106992.53074,1642106999.26449,1642106999.26663,1642107001.3486,1642107009.15151,1642107009.1528,1642107010.12894,1642107010.11854,1642107565.559,0
89,4,2,4,3,8,2,c2_WhyHand,2,competing?,11,H_502.jpg,1642106958.32311,1642106958.32496,31.4455366039276,6.71754336357117,38.1813828849793,40.2654926681519,0.3,49.3522150421143,1.36717653274536,50.7285449409485,3,right,1.3538601398468,50.7193915748596,604.475899686813,607.235899686813,1642106992.52864,1642106992.53074,1642106999.26449,1642106999.26663,1642107001.3486,1642107010.43532,1642107010.43686,1642107011.81165,1642107011.8025,1642107565.559,0
89,4,2,4,4,1,4,c4_HowHand,1,reaching?,111,H_003.jpg,1642106958.32311,1642106958.32496,50.8027562999725,9.84237766265869,60.6564309501648,62.7572138214111,2.10078287124634,62.9072699451447,1.23379302024841,64.1449990177154,1,left,1.2219672203064,64.1410629653931,604.475899686813,607.235899686813,1642107011.88586,1642107011.88782,1642107021.73954,1642107021.74618,1642107023.84032,1642107023.99038,1642107023.99563,1642107025.2281,1642107025.22417,1642107565.559,1
89,4,2,4,4,2,4,c4_HowHand,1,reaching?,110,H_364.jpg,1642106958.32311,1642106958.32496,50.8027562999725,9.84237766265869,60.6564309501648,62.7572138214111,0.3,64.457848777771,1.6839611530304,66.1459228897095,1,left,1.66945385932922,66.1418099308014,604.475899686813,607.235899686813,1642107011.88586,1642107011.88782,1642107021.73954,1642107021.74618,1642107023.84032,1642107025.54095,1642107025.54519,1642107027.22903,1642107027.22492,1642107565.559,1
89,4,2,4,4,3,4,c4_HowHand,2,reaching?,108,H_532.jpg,1642106958.32311,1642106958.32496,50.8027562999725,9.84237766265869,60.6564309501648,62.7572138214111,0.3,66.4585950279236,1.05039119720459,67.5125319862366,3,right,1.029541015625,67.5089862251282,604.475899686813,607.235899686813,1642107011.88586,1642107011.88782,1642107021.73954,1642107021.74618,1642107023.84032,1642107027.5417,1642107027.54547,1642107028.59564,1642107028.59209,1642107565.559,0
89,4,2,4,4,4,4,c4_HowHand,1,reaching?,106,H_006.jpg,1642106958.32311,1642106958.32496,50.8027562999725,9.84237766265869,60.6564309501648,62.7572138214111,0.3,67.8257708454132,0.983700275421143,68.8123729133606,1,left,0.970619916915894,68.8094711208343,604.475899686813,607.235899686813,1642107011.88586,1642107011.88782,1642107021.73954,1642107021.74618,1642107023.84032,1642107028.90888,1642107028.9121,1642107029.89548,1642107029.89258,1642107565.559,1
89,4,2,4,4,5,4,c4_HowHand,2,reaching?,105,H_438.jpg,1642106958.32311,1642106958.32496,50.8027562999725,9.84237766265869,60.6564309501648,62.7572138214111,0.3,69.126255979538,0.917008638381958,70.0457968616486,3,right,0.894278764724731,70.0432646179199,604.475899686813,607.235899686813,1642107011.88586,1642107011.88782,1642107021.73954,1642107021.74618,1642107023.84032,1642107030.20936,1642107030.21203,1642107031.1289,1642107031.12637,1642107565.559,0
89,4,2,4,4,6,4,c4_HowHand,1,reaching?,107,H_007.jpg,1642106958.32311,1642106958.32496,50.8027562999725,9.84237766265869,60.6564309501648,62.7572138214111,0.3,70.360049238205,0.800297975540161,71.1619319820404,1,left,0.78616189956665,71.1603472137451,604.475899686813,607.235899686813,1642107011.88586,1642107011.88782,1642107021.73954,1642107021.74618,1642107023.84032,1642107031.44315,1642107031.44561,1642107032.24504,1642107032.24345,1642107565.559,1
89,4,2,4,4,7,4,c4_HowHand,1,reaching?,109,H_474.jpg,1642106958.32311,1642106958.32496,50.8027562999725,9.84237766265869,60.6564309501648,62.7572138214111,0.3,71.4771332645416,1.03371810913086,72.5126249694824,1,left,1.01491403579712,72.5108513736725,604.475899686813,607.235899686813,1642107011.88586,1642107011.88782,1642107021.73954,1642107021.74618,1642107023.84032,1642107032.56024,1642107032.56216,1642107033.59573,1642107033.59396,1642107565.559,1
89,4,2,4,4,8,4,c4_HowHand,2,reaching?,112,H_132.jpg,1642106958.32311,1642106958.32496,50.8027562999725,9.84237766265869,60.6564309501648,62.7572138214111,0.3,72.8276359939575,1.18377447128296,74.0123269462585,3,right,1.17502808570862,74.0114104652405,604.475899686813,607.235899686813,1642107011.88586,1642107011.88782,1642107021.73954,1642107021.74618,1642107023.84032,1642107033.91074,1642107033.91216,1642107035.09543,1642107035.09452,1642107565.559,0
89,4,2,4,5,1,3,c3_HowFace,1,open mouth?,73,F_403.jpg,1642106958.32311,1642106958.32496,74.0781021022797,5.67568182945251,79.7635557556152,81.864340057373,2.10078430175781,82.0143968963623,0.733606576919556,82.7624008560181,1,left,0.723372936248779,82.7480034732819,604.475899686813,607.235899686813,1642107035.16121,1642107035.1634,1642107040.84666,1642107040.84927,1642107042.94745,1642107043.0975,1642107043.09931,1642107043.84551,1642107043.83111,1642107565.559,1
89,4,2,4,5,2,3,c3_HowFace,2,open mouth?,79,F_648.jpg,1642106958.32311,1642106958.32496,74.0781021022797,5.67568182945251,79.7635557556152,81.864340057373,0.3,83.0647871398926,0.683587312698364,83.7497990036011,3,right,0.664375782012939,83.7483744525909,604.475899686813,607.235899686813,1642107035.16121,1642107035.1634,1642107040.84666,1642107040.84927,1642107042.94745,1642107044.14789,1642107044.1498,1642107044.8329,1642107044.83148,1642107565.559,0
89,4,2,4,5,3,3,c3_HowFace,1,open mouth?,74,F_776.jpg,1642106958.32311,1642106958.32496,74.0781021022797,5.67568182945251,79.7635557556152,81.864340057373,0.3,84.0651597881317,0.716933965682983,84.7868728542328,1,left,0.704682111740112,84.7820937538147,604.475899686813,607.235899686813,1642107035.16121,1642107035.1634,1642107040.84666,1642107040.84927,1642107042.94745,1642107045.14826,1642107045.1499,1642107045.86998,1642107045.8652,1642107565.559,1
89,4,2,4,5,4,3,c3_HowFace,2,open mouth?,77,F_584.jpg,1642106958.32311,1642106958.32496,74.0781021022797,5.67568182945251,79.7635557556152,81.864340057373,0.3,85.0988788509369,0.716934204101562,85.8176278972626,3,right,0.697738885879517,85.8158130550384,604.475899686813,607.235899686813,1642107035.16121,1642107035.1634,1642107040.84666,1642107040.84927,1642107042.94745,1642107046.18198,1642107046.18375,1642107046.90073,1642107046.89892,1642107565.559,0
89,4,2,4,5,5,3,c3_HowFace,1,open mouth?,80,F_844.jpg,1642106958.32311,1642106958.32496,74.0781021022797,5.67568182945251,79.7635557556152,81.864340057373,0.3,86.1325981521606,0.633569478988647,86.7679278755188,1,left,0.615308046340942,86.7661676311493,604.475899686813,607.235899686813,1642107035.16121,1642107035.1634,1642107040.84666,1642107040.84927,1642107042.94745,1642107047.2157,1642107047.21733,1642107047.85103,1642107047.84927,1642107565.559,1
89,4,2,4,5,6,3,c3_HowFace,1,open mouth?,78,F_692.jpg,1642106958.32311,1642106958.32496,74.0781021022797,5.67568182945251,79.7635557556152,81.864340057373,0.3,87.0829508209228,0.950356245040894,88.0458619499206,1,left,0.939484834671021,88.0333070659637,604.475899686813,607.235899686813,1642107035.16121,1642107035.1634,1642107040.84666,1642107040.84927,1642107042.94745,1642107048.16606,1642107048.16851,1642107049.12897,1642107049.11641,1642107565.559,1
89,4,2,4,5,7,3,c3_HowFace,1,open mouth?,75,F_086.jpg,1642106958.32311,1642106958.32496,74.0781021022797,5.67568182945251,79.7635557556152,81.864340057373,0.3,88.3500921630859,0.850316762924194,89.2022488021851,1,left,0.828594923019409,89.2004089260101,604.475899686813,607.235899686813,1642107035.16121,1642107035.1634,1642107040.84666,1642107040.84927,1642107042.94745,1642107049.4332,1642107049.4348,1642107050.28535,1642107050.28351,1642107565.559,1
89,4,2,4,5,8,3,c3_HowFace,2,open mouth?,76,F_544.jpg,1642106958.32311,1642106958.32496,74.0781021022797,5.67568182945251,79.7635557556152,81.864340057373,0.3,89.5171923542023,0.750280618667603,90.2693610095978,3,right,0.731399059295654,90.2674729728699,604.475899686813,607.235899686813,1642107035.16121,1642107035.1634,1642107040.84666,1642107040.84927,1642107042.94745,1642107050.6003,1642107050.60185,1642107051.35247,1642107051.35058,1642107565.559,0
89,4,2,4,6,1,1,c1_WhyFace,1,argument?,42,F_403.jpg,1642106958.32311,1642106958.32496,90.3341648483276,10.8991310596466,101.238230934143,103.339014759064,2.10078382492065,103.489070882797,1.63394212722778,105.130436887741,1,left,1.62096786499023,105.123013010025,604.475899686813,607.235899686813,1642107051.41727,1642107051.4187,1642107062.32134,1642107062.32816,1642107064.42212,1642107064.57218,1642107064.57907,1642107066.21354,1642107066.20612,1642107565.559,1
89,4,2,4,6,2,1,c1_WhyFace,2,argument?,46,F_844.jpg,1642106958.32311,1642106958.32496,90.3341648483276,10.8991310596466,101.238230934143,103.339014759064,0.3,105.439797391891,0.95035457611084,106.395572891235,3,right,0.942883968353271,106.390151968002,604.475899686813,607.235899686813,1642107051.41727,1642107051.4187,1642107062.32134,1642107062.32816,1642107064.42212,1642107066.5229,1642107066.52476,1642107067.47868,1642107067.47326,1642107565.559,0
89,4,2,4,6,3,1,c1_WhyFace,1,argument?,41,F_712.jpg,1642106958.32311,1642106958.32496,90.3341648483276,10.8991310596466,101.238230934143,103.339014759064,0.3,106.706936588287,1.1004114151001,107.812570800781,1,left,1.085942029953,107.807348003387,604.475899686813,607.235899686813,1642107051.41727,1642107051.4187,1642107062.32134,1642107062.32816,1642107064.42212,1642107067.79004,1642107067.79173,1642107068.89568,1642107068.89045,1642107565.559,1
89,4,2,4,6,4,1,c1_WhyFace,1,argument?,48,F_758.jpg,1642106958.32311,1642106958.32496,90.3341648483276,10.8991310596466,101.238230934143,103.339014759064,0.3,108.124131908417,0.850320100784302,108.979092826843,1,left,0.831518888473511,108.974452009201,604.475899686813,607.235899686813,1642107051.41727,1642107051.4187,1642107062.32134,1642107062.32816,1642107064.42212,1642107069.20724,1642107069.21049,1642107070.0622,1642107070.05756,1642107565.559,1
89,4,2,4,6,5,1,c1_WhyFace,2,argument?,45,F_433.jpg,1642106958.32311,1642106958.32496,90.3341648483276,10.8991310596466,101.238230934143,103.339014759064,0.3,109.291233768463,0.816972017288208,110.110052814484,3,right,0.790900945663452,110.108205785751,604.475899686813,607.235899686813,1642107051.41727,1642107051.4187,1642107062.32134,1642107062.32816,1642107064.42212,1642107070.37434,1642107070.37871,1642107071.19316,1642107071.19131,1642107565.559,0
89,4,2,4,6,6,1,c1_WhyFace,1,argument?,43,F_716.jpg,1642106958.32311,1642106958.32496,90.3341648483276,10.8991310596466,101.238230934143,103.339014759064,0.3,110.424990882874,0.750279664993286,111.177160968781,1,left,0.72568416595459,111.175270547867,604.475899686813,607.235899686813,1642107051.41727,1642107051.4187,1642107062.32134,1642107062.32816,1642107064.42212,1642107071.5081,1642107071.51198,1642107072.26027,1642107072.25838,1642107565.559,1
89,4,2,4,6,7,1,c1_WhyFace,2,argument?,44,F_139.jpg,1642106958.32311,1642106958.32496,90.3341648483276,10.8991310596466,101.238230934143,103.339014759064,0.3,111.492054452896,1.00037336349487,112.495126953125,3,right,0.988787889480591,112.492427816391,604.475899686813,607.235899686813,1642107051.41727,1642107051.4187,1642107062.32134,1642107062.32816,1642107064.42212,1642107072.57516,1642107072.57879,1642107073.57823,1642107073.57553,1642107565.559,0
89,4,2,4,6,8,1,c1_WhyFace,1,argument?,47,F_743.jpg,1642106958.32311,1642106958.32496,90.3341648483276,10.8991310596466,101.238230934143,103.339014759064,0.3,112.809212913513,0.950353860855103,113.761921873093,1,left,0.925763130187988,113.759566774368,604.475899686813,607.235899686813,1642107051.41727,1642107051.4187,1642107062.32134,1642107062.32816,1642107064.42212,1642107073.89232,1642107073.90054,1642107074.84503,1642107074.84267,1642107565.559,1
89,4,2,4,7,1,2,c2_WhyHand,1,helping?,39,H_024.jpg,1642106958.32311,1642106958.32496,113.826259126663,9.88858866691589,123.729951848984,125.830734481812,2.10078263282776,125.980791559219,1.71730661392212,127.967091789246,1,left,1.96382207870483,127.698098173141,604.475899686813,607.235899686813,1642107074.90936,1642107074.91215,1642107084.81306,1642107084.81479,1642107086.91384,1642107087.0639,1642107087.0659,1642107089.0502,1642107088.7812,1642107565.559,1
89,4,2,4,7,2,2,c2_WhyHand,1,helping?,36,H_349.jpg,1642106958.32311,1642106958.32496,113.826259126663,9.88858866691589,123.729951848984,125.830734481812,0.3,128.014883031845,0.0166730880737305,128.033340921402,1,left,0.000236988067626953,128.031556119919,604.475899686813,607.235899686813,1642107074.90936,1642107074.91215,1642107084.81306,1642107084.81479,1642107086.91384,1642107089.09799,1642107089.09963,1642107089.11645,1642107089.11466,1642107565.559,1
89,4,2,4,7,3,2,c2_WhyHand,1,helping?,38,H_077.jpg,1642106958.32311,1642106958.32496,113.826259126663,9.88858866691589,123.729951848984,125.830734481812,0.3,128.348340501785,0.733607530593872,129.082993974686,1,left,0.717504024505615,129.081948032379,604.475899686813,607.235899686813,1642107074.90936,1642107074.91215,1642107084.81306,1642107084.81479,1642107086.91384,1642107089.43145,1642107089.43321,1642107090.1661,1642107090.16505,1642107565.559,1
89,4,2,4,7,4,2,c2_WhyHand,1,helping?,37,H_474.jpg,1642106958.32311,1642106958.32496,113.826259126663,9.88858866691589,123.729951848984,125.830734481812,0.3,129.398733129501,1.10040998458862,130.51191400528,1,left,1.08839702606201,130.49914311409,604.475899686813,607.235899686813,1642107074.90936,1642107074.91215,1642107084.81306,1642107084.81479,1642107086.91384,1642107090.48184,1642107090.48382,1642107091.59502,1642107091.58225,1642107565.559,1
89,4,2,4,7,5,2,c2_WhyHand,2,helping?,33,H_091.jpg,1642106958.32311,1642106958.32496,113.826259126663,9.88858866691589,123.729951848984,125.830734481812,0.3,130.815927734375,0.983699798583984,131.804490795136,3,right,0.962018013000488,131.799627532959,604.475899686813,607.235899686813,1642107074.90936,1642107074.91215,1642107084.81306,1642107084.81479,1642107086.91384,1642107091.89903,1642107091.90084,1642107092.8876,1642107092.88273,1642107565.559,0
89,4,2,4,7,6,2,c2_WhyHand,2,helping?,35,H_159.jpg,1642106958.32311,1642106958.32496,113.826259126663,9.88858866691589,123.729951848984,125.830734481812,0.3,132.116413106918,1.20044779777527,133.318544855118,3,right,1.17834687232971,133.316860904694,604.475899686813,607.235899686813,1642107074.90936,1642107074.91215,1642107084.81306,1642107084.81479,1642107086.91384,1642107093.19952,1642107093.20127,1642107094.40165,1642107094.39997,1642107565.559,0
89,4,2,4,7,7,2,c2_WhyHand,1,helping?,34,H_111.jpg,1642106958.32311,1642106958.32496,113.826259126663,9.88858866691589,123.729951848984,125.830734481812,0.3,133.633645048141,1.217120885849,134.852578868866,1,left,1.20038199424744,134.85076593399,604.475899686813,607.235899686813,1642107074.90936,1642107074.91215,1642107084.81306,1642107084.81479,1642107086.91384,1642107094.71675,1642107094.71847,1642107095.93568,1642107095.93387,1642107565.559,1
89,4,2,4,7,8,2,c2_WhyHand,2,helping?,40,H_012.jpg,1642106958.32311,1642106958.32496,113.826259126663,9.88858866691589,123.729951848984,125.830734481812,0.3,135.167551031113,1.25046610832214,136.419458856583,3,right,1.23012495040894,136.418017139435,604.475899686813,607.235899686813,1642107074.90936,1642107074.91215,1642107084.81306,1642107084.81479,1642107086.91384,1642107096.25066,1642107096.25222,1642107097.50256,1642107097.50112,1642107565.559,0
89,4,2,4,8,1,4,c4_HowHand,1,both hands?,122,H_111.jpg,1642106958.32311,1642106958.32496,136.48470949173,4.7601683139801,141.253153791428,143.353936424255,2.10078263282776,143.503993263245,0.933681488037109,144.445595970154,1,left,0.918344974517822,144.437674751282,604.475899686813,607.235899686813,1642107097.56781,1642107097.56982,1642107102.33626,1642107102.34579,1642107104.43704,1642107104.5871,1642107104.59524,1642107105.5287,1642107105.52078,1642107565.559,1
89,4,2,4,8,2,4,c4_HowHand,1,both hands?,128,H_027.jpg,1642106958.32311,1642106958.32496,136.48470949173,4.7601683139801,141.253153791428,143.353936424255,0.3,144.75445889473,0.766952991485596,145.528445949554,1,left,0.749921083450317,145.521411886215,604.475899686813,607.235899686813,1642107097.56781,1642107097.56982,1642107102.33626,1642107102.34579,1642107104.43704,1642107105.83756,1642107105.83918,1642107106.61155,1642107106.60452,1642107565.559,1
89,4,2,4,8,3,4,c4_HowHand,2,both hands?,121,H_091.jpg,1642106958.32311,1642106958.32496,136.48470949173,4.7601683139801,141.253153791428,143.353936424255,0.3,145.838197221756,0.800297975540161,146.640323867798,3,right,0.780570983886719,146.638495197296,604.475899686813,607.235899686813,1642107097.56781,1642107097.56982,1642107102.33626,1642107102.34579,1642107104.43704,1642107106.9213,1642107106.92269,1642107107.72343,1642107107.7216,1642107565.559,0
89,4,2,4,8,4,4,c4_HowHand,1,both hands?,123,H_167.jpg,1642106958.32311,1642106958.32496,136.48470949173,4.7601683139801,141.253153791428,143.353936424255,0.3,146.955279579163,0.833644390106201,147.795498838425,1,left,0.816606044769287,147.788923969269,604.475899686813,607.235899686813,1642107097.56781,1642107097.56982,1642107102.33626,1642107102.34579,1642107104.43704,1642107108.03838,1642107108.03976,1642107108.8786,1642107108.87203,1642107565.559,1
89,4,2,4,8,5,4,c4_HowHand,1,both hands?,124,H_581.jpg,1642106958.32311,1642106958.32496,136.48470949173,4.7601683139801,141.253153791428,143.353936424255,0.3,148.105708589554,0.983701467514038,149.095937957764,1,left,0.965145826339722,149.089410057068,604.475899686813,607.235899686813,1642107097.56781,1642107097.56982,1642107102.33626,1642107102.34579,1642107104.43704,1642107109.18881,1642107109.19035,1642107110.17904,1642107110.17252,1642107565.559,1
89,4,2,4,8,6,4,c4_HowHand,2,both hands?,126,H_159.jpg,1642106958.32311,1642106958.32496,136.48470949173,4.7601683139801,141.253153791428,143.353936424255,0.3,149.406193962097,1.10041117668152,150.512449970245,3,right,1.09281992912292,150.506605138779,604.475899686813,607.235899686813,1642107097.56781,1642107097.56982,1642107102.33626,1642107102.34579,1642107104.43704,1642107110.4893,1642107110.49099,1642107111.59556,1642107111.58971,1642107565.559,0
89,4,2,4,8,7,4,c4_HowHand,1,both hands?,127,H_349.jpg,1642106958.32311,1642106958.32496,136.48470949173,4.7601683139801,141.253153791428,143.353936424255,0.3,150.823389520645,0.883662700653076,151.709079017639,1,left,0.864305019378662,151.707052221298,604.475899686813,607.235899686813,1642107097.56781,1642107097.56982,1642107102.33626,1642107102.34579,1642107104.43704,1642107111.90649,1642107111.90782,1642107112.79218,1642107112.79016,1642107565.559,1
89,4,2,4,8,8,4,c4_HowHand,2,both hands?,125,H_627.jpg,1642106958.32311,1642106958.32496,136.48470949173,4.7601683139801,141.253153791428,143.353936424255,0.3,152.02383731842,1.16710114479065,153.195784797668,3,right,1.14890289306641,153.190938463211,604.475899686813,607.235899686813,1642107097.56781,1642107097.56982,1642107102.33626,1642107102.34579,1642107104.43704,1642107113.10694,1642107113.10843,1642107114.27889,1642107114.27404,1642107565.559,0
89,4,2,4,9,1,2,c2_WhyHand,1,healthy?,18,H_438.jpg,1642106958.32311,1642106958.32496,153.257630577087,5.51750731468201,158.793027868271,160.877137651443,2.08410978317261,161.043868055344,1.06706404685974,162.11215590477,1,left,1.05427694320679,162.110932102203,604.475899686813,607.235899686813,1642107114.34074,1642107114.35024,1642107119.87613,1642107119.87891,1642107121.96024,1642107122.12697,1642107122.12926,1642107123.19526,1642107123.19404,1642107565.559,1
89,4,2,4,9,2,2,c2_WhyHand,1,healthy?,23,H_364.jpg,1642106958.32311,1642106958.32496,153.257630577087,5.51750731468201,158.793027868271,160.877137651443,0.3,162.427716722488,0.816971778869629,163.246657838821,1,left,0.788079977035522,163.244688501358,604.475899686813,607.235899686813,1642107114.34074,1642107114.35024,1642107119.87613,1642107119.87891,1642107121.96024,1642107123.51082,1642107123.51763,1642107124.32976,1642107124.32779,1642107565.559,1
89,4,2,4,9,3,2,c2_WhyHand,1,healthy?,17,H_362.jpg,1642106958.32311,1642106958.32496,153.257630577087,5.51750731468201,158.793027868271,160.877137651443,0.3,163.561472883224,0.917008638381958,164.480339994431,1,left,0.895230054855347,164.478481521606,604.475899686813,607.235899686813,1642107114.34074,1642107114.35024,1642107119.87613,1642107119.87891,1642107121.96024,1642107124.64458,1642107124.64616,1642107125.56345,1642107125.56159,1642107565.559,1
89,4,2,4,9,4,2,c2_WhyHand,2,healthy?,24,H_019.jpg,1642106958.32311,1642106958.32496,153.257630577087,5.51750731468201,158.793027868271,160.877137651443,0.3,164.795265665054,0.783625602722168,165.579941978455,3,right,0.77053689956665,165.578891267776,604.475899686813,607.235899686813,1642107114.34074,1642107114.35024,1642107119.87613,1642107119.87891,1642107121.96024,1642107125.87837,1642107125.87998,1642107126.66305,1642107126.662,1642107565.559,0
89,4,2,4,9,5,2,c2_WhyHand,1,healthy?,19,H_167.jpg,1642106958.32311,1642106958.32496,153.257630577087,5.51750731468201,158.793027868271,160.877137651443,0.3,165.895677080154,0.866989612579346,166.763720979691,1,left,0.84601902961731,166.762666692734,604.475899686813,607.235899686813,1642107114.34074,1642107114.35024,1642107119.87613,1642107119.87891,1642107121.96024,1642107126.97878,1642107126.98043,1642107127.84683,1642107127.84577,1642107565.559,1
89,4,2,4,9,6,2,c2_WhyHand,2,healthy?,20,H_007.jpg,1642106958.32311,1642106958.32496,153.257630577087,5.51750731468201,158.793027868271,160.877137651443,0.3,167.0794510746,0.967028141021729,168.047392835617,3,right,0.956614971160889,168.046479215622,604.475899686813,607.235899686813,1642107114.34074,1642107114.35024,1642107119.87613,1642107119.87891,1642107121.96024,1642107128.16256,1642107128.16426,1642107129.1305,1642107129.12958,1642107565.559,0
89,4,2,4,9,7,2,c2_WhyHand,1,healthy?,21,H_627.jpg,1642106958.32311,1642106958.32496,153.257630577087,5.51750731468201,158.793027868271,160.877137651443,0.3,168.363262643814,1.26714062690735,169.645874013901,1,left,1.25933218002319,169.630403270721,604.475899686813,607.235899686813,1642107114.34074,1642107114.35024,1642107119.87613,1642107119.87891,1642107121.96024,1642107129.44637,1642107129.44802,1642107130.72898,1642107130.71351,1642107565.559,1
89,4,2,4,9,8,2,c2_WhyHand,2,healthy?,22,H_130.jpg,1642106958.32311,1642106958.32496,153.257630577087,5.51750731468201,158.793027868271,160.877137651443,0.3,169.947187891006,0.816971063613892,170.765156021118,3,right,0.802361011505127,170.76415895462,604.475899686813,607.235899686813,1642107114.34074,1642107114.35024,1642107119.87613,1642107119.87891,1642107121.96024,1642107131.03029,1642107131.03161,1642107131.84826,1642107131.84726,1642107565.559,0
89,4,2,4,10,1,4,c4_HowHand,1,pressing button?,82,H_126.jpg,1642106958.32311,1642106958.32496,170.83085059166,6.62007927894592,177.46665810585,179.567441215515,2.10078310966492,179.717497816086,0.666915655136108,180.395792951584,1,left,0.652706861495972,180.384413471222,604.475899686813,607.235899686813,1642107131.91396,1642107131.91543,1642107138.54976,1642107138.55145,1642107140.65055,1642107140.8006,1642107140.80244,1642107141.4789,1642107141.46752,1642107565.559,1
89,4,2,4,10,2,4,c4_HowHand,2,pressing button?,85,H_130.jpg,1642106958.32311,1642106958.32496,170.83085059166,6.62007927894592,177.46665810585,179.567441215515,0.3,180.701198091507,0.766953706741333,181.479193916321,3,right,0.756717205047607,181.468151798248,604.475899686813,607.235899686813,1642107131.91396,1642107131.91543,1642107138.54976,1642107138.55145,1642107140.65055,1642107141.7843,1642107141.78716,1642107142.5623,1642107142.55126,1642107565.559,0
89,4,2,4,10,3,4,c4_HowHand,1,pressing button?,84,H_483.jpg,1642106958.32311,1642106958.32496,170.83085059166,6.62007927894592,177.46665810585,179.567441215515,0.3,181.784936180115,0.816970825195312,182.603394021988,1,left,0.799046039581299,182.60190700531,604.475899686813,607.235899686813,1642107131.91396,1642107131.91543,1642107138.54976,1642107138.55145,1642107140.65055,1642107142.86804,1642107142.86966,1642107143.6865,1642107143.68501,1642107565.559,1
89,4,2,4,10,4,4,c4_HowHand,2,pressing button?,87,H_024.jpg,1642106958.32311,1642106958.32496,170.83085059166,6.62007927894592,177.46665810585,179.567441215515,0.3,182.918691625595,0.850317478179932,183.778619995117,3,right,0.836054086685181,183.769009103775,604.475899686813,607.235899686813,1642107131.91396,1642107131.91543,1642107138.54976,1642107138.55145,1642107140.65055,1642107144.0018,1642107144.00309,1642107144.86173,1642107144.85211,1642107565.559,0
89,4,2,4,10,5,4,c4_HowHand,1,pressing button?,86,H_332.jpg,1642106958.32311,1642106958.32496,170.83085059166,6.62007927894592,177.46665810585,179.567441215515,0.3,184.08579372406,0.75027871131897,184.837644805908,1,left,0.733008861541748,184.836072435379,604.475899686813,607.235899686813,1642107131.91396,1642107131.91543,1642107138.54976,1642107138.55145,1642107140.65055,1642107145.1689,1642107145.17062,1642107145.92075,1642107145.91918,1642107565.559,1
89,4,2,4,10,6,4,c4_HowHand,1,pressing button?,88,H_019.jpg,1642106958.32311,1642106958.32496,170.83085059166,6.62007927894592,177.46665810585,179.567441215515,0.3,185.152857294083,0.850317239761353,186.012441864014,1,left,0.839827060699463,186.003174533844,604.475899686813,607.235899686813,1642107131.91396,1642107131.91543,1642107138.54976,1642107138.55145,1642107140.65055,1642107146.23596,1642107146.23746,1642107147.09555,1642107147.08628,1642107565.559,1
89,4,2,4,10,7,4,c4_HowHand,2,pressing button?,81,H_261.jpg,1642106958.32311,1642106958.32496,170.83085059166,6.62007927894592,177.46665810585,179.567441215515,0.3,186.319959869385,0.800299167633057,187.122066965103,3,right,0.778769969940186,187.120259037018,604.475899686813,607.235899686813,1642107131.91396,1642107131.91543,1642107138.54976,1642107138.55145,1642107140.65055,1642107147.40306,1642107147.40483,1642107148.20517,1642107148.20336,1642107565.559,0
89,4,2,4,10,8,4,c4_HowHand,1,pressing button?,83,H_502.jpg,1642106958.32311,1642106958.32496,170.83085059166,6.62007927894592,177.46665810585,179.567441215515,0.3,187.437042942047,0.833643674850464,188.272151937485,1,left,0.811536073684692,188.270686616898,604.475899686813,607.235899686813,1642107131.91396,1642107131.91543,1642107138.54976,1642107138.55145,1642107140.65055,1642107148.52015,1642107148.52179,1642107149.35526,1642107149.35379,1642107565.559,1
89,4,2,4,11,1,3,c3_HowFace,1,looking at camera?,60,F_618.jpg,1642106958.32311,1642106958.32496,188.337378730774,10.5935311317444,198.941333761215,201.042117109299,2.1007833480835,201.192173233032,0.900335311889648,202.095526924133,1,left,0.880528926849365,202.092508544922,604.475899686813,607.235899686813,1642107149.42048,1642107149.42196,1642107160.02444,1642107160.02864,1642107162.12522,1642107162.27528,1642107162.27889,1642107163.17863,1642107163.17561,1642107565.559,1
89,4,2,4,11,2,3,c3_HowFace,2,looking at camera?,58,F_754.jpg,1642106958.32311,1642106958.32496,188.337378730774,10.5935311317444,198.941333761215,201.042117109299,0.3,202.409292926788,0.650242805480957,203.062204828262,3,right,0.63817310333252,203.059535732269,604.475899686813,607.235899686813,1642107149.42048,1642107149.42196,1642107160.02444,1642107160.02864,1642107162.12522,1642107163.4924,1642107163.49565,1642107164.14531,1642107164.14264,1642107565.559,0
89,4,2,4,11,3,3,c3_HowFace,1,looking at camera?,59,F_129.jpg,1642106958.32311,1642106958.32496,188.337378730774,10.5935311317444,198.941333761215,201.042117109299,0.3,203.376320590973,0.683588981628418,204.062544813156,1,left,0.666928052902222,204.059909572601,604.475899686813,607.235899686813,1642107149.42048,1642107149.42196,1642107160.02444,1642107160.02864,1642107162.12522,1642107164.45943,1642107164.46299,1642107165.14565,1642107165.14301,1642107565.559,1
89,4,2,4,11,4,3,c3_HowFace,1,looking at camera?,62,F_598.jpg,1642106958.32311,1642106958.32496,188.337378730774,10.5935311317444,198.941333761215,201.042117109299,0.3,204.376694192886,0.816971063613892,205.195684900284,1,left,0.793116092681885,205.1936652565,604.475899686813,607.235899686813,1642107149.42048,1642107149.42196,1642107160.02444,1642107160.02864,1642107162.12522,1642107165.4598,1642107165.46206,1642107166.27879,1642107166.27677,1642107565.559,1
89,4,2,4,11,5,3,c3_HowFace,1,looking at camera?,64,F_128.jpg,1642106958.32311,1642106958.32496,188.337378730774,10.5935311317444,198.941333761215,201.042117109299,0.3,205.510449638367,0.800298452377319,206.311939945221,1,left,0.78400707244873,206.310748090744,604.475899686813,607.235899686813,1642107149.42048,1642107149.42196,1642107160.02444,1642107160.02864,1642107162.12522,1642107166.59355,1642107166.59547,1642107167.39505,1642107167.39385,1642107565.559,1
89,4,2,4,11,6,3,c3_HowFace,2,looking at camera?,57,F_582.jpg,1642106958.32311,1642106958.32496,188.337378730774,10.5935311317444,198.941333761215,201.042117109299,0.3,206.627532711029,1.06706500053406,207.696317901611,1,left,1.04493403434753,207.694597711563,604.475899686813,607.235899686813,1642107149.42048,1642107149.42196,1642107160.02444,1642107160.02864,1642107162.12522,1642107167.71064,1642107167.71218,1642107168.77942,1642107168.7777,1642107565.559,0
89,4,2,4,11,7,3,c3_HowFace,1,looking at camera?,61,F_774.jpg,1642106958.32311,1642106958.32496,188.337378730774,10.5935311317444,198.941333761215,201.042117109299,0.3,208.011383047104,0.73360538482666,208.746836891174,1,left,0.714654922485352,208.744988431931,604.475899686813,607.235899686813,1642107149.42048,1642107149.42196,1642107160.02444,1642107160.02864,1642107162.12522,1642107169.09449,1642107169.09611,1642107169.82994,1642107169.82809,1642107565.559,1
89,4,2,4,11,8,3,c3_HowFace,2,looking at camera?,63,F_743.jpg,1642106958.32311,1642106958.32496,188.337378730774,10.5935311317444,198.941333761215,201.042117109299,0.3,209.06177400589,0.750280141830444,209.813666810989,3,right,0.731276035308838,209.81205414772,604.475899686813,607.235899686813,1642107149.42048,1642107149.42196,1642107160.02444,1642107160.02864,1642107162.12522,1642107170.14488,1642107170.14998,1642107170.89677,1642107170.89516,1642107565.559,0
89,4,2,4,12,1,1,c1_WhyFace,1,self-doubt?,25,F_798.jpg,1642106958.32311,1642106958.32496,209.89541768074,7.82558512687683,217.731674423218,219.832457532883,2.10078310966492,219.982512702942,1.15043020248413,221.134618988037,1,left,1.13248801231384,221.132942905426,604.475899686813,607.235899686813,1642107170.97852,1642107170.97993,1642107178.81478,1642107178.81665,1642107180.91556,1642107181.06562,1642107181.06732,1642107182.21772,1642107182.21605,1642107565.559,1
89,4,2,4,12,2,1,c1_WhyFace,2,self-doubt?,27,F_086.jpg,1642106958.32311,1642106958.32496,209.89541768074,7.82558512687683,217.731674423218,219.832457532883,0.3,221.449726810455,1.71730804443359,NaN,0,NA,0,223.167034854889,604.475899686813,607.235899686813,1642107170.97852,1642107170.97993,1642107178.81478,1642107178.81665,1642107180.91556,1642107182.53283,1642107182.53438,NaN,1642107184.25014,1642107565.559,0
89,4,2,4,12,3,1,c1_WhyFace,1,self-doubt?,29,F_544.jpg,1642106958.32311,1642106958.32496,209.89541768074,7.82558512687683,217.731674423218,219.832457532883,0.3,223.483819475174,0.983699560165405,224.478828897476,1,left,0.968668937683105,224.467519035339,604.475899686813,607.235899686813,1642107170.97852,1642107170.97993,1642107178.81478,1642107178.81665,1642107180.91556,1642107184.56692,1642107184.569,1642107185.56193,1642107185.55062,1642107565.559,1
89,4,2,4,12,4,1,c1_WhyFace,1,self-doubt?,28,F_754.jpg,1642106958.32311,1642106958.32496,209.89541768074,7.82558512687683,217.731674423218,219.832457532883,0.3,224.784303655624,0.900336503982544,225.686048974991,1,left,0.88280987739563,225.684640159607,604.475899686813,607.235899686813,1642107170.97852,1642107170.97993,1642107178.81478,1642107178.81665,1642107180.91556,1642107185.86741,1642107185.86901,1642107186.76915,1642107186.76775,1642107565.559,1
89,4,2,4,12,5,1,c1_WhyFace,1,self-doubt?,26,F_111.jpg,1642106958.32311,1642106958.32496,209.89541768074,7.82558512687683,217.731674423218,219.832457532883,0.3,226.001424779892,0.683588743209839,226.69574092865,1,left,0.66959810256958,226.685013523102,604.475899686813,607.235899686813,1642107170.97852,1642107170.97993,1642107178.81478,1642107178.81665,1642107180.91556,1642107187.08453,1642107187.08597,1642107187.77885,1642107187.76812,1642107565.559,1
89,4,2,4,12,6,1,c1_WhyFace,1,self-doubt?,30,F_584.jpg,1642106958.32311,1642106958.32496,209.89541768074,7.82558512687683,217.731674423218,219.832457532883,0.3,227.001798143387,1.28381133079529,228.287158956528,1,left,1.26239609718323,228.285609474182,604.475899686813,607.235899686813,1642107170.97852,1642107170.97993,1642107178.81478,1642107178.81665,1642107180.91556,1642107188.0849,1642107188.08644,1642107189.37026,1642107189.36871,1642107565.559,1
89,4,2,4,12,7,1,c1_WhyFace,2,self-doubt?,32,F_128.jpg,1642106958.32311,1642106958.32496,209.89541768074,7.82558512687683,217.731674423218,219.832457532883,0.3,228.60239528656,1.51723194122314,230.12908290863,3,right,1.50174808502197,230.119627227783,604.475899686813,607.235899686813,1642107170.97852,1642107170.97993,1642107178.81478,1642107178.81665,1642107180.91556,1642107189.6855,1642107189.68731,1642107191.21219,1642107191.20273,1642107565.559,0
89,4,2,4,12,8,1,c1_WhyFace,2,self-doubt?,31,F_774.jpg,1642106958.32311,1642106958.32496,209.89541768074,7.82558512687683,217.731674423218,219.832457532883,0.3,230.436412086487,0.967026710510254,231.405957927704,3,right,0.949414968490601,231.403438796997,604.475899686813,607.235899686813,1642107170.97852,1642107170.97993,1642107178.81478,1642107178.81665,1642107180.91556,1642107191.51952,1642107191.52098,1642107192.48906,1642107192.48654,1642107565.559,0
89,4,2,4,13,1,2,c2_WhyHand,1,self-protection?,91,H_581.jpg,1642106958.32311,1642106958.32496,231.486803760529,3.76413512229919,235.25487493515,237.355657329559,2.10078239440918,237.505714645386,1.00037360191345,238.511741867065,1,left,0.985995054244995,238.506088247299,604.475899686813,607.235899686813,1642107192.56991,1642107192.57168,1642107196.33798,1642107196.34527,1642107198.43876,1642107198.58882,1642107198.59565,1642107199.59485,1642107199.58919,1642107565.559,1
89,4,2,4,13,2,2,c2_WhyHand,1,self-protection?,89,H_443.jpg,1642106958.32311,1642106958.32496,231.486803760529,3.76413512229919,235.25487493515,237.355657329559,0.3,238.822872867584,1.71730732917786,240.742357959747,1,left,1.89450497627258,240.540180196762,604.475899686813,607.235899686813,1642107192.56991,1642107192.57168,1642107196.33798,1642107196.34527,1642107198.43876,1642107199.90598,1642107199.90774,1642107201.82546,1642107201.62329,1642107565.559,1
89,4,2,4,13,3,2,c2_WhyHand,2,self-protection?,95,H_332.jpg,1642106958.32311,1642106958.32496,231.486803760529,3.76413512229919,235.25487493515,237.355657329559,0.3,240.856965293884,0.0166714191436768,240.878991832733,1,left,0.000261068344116211,240.873636713028,604.475899686813,607.235899686813,1642107192.56991,1642107192.57168,1642107196.33798,1642107196.34527,1642107198.43876,1642107201.94007,1642107201.94186,1642107201.9621,1642107201.95674,1642107565.559,0
89,4,2,4,13,4,2,c2_WhyHand,1,self-protection?,96,H_027.jpg,1642106958.32311,1642106958.32496,231.486803760529,3.76413512229919,235.25487493515,237.355657329559,0.3,241.190423240662,0.750278472900391,241.94534491539,1,left,0.727400064468384,241.940701713562,604.475899686813,607.235899686813,1642107192.56991,1642107192.57168,1642107196.33798,1642107196.34527,1642107198.43876,1642107202.27353,1642107202.28098,1642107203.02845,1642107203.02381,1642107565.559,1
89,4,2,4,13,5,2,c2_WhyHand,2,self-protection?,92,H_532.jpg,1642106958.32311,1642106958.32496,231.486803760529,3.76413512229919,235.25487493515,237.355657329559,0.3,242.257487049103,1.08373594284058,243.345505943298,3,right,1.06663990020752,243.341222991943,604.475899686813,607.235899686813,1642107192.56991,1642107192.57168,1642107196.33798,1642107196.34527,1642107198.43876,1642107203.34059,1642107203.34226,1642107204.42861,1642107204.42433,1642107565.559,0
89,4,2,4,13,6,2,c2_WhyHand,1,self-protection?,94,H_189.jpg,1642106958.32311,1642106958.32496,231.486803760529,3.76413512229919,235.25487493515,237.355657329559,0.3,243.658008804321,1.46721410751343,245.128463020325,1,left,1.45230197906494,245.125222911835,604.475899686813,607.235899686813,1642107192.56991,1642107192.57168,1642107196.33798,1642107196.34527,1642107198.43876,1642107204.74111,1642107204.74539,1642107206.21157,1642107206.20833,1642107565.559,1
89,4,2,4,13,7,2,c2_WhyHand,2,self-protection?,90,H_006.jpg,1642106958.32311,1642106958.32496,231.486803760529,3.76413512229919,235.25487493515,237.355657329559,0.3,245.442008247375,1.20044732093811,246.645010938644,3,right,1.19161987304688,246.642455568314,604.475899686813,607.235899686813,1642107192.56991,1642107192.57168,1642107196.33798,1642107196.34527,1642107198.43876,1642107206.52511,1642107206.52874,1642107207.72812,1642107207.72556,1642107565.559,0
89,4,2,4,13,8,2,c2_WhyHand,1,self-protection?,93,H_038.jpg,1642106958.32311,1642106958.32496,231.486803760529,3.76413512229919,235.25487493515,237.355657329559,0.3,246.959240903854,1.50055932998657,248.462510814667,1,left,1.48244190216064,248.459800233841,604.475899686813,607.235899686813,1642107192.56991,1642107192.57168,1642107196.33798,1642107196.34527,1642107198.43876,1642107208.04235,1642107208.04544,1642107209.54562,1642107209.54291,1642107565.559,1
89,4,2,4,14,1,4,c4_HowHand,1,lifting?,50,H_443.jpg,1642106958.32311,1642106958.32496,248.54316400528,4.5827329158783,253.144879808426,255.228990545273,2.08411073684692,255.395720472336,1.16710162162781,256.579242935181,1,left,1.16039514541626,256.562822093964,604.475899686813,607.235899686813,1642107209.62627,1642107209.6288,1642107214.22798,1642107214.23027,1642107216.3121,1642107216.47883,1642107216.48037,1642107217.66235,1642107217.64593,1642107565.559,1
89,4,2,4,14,2,4,c4_HowHand,2,lifting?,51,H_038.jpg,1642106958.32311,1642106958.32496,248.54316400528,4.5827329158783,253.144879808426,255.228990545273,0.3,256.879606237412,0.950355052947998,257.845641841888,3,right,0.942744016647339,257.82996129036,604.475899686813,607.235899686813,1642107209.62627,1642107209.6288,1642107214.22798,1642107214.23027,1642107216.3121,1642107217.96271,1642107217.9645,1642107218.92875,1642107218.91307,1642107565.559,0
89,4,2,4,14,3,4,c4_HowHand,1,lifting?,56,H_136.jpg,1642106958.32311,1642106958.32496,248.54316400528,4.5827329158783,253.144879808426,255.228990545273,0.3,258.146745672226,1.16710209846497,259.315446844101,3,right,1.15719079971313,259.313847770691,604.475899686813,607.235899686813,1642107209.62627,1642107209.6288,1642107214.22798,1642107214.23027,1642107216.3121,1642107219.22985,1642107219.23128,1642107220.39855,1642107220.39695,1642107565.559,0
89,4,2,4,14,4,4,c4_HowHand,2,lifting?,55,H_012.jpg,1642106958.32311,1642106958.32496,248.54316400528,4.5827329158783,253.144879808426,255.228990545273,0.3,259.63063167572,1.71730756759644,261.399429788589,3,right,1.74851698875427,261.347939243317,604.475899686813,607.235899686813,1642107209.62627,1642107209.6288,1642107214.22798,1642107214.23027,1642107216.3121,1642107220.71374,1642107220.71534,1642107222.48253,1642107222.43104,1642107565.559,0
89,4,2,4,14,5,4,c4_HowHand,1,lifting?,49,H_362.jpg,1642106958.32311,1642106958.32496,248.54316400528,4.5827329158783,253.144879808426,255.228990545273,0.3,261.664723625183,0.750279903411865,262.429123868942,1,left,0.742753028869629,262.415003528595,604.475899686813,607.235899686813,1642107209.62627,1642107209.6288,1642107214.22798,1642107214.23027,1642107216.3121,1642107222.74783,1642107222.74972,1642107223.51223,1642107223.49811,1642107565.559,1
89,4,2,4,14,6,4,c4_HowHand,1,lifting?,52,H_189.jpg,1642106958.32311,1642106958.32496,248.54316400528,4.5827329158783,253.144879808426,255.228990545273,0.3,262.731788864136,0.883662700653076,263.616882791519,1,left,0.869750022888184,263.615451564789,604.475899686813,607.235899686813,1642107209.62627,1642107209.6288,1642107214.22798,1642107214.23027,1642107216.3121,1642107223.81489,1642107223.81616,1642107224.69999,1642107224.69856,1642107565.559,1
89,4,2,4,14,7,4,c4_HowHand,1,lifting?,54,H_170.jpg,1642106958.32311,1642106958.32496,248.54316400528,4.5827329158783,253.144879808426,255.228990545273,0.3,263.93223690033,0.950354337692261,264.895735969543,1,left,0.938792943954468,264.882591238022,604.475899686813,607.235899686813,1642107209.62627,1642107209.6288,1642107214.22798,1642107214.23027,1642107216.3121,1642107225.01534,1642107225.01688,1642107225.97884,1642107225.9657,1642107565.559,1
89,4,2,4,14,8,4,c4_HowHand,2,lifting?,53,H_077.jpg,1642106958.32311,1642106958.32496,248.54316400528,4.5827329158783,253.144879808426,255.228990545273,0.3,265.199376096725,1.28381180763245,266.484944810867,3,right,1.26667714118958,266.483187904358,604.475899686813,607.235899686813,1642107209.62627,1642107209.6288,1642107214.22798,1642107214.23027,1642107216.3121,1642107226.28248,1642107226.28389,1642107227.56805,1642107227.56629,1642107565.559,0
89,4,2,4,15,1,3,c3_HowFace,1,looking to side?,67,F_716.jpg,1642106958.32311,1642106958.32496,266.566551914215,4.43436598777771,271.018211593628,273.118996133804,2.10078454017639,273.269051542282,0.766953468322754,274.037783851624,3,right,0.749755859375,274.036005010605,604.475899686813,607.235899686813,1642107227.64966,1642107227.65123,1642107232.10132,1642107232.1027,1642107234.2021,1642107234.35216,1642107234.35395,1642107235.12089,1642107235.11911,1642107565.559,0
89,4,2,4,15,2,3,c3_HowFace,2,looking to side?,65,F_798.jpg,1642106958.32311,1642106958.32496,266.566551914215,4.43436598777771,271.018211593628,273.118996133804,0.3,274.352790107727,1.20044589042664,275.561755886078,3,right,1.18975210189819,275.553235998154,604.475899686813,607.235899686813,1642107227.64966,1642107227.65123,1642107232.10132,1642107232.1027,1642107234.2021,1642107235.4359,1642107235.43767,1642107236.64486,1642107236.63634,1642107565.559,0
89,4,2,4,15,3,3,c3_HowFace,1,looking to side?,68,F_760.jpg,1642106958.32311,1642106958.32496,266.566551914215,4.43436598777771,271.018211593628,273.118996133804,0.3,275.870022287369,0.766953229904175,276.645852794647,1,left,0.752468109130859,276.636975517273,604.475899686813,607.235899686813,1642107227.64966,1642107227.65123,1642107232.10132,1642107232.1027,1642107234.2021,1642107236.95313,1642107236.95492,1642107237.72896,1642107237.72008,1642107565.559,1
89,4,2,4,15,4,3,c3_HowFace,1,looking to side?,69,F_110.jpg,1642106958.32311,1642106958.32496,266.566551914215,4.43436598777771,271.018211593628,273.118996133804,0.3,276.953758945465,0.866989612579346,277.829087963104,1,left,0.853065013885498,277.820748558044,604.475899686813,607.235899686813,1642107227.64966,1642107227.65123,1642107232.10132,1642107232.1027,1642107234.2021,1642107238.03686,1642107238.04036,1642107238.91219,1642107238.90385,1642107565.559,1
89,4,2,4,15,5,3,c3_HowFace,2,looking to side?,70,F_779.jpg,1642106958.32311,1642106958.32496,266.566551914215,4.43436598777771,271.018211593628,273.118996133804,0.3,278.137533893585,0.900336027145386,279.045108785629,1,left,0.887109994888306,279.037869920731,604.475899686813,607.235899686813,1642107227.64966,1642107227.65123,1642107232.10132,1642107232.1027,1642107234.2021,1642107239.22064,1642107239.22222,1642107240.12821,1642107240.12098,1642107565.559,0
89,4,2,4,15,6,3,c3_HowFace,1,looking to side?,72,F_590.jpg,1642106958.32311,1642106958.32496,266.566551914215,4.43436598777771,271.018211593628,273.118996133804,0.3,279.35465549469,1.1504282951355,280.512424936295,1,left,1.13612985610962,280.505083789825,604.475899686813,607.235899686813,1642107227.64966,1642107227.65123,1642107232.10132,1642107232.1027,1642107234.2021,1642107240.43776,1642107240.43934,1642107241.59553,1642107241.58819,1642107565.559,1
89,4,2,4,15,7,3,c3_HowFace,2,looking to side?,66,F_111.jpg,1642106958.32311,1642106958.32496,266.566551914215,4.43436598777771,271.018211593628,273.118996133804,0.3,280.821868648529,1.01704621315002,281.84516500473,3,right,1.0068690776825,281.838914861679,604.475899686813,607.235899686813,1642107227.64966,1642107227.65123,1642107232.10132,1642107232.1027,1642107234.2021,1642107241.90497,1642107241.90666,1642107242.92827,1642107242.92202,1642107565.559,0
89,4,2,4,15,8,3,c3_HowFace,1,looking to side?,71,F_433.jpg,1642106958.32311,1642106958.32496,266.566551914215,4.43436598777771,271.018211593628,273.118996133804,0.3,282.155699005127,1.08373761177063,283.245654811859,1,left,1.07177710533142,283.239436616898,604.475899686813,607.235899686813,1642107227.64966,1642107227.65123,1642107232.10132,1642107232.1027,1642107234.2021,1642107243.2388,1642107243.24064,1642107244.32876,1642107244.32254,1642107565.559,1
89,4,2,4,16,1,1,c1_WhyFace,1,proud?,101,F_083.jpg,1642106958.32311,1642106958.32496,283.322800626755,5.20813131332397,288.541414012909,290.6421961689,2.1007821559906,290.792253961563,1.01704525947571,291.811812868118,1,left,1.00590801239014,291.809299221039,604.475899686813,607.235899686813,1642107244.40591,1642107244.41296,1642107249.62452,1642107249.62887,1642107251.7253,1642107251.87536,1642107251.87899,1642107252.89492,1642107252.8924,1642107565.559,1
89,4,2,4,16,2,1,c1_WhyFace,1,proud?,97,F_582.jpg,1642106958.32311,1642106958.32496,283.322800626755,5.20813131332397,288.541414012909,290.6421961689,0.3,292.126084318161,0.917008399963379,293.04589389801,1,left,0.897749900817871,293.043092718124,604.475899686813,607.235899686813,1642107244.40591,1642107244.41296,1642107249.62452,1642107249.62887,1642107251.7253,1642107253.20919,1642107253.21201,1642107254.129,1642107254.1262,1642107565.559,1
89,4,2,4,16,3,1,c1_WhyFace,1,proud?,103,F_618.jpg,1642106958.32311,1642106958.32496,283.322800626755,5.20813131332397,288.541414012909,290.6421961689,0.3,293.359878053665,0.933681011199951,294.295822849274,1,left,0.91878080368042,294.293559064865,604.475899686813,607.235899686813,1642107244.40591,1642107244.41296,1642107249.62452,1642107249.62887,1642107251.7253,1642107254.44298,1642107254.44516,1642107255.37893,1642107255.37666,1642107565.559,1
89,4,2,4,16,4,1,c1_WhyFace,2,proud?,100,F_776.jpg,1642106958.32311,1642106958.32496,283.322800626755,5.20813131332397,288.541414012909,290.6421961689,0.3,294.610343923569,1.7173068523407,NaN,0,NA,0,296.327650775909,604.475899686813,607.235899686813,1642107244.40591,1642107244.41296,1642107249.62452,1642107249.62887,1642107251.7253,1642107255.69345,1642107255.70115,NaN,1642107257.41076,1642107565.559,0
89,4,2,4,16,5,1,c1_WhyFace,1,proud?,104,F_598.jpg,1642106958.32311,1642106958.32496,283.322800626755,5.20813131332397,288.541414012909,290.6421961689,0.3,296.644435634613,1.25046610832214,297.895975818634,1,left,1.23765206336975,297.894901742935,604.475899686813,607.235899686813,1642107244.40591,1642107244.41296,1642107249.62452,1642107249.62887,1642107251.7253,1642107257.72754,1642107257.72919,1642107258.97908,1642107258.97801,1642107565.559,1
89,4,2,4,16,6,1,c1_WhyFace,2,proud?,102,F_760.jpg,1642106958.32311,1642106958.32496,283.322800626755,5.20813131332397,288.541414012909,290.6421961689,0.3,298.211687078476,0.850317239761353,299.063695898056,3,right,0.831708908081055,299.062004318237,604.475899686813,607.235899686813,1642107244.40591,1642107244.41296,1642107249.62452,1642107249.62887,1642107251.7253,1642107259.29479,1642107259.29664,1642107260.1468,1642107260.14511,1642107565.559,0
89,4,2,4,16,7,1,c1_WhyFace,2,proud?,98,F_412.jpg,1642106958.32311,1642106958.32496,283.322800626755,5.20813131332397,288.541414012909,290.6421961689,0.3,299.378788938522,0.750280618667603,300.130456914902,3,right,0.736171007156372,300.12906955719,604.475899686813,607.235899686813,1642107244.40591,1642107244.41296,1642107249.62452,1642107249.62887,1642107251.7253,1642107260.46189,1642107260.46383,1642107261.21356,1642107261.21217,1642107565.559,0
89,4,2,4,16,8,1,c1_WhyFace,1,proud?,99,F_695.jpg,1642106958.32311,1642106958.32496,283.322800626755,5.20813131332397,288.541414012909,290.6421961689,0.3,300.445854177475,0.950353622436523,301.412278881073,1,left,0.94176197052002,301.396207799912,604.475899686813,607.235899686813,1642107244.40591,1642107244.41296,1642107249.62452,1642107249.62887,1642107251.7253,1642107261.52896,1642107261.53064,1642107262.49538,1642107262.47931,1642107565.559,1
89,4,2,4,17,1,3,c3_HowFace,1,smiling?,115,F_695.jpg,1642106958.32311,1642106958.32496,301.496245136261,4.82453370094299,306.331382265091,308.432164897919,2.10078263282776,308.582220783234,0.900336265563965,309.484154930115,1,left,0.88693904876709,309.482557048798,604.475899686813,607.235899686813,1642107262.57935,1642107262.58107,1642107267.41449,1642107267.4159,1642107269.51527,1642107269.66533,1642107269.667,1642107270.56726,1642107270.56566,1642107565.559,1
89,4,2,4,17,2,3,c3_HowFace,2,smiling?,114,F_412.jpg,1642106958.32311,1642106958.32496,301.496245136261,4.82453370094299,306.331382265091,308.432164897919,0.3,309.799341192245,0.716934204101562,310.518183937073,3,right,0.702598094940186,310.516275396347,604.475899686813,607.235899686813,1642107262.57935,1642107262.58107,1642107267.41449,1642107267.4159,1642107269.51527,1642107270.88245,1642107270.88438,1642107271.60129,1642107271.59938,1642107565.559,0
89,4,2,4,17,3,3,c3_HowFace,1,smiling?,117,F_593.jpg,1642106958.32311,1642106958.32496,301.496245136261,4.82453370094299,306.331382265091,308.432164897919,0.3,310.833059539795,0.566878795623779,311.412748804092,1,left,0.55693507194519,311.399938335419,604.475899686813,607.235899686813,1642107262.57935,1642107262.58107,1642107267.41449,1642107267.4159,1642107269.51527,1642107271.91616,1642107271.91776,1642107272.49585,1642107272.48304,1642107565.559,1
89,4,2,4,17,4,3,c3_HowFace,1,smiling?,119,F_139.jpg,1642106958.32311,1642106958.32496,301.496245136261,4.82453370094299,306.331382265091,308.432164897919,0.3,311.716722955704,0.683588981628418,312.401489963532,1,left,0.66140604019165,312.400311937332,604.475899686813,607.235899686813,1642107262.57935,1642107262.58107,1642107267.41449,1642107267.4159,1642107269.51527,1642107272.79983,1642107272.80149,1642107273.4846,1642107273.48342,1642107565.559,1
89,4,2,4,17,5,3,c3_HowFace,2,smiling?,113,F_712.jpg,1642106958.32311,1642106958.32496,301.496245136261,4.82453370094299,306.331382265091,308.432164897919,0.3,312.71709608078,0.917008399963379,313.635170927048,3,right,0.900063037872314,313.634104480743,604.475899686813,607.235899686813,1642107262.57935,1642107262.58107,1642107267.41449,1642107267.4159,1642107269.51527,1642107273.8002,1642107273.80162,1642107274.71828,1642107274.71721,1642107565.559,0
89,4,2,4,17,6,3,c3_HowFace,1,smiling?,118,F_759.jpg,1642106958.32311,1642106958.32496,301.496245136261,4.82453370094299,306.331382265091,308.432164897919,0.3,313.950890293121,1.28381156921387,315.235738983154,1,left,1.26709198951721,315.234701862335,604.475899686813,607.235899686813,1642107262.57935,1642107262.58107,1642107267.41449,1642107267.4159,1642107269.51527,1642107275.034,1642107275.03564,1642107276.31884,1642107276.31781,1642107565.559,1
89,4,2,4,17,7,3,c3_HowFace,2,smiling?,120,F_758.jpg,1642106958.32311,1642106958.32496,301.496245136261,4.82453370094299,306.331382265091,308.432164897919,0.3,315.551487197876,0.950353145599365,316.512449016571,3,right,0.936382055282593,316.501840343475,604.475899686813,607.235899686813,1642107262.57935,1642107262.58107,1642107267.41449,1642107267.4159,1642107269.51527,1642107276.63459,1642107276.63649,1642107277.59555,1642107277.58495,1642107565.559,0
89,4,2,4,17,8,3,c3_HowFace,1,smiling?,116,F_083.jpg,1642106958.32311,1642106958.32496,301.496245136261,4.82453370094299,306.331382265091,308.432164897919,0.3,316.818625917435,0.633569002151489,317.453893890381,1,left,0.611956119537354,317.452194919586,604.475899686813,607.235899686813,1642107262.57935,1642107262.58107,1642107267.41449,1642107267.4159,1642107269.51527,1642107277.90173,1642107277.90333,1642107278.537,1642107278.5353,1642107565.559,1
89,4,2,4,18,1,1,c1_WhyFace,1,admiring?,4,F_779.jpg,1642106958.32311,1642106958.32496,317.535560359955,7.83934545516968,325.388488044739,327.489271631241,2.10078358650208,327.639327516556,0.833644390106201,328.474740018845,1,left,0.812055110931396,328.472971906662,604.475899686813,607.235899686813,1642107278.61867,1642107278.62046,1642107286.47159,1642107286.4789,1642107288.57238,1642107288.72243,1642107288.72468,1642107289.55785,1642107289.55608,1642107565.559,1
89,4,2,4,18,2,1,c1_WhyFace,2,admiring?,3,F_110.jpg,1642106958.32311,1642106958.32496,317.535560359955,7.83934545516968,325.388488044739,327.489271631241,0.3,328.789757242203,0.733605623245239,329.528447856903,3,right,0.716214895248413,329.523362865448,604.475899686813,607.235899686813,1642107278.61867,1642107278.62046,1642107286.47159,1642107286.4789,1642107288.57238,1642107289.87286,1642107289.87428,1642107290.61155,1642107290.60647,1642107565.559,0
89,4,2,4,18,3,1,c1_WhyFace,1,admiring?,8,F_590.jpg,1642106958.32311,1642106958.32496,317.535560359955,7.83934545516968,325.388488044739,327.489271631241,0.3,329.840148916245,0.75027871131897,330.595593919754,1,left,0.742074966430664,330.590427627563,604.475899686813,607.235899686813,1642107278.61867,1642107278.62046,1642107286.47159,1642107286.4789,1642107288.57238,1642107290.92325,1642107290.92498,1642107291.6787,1642107291.67353,1642107565.559,1
89,4,2,4,18,4,1,c1_WhyFace,1,admiring?,7,F_648.jpg,1642106958.32311,1642106958.32496,317.535560359955,7.83934545516968,325.388488044739,327.489271631241,0.3,330.907212963104,0.950354814529419,331.859377851486,1,left,0.92817211151123,331.857567777634,604.475899686813,607.235899686813,1642107278.61867,1642107278.62046,1642107286.47159,1642107286.4789,1642107288.57238,1642107291.99032,1642107291.99228,1642107292.94248,1642107292.94067,1642107565.559,1
89,4,2,4,18,5,1,c1_WhyFace,1,admiring?,5,F_759.jpg,1642106958.32311,1642106958.32496,317.535560359955,7.83934545516968,325.388488044739,327.489271631241,0.3,332.1743521595,0.766953229904175,332.94579791069,1,left,0.753173828125,332.941305389404,604.475899686813,607.235899686813,1642107278.61867,1642107278.62046,1642107286.47159,1642107286.4789,1642107288.57238,1642107293.25746,1642107293.26217,1642107294.0289,1642107294.02441,1642107565.559,1
89,4,2,4,18,6,1,c1_WhyFace,2,admiring?,2,F_129.jpg,1642106958.32311,1642106958.32496,317.535560359955,7.83934545516968,325.388488044739,327.489271631241,0.3,333.258090486526,0.733606100082397,333.9952318573,3,right,0.712438821792603,333.991696586609,604.475899686813,607.235899686813,1642107278.61867,1642107278.62046,1642107286.47159,1642107286.4789,1642107288.57238,1642107294.3412,1642107294.3509,1642107295.07834,1642107295.0748,1642107565.559,0
89,4,2,4,18,7,1,c1_WhyFace,1,admiring?,1,F_593.jpg,1642106958.32311,1642106958.32496,317.535560359955,7.83934545516968,325.388488044739,327.489271631241,0.3,334.308482160568,0.816970825195312,335.128490915298,1,left,0.796075820922852,335.125452985764,604.475899686813,607.235899686813,1642107278.61867,1642107278.62046,1642107286.47159,1642107286.4789,1642107288.57238,1642107295.39159,1642107295.39542,1642107296.2116,1642107296.20856,1642107565.559,1
89,4,2,4,18,8,1,c1_WhyFace,2,admiring?,6,F_692.jpg,1642106958.32311,1642106958.32496,317.535560359955,7.83934545516968,325.388488044739,327.489271631241,0.3,335.442237129211,0.933681726455688,336.379189958572,3,right,0.913472175598145,336.375918855667,604.475899686813,607.235899686813,1642107278.61867,1642107278.62046,1642107286.47159,1642107286.4789,1642107288.57238,1642107296.52534,1642107296.52875,1642107297.4623,1642107297.45902,1642107565.559,0
89,4,2,4,19,1,2,c2_WhyHand,1,healthy?,23,H_364.jpg,1642106958.32311,1642106958.32496,336.459283103943,6.98566675186157,343.461895217896,345.562678089142,2.10078287124634,345.71273349762,0.950355529785156,346.664389839172,1,left,0.940627098083496,346.663089027405,604.475899686813,607.235899686813,1642107297.54239,1642107297.54494,1642107304.545,1642107304.54646,1642107306.64578,1642107306.79584,1642107306.79766,1642107307.74749,1642107307.74619,1642107565.559,1
89,4,2,4,19,2,2,c2_WhyHand,2,healthy?,20,H_007.jpg,1642106958.32311,1642106958.32496,336.459283103943,6.98566675186157,343.461895217896,345.562678089142,0.3,346.979872932434,0.883663892745972,347.864627828598,3,right,0.864210844039917,347.86353682518,604.475899686813,607.235899686813,1642107297.54239,1642107297.54494,1642107304.545,1642107304.54646,1642107306.64578,1642107308.06298,1642107308.06436,1642107308.94773,1642107308.94664,1642107565.559,0
89,4,2,4,19,3,2,c2_WhyHand,1,healthy?,19,H_167.jpg,1642106958.32311,1642106958.32496,336.459283103943,6.98566675186157,343.461895217896,345.562678089142,0.3,348.180321445465,0.65024209022522,348.845156898499,1,left,0.642086029052734,348.83056353569,604.475899686813,607.235899686813,1642107297.54239,1642107297.54494,1642107304.545,1642107304.54646,1642107306.64578,1642107309.26343,1642107309.26517,1642107309.92826,1642107309.91367,1642107565.559,1
89,4,2,4,19,4,2,c2_WhyHand,2,healthy?,22,H_130.jpg,1642106958.32311,1642106958.32496,336.459283103943,6.98566675186157,343.461895217896,345.562678089142,0.3,349.14734910965,0.783624887466431,349.932398786545,3,right,0.77093505859375,349.930973997116,604.475899686813,607.235899686813,1642107297.54239,1642107297.54494,1642107304.545,1642107304.54646,1642107306.64578,1642107310.23045,1642107310.23185,1642107311.0155,1642107311.01408,1642107565.559,0
89,4,2,4,19,5,2,c2_WhyHand,1,healthy?,18,H_438.jpg,1642106958.32311,1642106958.32496,336.459283103943,6.98566675186157,343.461895217896,345.562678089142,0.3,350.247758617401,0.800298690795898,351.049914827347,1,left,0.782449960708618,351.048057308197,604.475899686813,607.235899686813,1642107297.54239,1642107297.54494,1642107304.545,1642107304.54646,1642107306.64578,1642107311.33086,1642107311.33248,1642107312.13302,1642107312.13116,1642107565.559,1
89,4,2,4,19,6,2,c2_WhyHand,2,healthy?,24,H_019.jpg,1642106958.32311,1642106958.32496,336.459283103943,6.98566675186157,343.461895217896,345.562678089142,0.3,351.364842166901,1.217120885849,352.583082904816,3,right,1.19544410705566,352.58196305275,604.475899686813,607.235899686813,1642107297.54239,1642107297.54494,1642107304.545,1642107304.54646,1642107306.64578,1642107312.44795,1642107312.44952,1642107313.66619,1642107313.66507,1642107565.559,0
89,4,2,4,19,7,2,c2_WhyHand,1,healthy?,17,H_362.jpg,1642106958.32311,1642106958.32496,336.459283103943,6.98566675186157,343.461895217896,345.562678089142,0.3,352.898747911453,0.733606100082397,353.633953800201,1,left,0.712768077850342,353.632354011536,604.475899686813,607.235899686813,1642107297.54239,1642107297.54494,1642107304.545,1642107304.54646,1642107306.64578,1642107313.98185,1642107313.98341,1642107314.71706,1642107314.71546,1642107565.559,1
89,4,2,4,19,8,2,c2_WhyHand,1,healthy?,21,H_627.jpg,1642106958.32311,1642106958.32496,336.459283103943,6.98566675186157,343.461895217896,345.562678089142,0.3,353.949138631821,0.750280380249023,354.700891008377,1,left,0.731401920318604,354.69941901207,604.475899686813,607.235899686813,1642107297.54239,1642107297.54494,1642107304.545,1642107304.54646,1642107306.64578,1642107315.03224,1642107315.03384,1642107315.784,1642107315.78252,1642107565.559,1
89,4,2,4,20,1,4,c4_HowHand,1,pressing button?,82,H_126.jpg,1642106958.32311,1642106958.32496,354.782783975601,6.17928385734558,360.968424072266,363.069206466675,2.10078239440918,363.219263067245,0.600223541259766,363.82930683136,1,left,0.582596063613892,363.819486608505,604.475899686813,607.235899686813,1642107315.86589,1642107315.86734,1642107322.05153,1642107322.06267,1642107324.15231,1642107324.30237,1642107324.31197,1642107324.91241,1642107324.90259,1642107565.559,1
89,4,2,4,20,2,4,c4_HowHand,1,pressing button?,86,H_332.jpg,1642106958.32311,1642106958.32496,354.782783975601,6.17928385734558,360.968424072266,363.069206466675,0.3,364.136271705627,1.26713919639587,365.412442913055,1,left,1.25869703292847,365.403410902023,604.475899686813,607.235899686813,1642107315.86589,1642107315.86734,1642107322.05153,1642107322.06267,1642107324.15231,1642107325.21938,1642107325.22107,1642107326.49555,1642107326.48652,1642107565.559,1
89,4,2,4,20,3,4,c4_HowHand,2,pressing button?,81,H_261.jpg,1642106958.32311,1642106958.32496,354.782783975601,6.17928385734558,360.968424072266,363.069206466675,0.3,365.720195999146,0.866990089416504,366.595251789093,3,right,0.859989881515503,366.587186088562,604.475899686813,607.235899686813,1642107315.86589,1642107315.86734,1642107322.05153,1642107322.06267,1642107324.15231,1642107326.8033,1642107326.80505,1642107327.67836,1642107327.67029,1642107565.559,0
89,4,2,4,20,4,4,c4_HowHand,2,pressing button?,87,H_024.jpg,1642106958.32311,1642106958.32496,354.782783975601,6.17928385734558,360.968424072266,363.069206466675,0.3,366.90397023201,1.11708331108093,368.029389848709,3,right,1.0960750579834,368.021053543091,604.475899686813,607.235899686813,1642107315.86589,1642107315.86734,1642107322.05153,1642107322.06267,1642107324.15231,1642107327.98708,1642107327.9955,1642107329.11249,1642107329.10416,1642107565.559,0
89,4,2,4,20,5,4,c4_HowHand,1,pressing button?,83,H_502.jpg,1642106958.32311,1642106958.32496,354.782783975601,6.17928385734558,360.968424072266,363.069206466675,0.3,368.33783744812,0.700261354446411,369.045188894272,1,left,0.68871283531189,369.038098802567,604.475899686813,607.235899686813,1642107315.86589,1642107315.86734,1642107322.05153,1642107322.06267,1642107324.15231,1642107329.42094,1642107329.42244,1642107330.12829,1642107330.1212,1642107565.559,1
89,4,2,4,20,6,4,c4_HowHand,2,pressing button?,85,H_130.jpg,1642106958.32311,1642106958.32496,354.782783975601,6.17928385734558,360.968424072266,363.069206466675,0.3,369.35488366127,0.816971063613892,370.178877820969,3,right,0.809104919433594,370.171854724884,604.475899686813,607.235899686813,1642107315.86589,1642107315.86734,1642107322.05153,1642107322.06267,1642107324.15231,1642107330.43799,1642107330.43945,1642107331.26198,1642107331.25496,1642107565.559,0
89,4,2,4,20,7,4,c4_HowHand,1,pressing button?,88,H_019.jpg,1642106958.32311,1642106958.32496,354.782783975601,6.17928385734558,360.968424072266,363.069206466675,0.3,370.488639822006,0.750280141830444,371.245566835403,1,left,0.733382225036621,371.238919963837,604.475899686813,607.235899686813,1642107315.86589,1642107315.86734,1642107322.05153,1642107322.06267,1642107324.15231,1642107331.57174,1642107331.57547,1642107332.32867,1642107332.32203,1642107565.559,1
89,4,2,4,20,8,4,c4_HowHand,1,pressing button?,84,H_483.jpg,1642106958.32311,1642106958.32496,354.782783975601,6.17928385734558,360.968424072266,363.069206466675,0.3,371.555705537796,0.866989374160767,372.42906378746,1,left,0.8490309715271,372.422694911957,604.475899686813,607.235899686813,1642107315.86589,1642107315.86734,1642107322.05153,1642107322.06267,1642107324.15231,1642107332.63881,1642107332.6405,1642107333.51217,1642107333.5058,1642107565.559,1
89,4,2,4,21,1,3,c3_HowFace,1,looking to side?,72,F_590.jpg,1642106958.32311,1642106958.32496,372.506060113907,6.34582781791687,378.858427753448,380.959212055206,2.10078430175781,381.109267463684,1.61726951599121,382.728323926926,1,left,1.60983896255493,382.726536979675,604.475899686813,607.235899686813,1642107333.58917,1642107333.59551,1642107339.94153,1642107339.94566,1642107342.04232,1642107342.19237,1642107342.19509,1642107343.81143,1642107343.80964,1642107565.559,1
89,4,2,4,21,2,3,c3_HowFace,1,looking to side?,69,F_110.jpg,1642106958.32311,1642106958.32496,372.506060113907,6.34582781791687,378.858427753448,380.959212055206,0.3,383.043322315216,1.05039119720459,384.095177879334,1,left,1.03781509399414,384.093713512421,604.475899686813,607.235899686813,1642107333.58917,1642107333.59551,1642107339.94153,1642107339.94566,1642107342.04232,1642107344.12643,1642107344.12894,1642107345.17828,1642107345.17682,1642107565.559,1
89,4,2,4,21,3,3,c3_HowFace,1,looking to side?,68,F_760.jpg,1642106958.32311,1642106958.32496,372.506060113907,6.34582781791687,378.858427753448,380.959212055206,0.3,384.410498132706,1.0170464515686,385.428486814499,1,left,1.00944590568542,385.427544584274,604.475899686813,607.235899686813,1642107333.58917,1642107333.59551,1642107339.94153,1642107339.94566,1642107342.04232,1642107345.4936,1642107345.49544,1642107346.51159,1642107346.51065,1642107565.559,1
89,4,2,4,21,4,3,c3_HowFace,2,looking to side?,70,F_779.jpg,1642106958.32311,1642106958.32496,372.506060113907,6.34582781791687,378.858427753448,380.959212055206,0.3,385.744330158234,1.03371858596802,386.779678812027,3,right,1.0119149684906,386.778048744202,604.475899686813,607.235899686813,1642107333.58917,1642107333.59551,1642107339.94153,1642107339.94566,1642107342.04232,1642107346.82744,1642107346.82922,1642107347.86278,1642107347.86115,1642107565.559,0
89,4,2,4,21,5,3,c3_HowFace,1,looking to side?,71,F_433.jpg,1642106958.32311,1642106958.32496,372.506060113907,6.34582781791687,378.858427753448,380.959212055206,0.3,387.09483288765,0.833644390106201,387.929628839493,1,left,0.811468124389648,387.928477277756,604.475899686813,607.235899686813,1642107333.58917,1642107333.59551,1642107339.94153,1642107339.94566,1642107342.04232,1642107348.17794,1642107348.17924,1642107349.01273,1642107349.01158,1642107565.559,1
89,4,2,4,21,6,3,c3_HowFace,2,looking to side?,65,F_798.jpg,1642106958.32311,1642106958.32496,372.506060113907,6.34582781791687,378.858427753448,380.959212055206,0.3,388.245263090134,0.917007684707642,389.164070835114,3,right,0.896627902984619,389.162270774841,604.475899686813,607.235899686813,1642107333.58917,1642107333.59551,1642107339.94153,1642107339.94566,1642107342.04232,1642107349.32837,1642107349.3301,1642107350.24718,1642107350.24538,1642107565.559,0
89,4,2,4,21,7,3,c3_HowFace,1,looking to side?,67,F_716.jpg,1642106958.32311,1642106958.32496,372.506060113907,6.34582781791687,378.858427753448,380.959212055206,0.3,389.479055633545,0.883663177490234,390.363897790909,1,left,0.873225927352905,390.362718811035,604.475899686813,607.235899686813,1642107333.58917,1642107333.59551,1642107339.94153,1642107339.94566,1642107342.04232,1642107350.56216,1642107350.56363,1642107351.447,1642107351.44582,1642107565.559,1
89,4,2,4,21,8,3,c3_HowFace,2,looking to side?,66,F_111.jpg,1642106958.32311,1642106958.32496,372.506060113907,6.34582781791687,378.858427753448,380.959212055206,0.3,390.679502716064,0.833645820617676,391.529180994034,3,right,0.827476978302002,391.513148536682,604.475899686813,607.235899686813,1642107333.58917,1642107333.59551,1642107339.94153,1642107339.94566,1642107342.04232,1642107351.76261,1642107351.76419,1642107352.61229,1642107352.59625,1642107565.559,0
89,4,2,4,22,1,1,c1_WhyFace,1,argument?,42,F_403.jpg,1642106958.32311,1642106958.32496,391.613184680939,5.07864928245544,396.698415031433,398.799197664261,2.10078263282776,398.949253787994,0.866990327835083,399.831984987259,1,left,0.855053901672363,399.816244115829,604.475899686813,607.235899686813,1642107352.69629,1642107352.69777,1642107357.78152,1642107357.79576,1642107359.8823,1642107360.03236,1642107360.03419,1642107360.91509,1642107360.89935,1642107565.559,1
89,4,2,4,22,2,1,c1_WhyFace,2,argument?,44,F_139.jpg,1642106958.32311,1642106958.32496,391.613184680939,5.07864928245544,396.698415031433,398.799197664261,0.3,400.133028974533,0.80029821395874,400.935001840591,3,right,0.780735969543457,400.933327188492,604.475899686813,607.235899686813,1642107352.69629,1642107352.69777,1642107357.78152,1642107357.79576,1642107359.8823,1642107361.21613,1642107361.21762,1642107362.01811,1642107362.01643,1642107565.559,0
89,4,2,4,22,3,1,c1_WhyFace,1,argument?,47,F_743.jpg,1642106958.32311,1642106958.32496,391.613184680939,5.07864928245544,396.698415031433,398.799197664261,0.3,401.250111808777,0.666915893554688,401.931589832306,1,left,0.655791997909546,401.917027702332,604.475899686813,607.235899686813,1642107352.69629,1642107352.69777,1642107357.78152,1642107357.79576,1642107359.8823,1642107362.33322,1642107362.33486,1642107363.01469,1642107363.00013,1642107565.559,1
89,4,2,4,22,4,1,c1_WhyFace,2,argument?,45,F_433.jpg,1642106958.32311,1642106958.32496,391.613184680939,5.07864928245544,396.698415031433,398.799197664261,0.3,402.233813276291,0.967026472091675,403.202699890137,3,right,0.947578907012939,403.200839748383,604.475899686813,607.235899686813,1642107352.69629,1642107352.69777,1642107357.78152,1642107357.79576,1642107359.8823,1642107363.31692,1642107363.31869,1642107364.2858,1642107364.28394,1642107565.559,0
89,4,2,4,22,5,1,c1_WhyFace,1,argument?,43,F_716.jpg,1642106958.32311,1642106958.32496,391.613184680939,5.07864928245544,396.698415031433,398.799197664261,0.3,403.517624368668,0.83364462852478,404.362560977936,1,left,0.823146104812622,404.351268997192,604.475899686813,607.235899686813,1642107352.69629,1642107352.69777,1642107357.78152,1642107357.79576,1642107359.8823,1642107364.60073,1642107364.6024,1642107365.44567,1642107365.43437,1642107565.559,1
89,4,2,4,22,6,1,c1_WhyFace,1,argument?,48,F_758.jpg,1642106958.32311,1642106958.32496,391.613184680939,5.07864928245544,396.698415031433,398.799197664261,0.3,404.668054094315,0.833644151687622,405.502727022171,1,left,0.818452835083008,405.501698246002,604.475899686813,607.235899686813,1642107352.69629,1642107352.69777,1642107357.78152,1642107357.79576,1642107359.8823,1642107365.75116,1642107365.75293,1642107366.58583,1642107366.5848,1642107565.559,1
89,4,2,4,22,7,1,c1_WhyFace,2,argument?,46,F_844.jpg,1642106958.32311,1642106958.32496,391.613184680939,5.07864928245544,396.698415031433,398.799197664261,0.3,405.818483104706,0.783624887466431,406.60385679245,3,right,0.764301061630249,406.602107992172,604.475899686813,607.235899686813,1642107352.69629,1642107352.69777,1642107357.78152,1642107357.79576,1642107359.8823,1642107366.90159,1642107366.90321,1642107367.68696,1642107367.68521,1642107565.559,0
89,4,2,4,22,8,1,c1_WhyFace,1,argument?,41,F_712.jpg,1642106958.32311,1642106958.32496,391.613184680939,5.07864928245544,396.698415031433,398.799197664261,0.3,406.918892850876,0.750277996063232,407.678556909561,1,left,0.740584135055542,407.669170846939,604.475899686813,607.235899686813,1642107352.69629,1642107352.69777,1642107357.78152,1642107357.79576,1642107359.8823,1642107368.002,1642107368.00368,1642107368.76166,1642107368.75228,1642107565.559,1
89,4,2,4,23,1,2,c2_WhyHand,1,self-protection?,94,H_189.jpg,1642106958.32311,1642106958.32496,407.752537479401,6.77922344207764,414.538401117325,416.639184703827,2.10078358650208,416.789239635468,1.03371906280518,417.82468079567,1,left,1.00561189651489,417.822958698273,604.475899686813,607.235899686813,1642107368.83564,1642107368.84496,1642107375.62151,1642107375.62851,1642107377.72229,1642107377.87234,1642107377.87877,1642107378.90779,1642107378.90606,1642107565.559,1
89,4,2,4,23,2,2,c2_WhyHand,1,self-protection?,93,H_038.jpg,1642106958.32311,1642106958.32496,407.752537479401,6.77922344207764,414.538401117325,416.639184703827,0.3,418.139743556976,0.883663415908813,419.028867950439,1,left,0.8728928565979,419.023406972885,604.475899686813,607.235899686813,1642107368.83564,1642107368.84496,1642107375.62151,1642107375.62851,1642107377.72229,1642107379.22285,1642107379.22451,1642107380.11197,1642107380.10651,1642107565.559,1
89,4,2,4,23,3,2,c2_WhyHand,1,self-protection?,91,H_581.jpg,1642106958.32311,1642106958.32496,407.752537479401,6.77922344207764,414.538401117325,416.639184703827,0.3,419.340192308426,1.71730756759644,NaN,0,NA,0,421.057499876022,604.475899686813,607.235899686813,1642107368.83564,1642107368.84496,1642107375.62151,1642107375.62851,1642107377.72229,1642107380.4233,1642107380.42475,NaN,1642107382.1406,1642107565.559,0
89,4,2,4,23,4,2,c2_WhyHand,2,self-protection?,90,H_006.jpg,1642106958.32311,1642106958.32496,407.752537479401,6.77922344207764,414.538401117325,416.639184703827,0.3,421.37428401947,1.16709971427917,422.543205966949,3,right,1.14451909065247,422.541383733749,604.475899686813,607.235899686813,1642107368.83564,1642107368.84496,1642107375.62151,1642107375.62851,1642107377.72229,1642107382.45739,1642107382.45907,1642107383.62631,1642107383.62449,1642107565.559,0
89,4,2,4,23,5,2,c2_WhyHand,1,self-protection?,96,H_027.jpg,1642106958.32311,1642106958.32496,407.752537479401,6.77922344207764,414.538401117325,416.639184703827,0.3,422.858170976639,0.800297498703003,423.659981002808,1,left,0.778872966766357,423.658468475342,604.475899686813,607.235899686813,1642107368.83564,1642107368.84496,1642107375.62151,1642107375.62851,1642107377.72229,1642107383.94128,1642107383.94276,1642107384.74309,1642107384.74157,1642107565.559,1
89,4,2,4,23,6,2,c2_WhyHand,2,self-protection?,95,H_332.jpg,1642106958.32311,1642106958.32496,407.752537479401,6.77922344207764,414.538401117325,416.639184703827,0.3,423.975253810883,1.05039167404175,425.029052009583,3,right,1.03383588790894,425.025645484924,604.475899686813,607.235899686813,1642107368.83564,1642107368.84496,1642107375.62151,1642107375.62851,1642107377.72229,1642107385.05836,1642107385.06217,1642107386.11216,1642107386.10875,1642107565.559,0
89,4,2,4,23,7,2,c2_WhyHand,1,self-protection?,89,H_443.jpg,1642106958.32311,1642106958.32496,407.752537479401,6.77922344207764,414.538401117325,416.639184703827,0.3,425.342430343628,1.41719436645508,426.761717786789,3,right,1.40685200691223,426.759624710083,604.475899686813,607.235899686813,1642107368.83564,1642107368.84496,1642107375.62151,1642107375.62851,1642107377.72229,1642107386.42554,1642107386.42892,1642107387.84482,1642107387.84273,1642107565.559,0
89,4,2,4,23,8,2,c2_WhyHand,2,self-protection?,92,H_532.jpg,1642106958.32311,1642106958.32496,407.752537479401,6.77922344207764,414.538401117325,416.639184703827,0.3,427.076409568787,1.25046634674072,428.32883690834,3,right,1.22785305976868,428.326875915527,604.475899686813,607.235899686813,1642107368.83564,1642107368.84496,1642107375.62151,1642107375.62851,1642107377.72229,1642107388.15951,1642107388.16209,1642107389.41194,1642107389.40998,1642107565.559,0
89,4,2,4,24,1,4,c4_HowHand,1,both hands?,124,H_581.jpg,1642106958.32311,1642106958.32496,428.426913728714,3.62186312675476,432.061603775024,434.162385692596,2.10078191757202,434.312442054749,0.650241613388062,434.964426984787,1,left,0.627834796905518,434.962683668137,604.475899686813,607.235899686813,1642107389.51002,1642107389.51251,1642107393.14471,1642107393.14635,1642107395.24549,1642107395.39555,1642107395.39728,1642107396.04753,1642107396.04579,1642107565.559,1
89,4,2,4,24,2,4,c4_HowHand,1,both hands?,127,H_349.jpg,1642106958.32311,1642106958.32496,428.426913728714,3.62186312675476,432.061603775024,434.162385692596,0.3,435.279469003677,0.650242805480957,435.931343784332,1,left,0.633100032806396,435.929711809158,604.475899686813,607.235899686813,1642107389.51002,1642107389.51251,1642107393.14471,1642107393.14635,1642107395.24549,1642107396.36257,1642107396.36394,1642107397.01445,1642107397.01282,1642107565.559,1
89,4,2,4,24,3,4,c4_HowHand,2,both hands?,126,H_159.jpg,1642106958.32311,1642106958.32496,428.426913728714,3.62186312675476,432.061603775024,434.162385692596,0.3,436.246495952606,0.70026159286499,436.947811832428,3,right,0.678918838500977,436.946757545471,604.475899686813,607.235899686813,1642107389.51002,1642107389.51251,1642107393.14471,1642107393.14635,1642107395.24549,1642107397.3296,1642107397.33114,1642107398.03092,1642107398.02986,1642107565.559,0
89,4,2,4,24,4,4,c4_HowHand,1,both hands?,122,H_111.jpg,1642106958.32311,1642106958.32496,428.426913728714,3.62186312675476,432.061603775024,434.162385692596,0.3,437.263541688919,0.666916370391846,437.932040920258,1,left,0.656963109970093,437.930458059311,604.475899686813,607.235899686813,1642107389.51002,1642107389.51251,1642107393.14471,1642107393.14635,1642107395.24549,1642107398.34665,1642107398.34818,1642107399.01515,1642107399.01356,1642107565.559,1
89,4,2,4,24,5,4,c4_HowHand,2,both hands?,125,H_627.jpg,1642106958.32311,1642106958.32496,428.426913728714,3.62186312675476,432.061603775024,434.162385692596,0.3,438.247241725922,1.06706571578979,439.315284957886,3,right,1.05268216133118,439.314307441711,604.475899686813,607.235899686813,1642107389.51002,1642107389.51251,1642107393.14471,1642107393.14635,1642107395.24549,1642107399.33035,1642107399.33195,1642107400.39839,1642107400.39741,1642107565.559,0
89,4,2,4,24,6,4,c4_HowHand,1,both hands?,123,H_167.jpg,1642106958.32311,1642106958.32496,428.426913728714,3.62186312675476,432.061603775024,434.162385692596,0.3,439.631092061996,0.733607053756714,440.379342784882,1,left,0.724729061126709,440.364699115753,604.475899686813,607.235899686813,1642107389.51002,1642107389.51251,1642107393.14471,1642107393.14635,1642107395.24549,1642107400.7142,1642107400.71592,1642107401.46245,1642107401.4478,1642107565.559,1
89,4,2,4,24,7,4,c4_HowHand,1,both hands?,128,H_027.jpg,1642106958.32311,1642106958.32496,428.426913728714,3.62186312675476,432.061603775024,434.162385692596,0.3,440.681484212875,1.06706357002258,441.762468805313,1,left,1.05698394775391,441.748547782898,604.475899686813,607.235899686813,1642107389.51002,1642107389.51251,1642107393.14471,1642107393.14635,1642107395.24549,1642107401.76459,1642107401.76628,1642107402.84557,1642107402.83165,1642107565.559,1
89,4,2,4,24,8,4,c4_HowHand,2,both hands?,121,H_091.jpg,1642106958.32311,1642106958.32496,428.426913728714,3.62186312675476,432.061603775024,434.162385692596,0.3,442.06533288002,0.900336265563965,442.967365970612,3,right,0.882048845291138,442.965669145584,604.475899686813,607.235899686813,1642107389.51002,1642107389.51251,1642107393.14471,1642107393.14635,1642107395.24549,1642107403.14844,1642107403.1501,1642107404.05047,1642107404.04877,1642107565.559,0
89,4,2,4,25,1,2,c2_WhyHand,1,competing?,15,H_170.jpg,1642106958.32311,1642106958.32496,443.04903339386,6.78993153572083,449.851569881439,451.952354183197,2.10078430175781,452.102410068512,0.933681011199951,453.037199010849,1,left,0.914767026901245,453.036091079712,604.475899686813,607.235899686813,1642107404.13214,1642107404.14568,1642107410.93467,1642107410.93647,1642107413.03546,1642107413.18552,1642107413.18712,1642107414.1203,1642107414.1192,1642107565.559,1
89,4,2,4,25,2,2,c2_WhyHand,1,competing?,14,H_132.jpg,1642106958.32311,1642106958.32496,443.04903339386,6.78993153572083,449.851569881439,451.952354183197,0.3,453.352875461578,0.566878080368042,453.921440830231,1,left,0.549113035202026,453.919753541946,604.475899686813,607.235899686813,1642107404.13214,1642107404.14568,1642107410.93467,1642107410.93647,1642107413.03546,1642107414.43598,1642107414.43784,1642107415.00455,1642107415.00286,1642107565.559,1
89,4,2,4,25,3,2,c2_WhyHand,2,competing?,10,H_126.jpg,1642106958.32311,1642106958.32496,443.04903339386,6.78993153572083,449.851569881439,451.952354183197,0.3,454.23653840065,0.766952991485596,455.012570848465,3,right,0.752593994140625,455.003491392136,604.475899686813,607.235899686813,1642107404.13214,1642107404.14568,1642107410.93467,1642107410.93647,1642107413.03546,1642107415.31964,1642107415.32125,1642107416.09568,1642107416.0866,1642107565.559,0
89,4,2,4,25,4,2,c2_WhyHand,1,competing?,13,H_003.jpg,1642106958.32311,1642106958.32496,443.04903339386,6.78993153572083,449.851569881439,451.952354183197,0.3,455.320276012421,1.1004114151001,456.421804895401,1,left,1.08163499832153,456.420687427521,604.475899686813,607.235899686813,1642107404.13214,1642107404.14568,1642107410.93467,1642107410.93647,1642107413.03546,1642107416.40338,1642107416.40518,1642107417.50491,1642107417.50379,1642107565.559,1
89,4,2,4,25,5,2,c2_WhyHand,2,competing?,11,H_502.jpg,1642106958.32311,1642106958.32496,443.04903339386,6.78993153572083,449.851569881439,451.952354183197,0.3,456.737471094131,1.00037384033203,457.745175828934,3,right,0.988318920135498,457.737844934464,604.475899686813,607.235899686813,1642107404.13214,1642107404.14568,1642107410.93467,1642107410.93647,1642107413.03546,1642107417.82058,1642107417.82216,1642107418.82828,1642107418.82095,1642107565.559,0
89,4,2,4,25,6,2,c2_WhyHand,1,competing?,16,H_136.jpg,1642106958.32311,1642106958.32496,443.04903339386,6.78993153572083,449.851569881439,451.952354183197,0.3,458.05462931633,0.967027187347412,459.028285017014,1,left,0.944378852844238,459.021656503677,604.475899686813,607.235899686813,1642107404.13214,1642107404.14568,1642107410.93467,1642107410.93647,1642107413.03546,1642107419.13773,1642107419.13936,1642107420.11139,1642107420.10476,1642107565.559,1
89,4,2,4,25,7,2,c2_WhyHand,2,competing?,12,H_483.jpg,1642106958.32311,1642106958.32496,443.04903339386,6.78993153572083,449.851569881439,451.952354183197,0.3,459.338440647125,0.933682441711426,460.273591985703,3,right,0.909458160400391,460.272123088837,604.475899686813,607.235899686813,1642107404.13214,1642107404.14568,1642107410.93467,1642107410.93647,1642107413.03546,1642107420.42155,1642107420.42347,1642107421.3567,1642107421.35523,1642107565.559,0
89,4,2,4,25,8,2,c2_WhyHand,1,competing?,9,H_261.jpg,1642106958.32311,1642106958.32496,443.04903339386,6.78993153572083,449.851569881439,451.952354183197,0.3,460.588908185959,0.850316286087036,461.445160856247,1,left,0.840971946716309,461.439224472046,604.475899686813,607.235899686813,1642107404.13214,1642107404.14568,1642107410.93467,1642107410.93647,1642107413.03546,1642107421.67201,1642107421.67375,1642107422.52827,1642107422.52233,1642107565.559,1
89,4,2,4,26,1,4,c4_HowHand,1,lifting?,49,H_362.jpg,1642106958.32311,1642106958.32496,461.539262046814,6.18960285186768,467.741574993134,469.84235786438,2.10078287124634,469.992413511276,0.650243759155273,470.645741930008,1,left,0.633002996444702,470.642657270432,604.475899686813,607.235899686813,1642107422.62237,1642107422.62865,1642107428.82468,1642107428.82916,1642107430.92546,1642107431.07552,1642107431.07904,1642107431.72885,1642107431.72576,1642107565.559,1
89,4,2,4,26,2,4,c4_HowHand,2,lifting?,55,H_012.jpg,1642106958.32311,1642106958.32496,461.539262046814,6.18960285186768,467.741574993134,469.84235786438,0.3,470.959441890717,0.86698842048645,471.829141845703,3,right,0.852874994277954,471.826430311203,604.475899686813,607.235899686813,1642107422.62237,1642107422.62865,1642107428.82468,1642107428.82916,1642107430.92546,1642107432.04255,1642107432.04569,1642107432.91225,1642107432.90954,1642107565.559,0
89,4,2,4,26,3,4,c4_HowHand,1,lifting?,56,H_136.jpg,1642106958.32311,1642106958.32496,461.539262046814,6.18960285186768,467.741574993134,469.84235786438,0.3,472.143215169907,0.683589696884155,472.829340925217,1,left,0.664418935775757,472.826804866791,604.475899686813,607.235899686813,1642107422.62237,1642107422.62865,1642107428.82468,1642107428.82916,1642107430.92546,1642107433.22632,1642107433.22879,1642107433.91245,1642107433.90991,1642107565.559,1
89,4,2,4,26,4,4,c4_HowHand,1,lifting?,52,H_189.jpg,1642106958.32311,1642106958.32496,461.539262046814,6.18960285186768,467.741574993134,469.84235786438,0.3,473.143589725494,0.716933965682983,473.862432947159,1,left,0.704569101333618,473.860523691177,604.475899686813,607.235899686813,1642107422.62237,1642107422.62865,1642107428.82468,1642107428.82916,1642107430.92546,1642107434.22669,1642107434.22876,1642107434.94554,1642107434.94363,1642107565.559,1
89,4,2,4,26,5,4,c4_HowHand,1,lifting?,54,H_170.jpg,1642106958.32311,1642106958.32496,461.539262046814,6.18960285186768,467.741574993134,469.84235786438,0.3,474.177307834625,0.883663177490234,475.06190990448,1,left,0.871917963027954,475.060971012115,604.475899686813,607.235899686813,1642107422.62237,1642107422.62865,1642107428.82468,1642107428.82916,1642107430.92546,1642107435.26041,1642107435.26222,1642107436.14502,1642107436.14408,1642107565.559,1
89,4,2,4,26,6,4,c4_HowHand,2,lifting?,53,H_077.jpg,1642106958.32311,1642106958.32496,461.539262046814,6.18960285186768,467.741574993134,469.84235786438,0.3,475.377755870819,1.00037264823914,476.379839887619,1,left,0.979321956634521,476.378128519058,604.475899686813,607.235899686813,1642107422.62237,1642107422.62865,1642107428.82468,1642107428.82916,1642107430.92546,1642107436.46086,1642107436.46225,1642107437.46294,1642107437.46123,1642107565.559,0
89,4,2,4,26,7,4,c4_HowHand,1,lifting?,50,H_443.jpg,1642106958.32311,1642106958.32496,461.539262046814,6.18960285186768,467.741574993134,469.84235786438,0.3,476.69491361618,0.783623933792114,477.480225791931,1,left,0.769852876663208,477.478537549973,604.475899686813,607.235899686813,1642107422.62237,1642107422.62865,1642107428.82468,1642107428.82916,1642107430.92546,1642107437.77802,1642107437.77975,1642107438.56333,1642107438.56164,1642107565.559,1
89,4,2,4,26,8,4,c4_HowHand,2,lifting?,51,H_038.jpg,1642106958.32311,1642106958.32496,461.539262046814,6.18960285186768,467.741574993134,469.84235786438,0.3,477.795323600769,1.03371953964233,478.83091091156,3,right,1.01367402076721,478.829043140411,604.475899686813,607.235899686813,1642107422.62237,1642107422.62865,1642107428.82468,1642107428.82916,1642107430.92546,1642107438.87843,1642107438.88008,1642107439.91402,1642107439.91215,1642107565.559,0
89,4,2,4,27,1,3,c3_HowFace,1,open mouth?,73,F_403.jpg,1642106958.32311,1642106958.32496,478.912407388687,6.88645243644714,485.814981451035,487.915765275955,2.10078382492065,488.06582116127,0.716933965682983,488.784508934021,1,left,0.696054935455322,488.782755126953,604.475899686813,607.235899686813,1642107439.99551,1642107439.99666,1642107446.89809,1642107446.89967,1642107448.99887,1642107449.14893,1642107449.15048,1642107449.86761,1642107449.86586,1642107565.559,1
89,4,2,4,27,2,3,c3_HowFace,1,open mouth?,75,F_086.jpg,1642106958.32311,1642106958.32496,478.912407388687,6.88645243644714,485.814981451035,487.915765275955,0.3,489.099539985657,0.583550453186035,489.684233894348,1,left,0.568607807159424,489.683090438843,604.475899686813,607.235899686813,1642107439.99551,1642107439.99666,1642107446.89809,1642107446.89967,1642107448.99887,1642107450.18265,1642107450.18409,1642107450.76734,1642107450.7662,1642107565.559,1
89,4,2,4,27,3,3,c3_HowFace,1,open mouth?,80,F_844.jpg,1642106958.32311,1642106958.32496,478.912407388687,6.88645243644714,485.814981451035,487.915765275955,0.3,489.999875774384,0.700261116027832,490.712487926483,1,left,0.690051794052124,490.700136890411,604.475899686813,607.235899686813,1642107439.99551,1642107439.99666,1642107446.89809,1642107446.89967,1642107448.99887,1642107451.08298,1642107451.08441,1642107451.79559,1642107451.78324,1642107565.559,1
89,4,2,4,27,4,3,c3_HowFace,2,open mouth?,76,F_544.jpg,1642106958.32311,1642106958.32496,478.912407388687,6.88645243644714,485.814981451035,487.915765275955,0.3,491.016921272278,0.816971302032471,491.835649003983,3,right,0.794599056243896,491.83389257431,604.475899686813,607.235899686813,1642107439.99551,1642107439.99666,1642107446.89809,1642107446.89967,1642107448.99887,1642107452.10003,1642107452.10176,1642107452.91875,1642107452.917,1642107565.559,0
89,4,2,4,27,5,3,c3_HowFace,1,open mouth?,74,F_776.jpg,1642106958.32311,1642106958.32496,478.912407388687,6.88645243644714,485.814981451035,487.915765275955,0.3,492.150677433014,0.633569240570068,492.79121088028,1,left,0.616434097290039,492.784246673584,604.475899686813,607.235899686813,1642107439.99551,1642107439.99666,1642107446.89809,1642107446.89967,1642107448.99887,1642107453.23378,1642107453.23528,1642107453.87432,1642107453.86735,1642107565.559,1
89,4,2,4,27,6,3,c3_HowFace,2,open mouth?,79,F_648.jpg,1642106958.32311,1642106958.32496,478.912407388687,6.88645243644714,485.814981451035,487.915765275955,0.3,493.101032009125,0.883662939071655,493.991658916473,3,right,0.866981029510498,493.984694948196,604.475899686813,607.235899686813,1642107439.99551,1642107439.99666,1642107446.89809,1642107446.89967,1642107448.99887,1642107454.18414,1642107454.18578,1642107455.07476,1642107455.0678,1642107565.559,0
89,4,2,4,27,7,3,c3_HowFace,1,open mouth?,78,F_692.jpg,1642106958.32311,1642106958.32496,478.912407388687,6.88645243644714,485.814981451035,487.915765275955,0.3,494.301480283737,0.666913986206055,494.970412006378,1,left,0.652483940124512,494.968394269943,604.475899686813,607.235899686813,1642107439.99551,1642107439.99666,1642107446.89809,1642107446.89967,1642107448.99887,1642107455.38459,1642107455.38612,1642107456.05352,1642107456.0515,1642107565.559,1
89,4,2,4,27,8,3,c3_HowFace,2,open mouth?,77,F_584.jpg,1642106958.32311,1642106958.32496,478.912407388687,6.88645243644714,485.814981451035,487.915765275955,0.3,495.285180082321,1.03371906280518,496.321115961075,3,right,1.00976300239563,496.318899145126,604.475899686813,607.235899686813,1642107439.99551,1642107439.99666,1642107446.89809,1642107446.89967,1642107448.99887,1642107456.36829,1642107456.37276,1642107457.40422,1642107457.402,1642107565.559,0
89,4,2,4,28,1,1,c1_WhyFace,1,proud?,97,F_582.jpg,1642106958.32311,1642106958.32496,496.418935527802,7.59995031356812,504.038444271088,506.122554531097,2.08411026000977,506.289282550812,0.58355188369751,506.879120817184,1,left,0.566910028457642,506.872834434509,604.475899686813,607.235899686813,1642107457.50204,1642107457.50394,1642107465.12155,1642107465.12321,1642107467.20566,1642107467.37239,1642107467.37425,1642107467.96223,1642107467.95594,1642107565.559,1
