src_subject_id,session_id,run_id,param_counterbalance_ver,param_block_num,param_trial_num,param_cond_type_num,param_cond_type_string,param_normative_response,param_ques_type_string,param_image_num,param_image_filename,param_trigger_onset,param_start_biopac,event01_fixation,event01_fixation_dur,event01_blockquestion_onset,event01_block_isi_blacksreen,event01_blockquestion_dur,event02_image_onset,event02_image_dur,event03_response_onset,event03_response_key,event03_response_keyname,event03_RT,event04_shortquestion_onset,param_end_instruct_onset,param_experiment_duration,RAW_e1_fixation,RAW_e1_fixation_biopac,RAW_e1_blockquestion_onset,RAW_e1_blockquestion_onset_biopac,RAW_e1_block_isi_blacksreen,RAW_e2_image_onset,RAW_e2_image_onset_biopac,RAW_e3_response_onset,RAW_e4_shortquestion_onset,RAW_param_end_instruct_onset,accuracy
32,4,2,3,1,1,4,c4_HowHand,1,reaching?,107,H_007.jpg,1627584146.30602,1627584146.30811,0.0224840545654295,0.0353119373321533,0.0725030803680418,2.10659741401672,2.03409433364868,2.25665353775024,1.73398160934448,NaN,0,NA,0,3.99063514709473,604.481969585419,607.241969585419,1627584149.0885,1627584149.09399,1627584149.13852,1627584149.14087,1627584151.17262,1627584151.32267,1627584151.33853,NaN,1627584153.05666,1627584753.54799,0
32,4,2,3,1,2,4,c4_HowHand,2,reaching?,108,H_532.jpg,1627584146.30602,1627584146.30811,0.0224840545654295,0.0353119373321533,0.0725030803680418,2.10659741401672,0.3,4.3074204826355,1.71731162071228,NaN,0,NA,0,6.02473210334778,604.481969585419,607.241969585419,1627584149.0885,1627584149.09399,1627584149.13852,1627584149.14087,1627584151.17262,1627584153.37344,1627584153.37525,NaN,1627584155.09075,1627584753.54799,0
32,4,2,3,1,3,4,c4_HowHand,1,reaching?,109,H_474.jpg,1627584146.30602,1627584146.30811,0.0224840545654295,0.0353119373321533,0.0725030803680418,2.10659741401672,0.3,6.34151505470276,1.71730923652649,NaN,0,NA,0,8.05882429122925,604.481969585419,607.241969585419,1627584149.0885,1627584149.09399,1627584149.13852,1627584149.14087,1627584151.17262,1627584155.40754,1627584155.40861,NaN,1627584157.12484,1627584753.54799,0
32,4,2,3,1,4,4,c4_HowHand,2,reaching?,105,H_438.jpg,1627584146.30602,1627584146.30811,0.0224840545654295,0.0353119373321533,0.0725030803680418,2.10659741401672,0.3,8.3756098651886,1.31715869903564,9.69504188537598,1,left,1.29515910148621,9.69276856422424,604.481969585419,607.241969585419,1627584149.0885,1627584149.09399,1627584149.13852,1627584149.14087,1627584151.17262,1627584157.44163,1627584157.44308,1627584158.76106,1627584158.75879,1627584753.54799,0
32,4,2,3,1,5,4,c4_HowHand,1,reaching?,110,H_364.jpg,1627584146.30602,1627584146.30811,0.0224840545654295,0.0353119373321533,0.0725030803680418,2.10659741401672,0.3,10.009553899765,0.766952753067017,10.788810005188,1,left,0.755977153778076,10.776506652832,604.481969585419,607.241969585419,1627584149.0885,1627584149.09399,1627584149.13852,1627584149.14087,1627584151.17262,1627584159.07557,1627584159.0784,1627584159.85483,1627584159.84253,1627584753.54799,1
32,4,2,3,1,6,4,c4_HowHand,1,reaching?,106,H_006.jpg,1627584146.30602,1627584146.30811,0.0224840545654295,0.0353119373321533,0.0725030803680418,2.10659741401672,0.3,11.0932929420471,1.13375735282898,12.2378609085083,1,left,1.12095189094543,12.2270502948761,604.481969585419,607.241969585419,1627584149.0885,1627584149.09399,1627584149.13852,1627584149.14087,1627584151.17262,1627584160.15931,1627584160.16096,1627584161.30388,1627584161.29307,1627584753.54799,1
32,4,2,3,1,7,4,c4_HowHand,1,reaching?,111,H_003.jpg,1627584146.30602,1627584146.30811,0.0224840545654295,0.0353119373321533,0.0725030803680418,2.10659741401672,0.3,12.5438353919983,0.950355291366577,13.5041429901123,1,left,0.940241098403931,13.4941906833649,604.481969585419,607.241969585419,1627584149.0885,1627584149.09399,1627584149.13852,1627584149.14087,1627584151.17262,1627584161.60986,1627584161.61165,1627584162.57016,1627584162.56021,1627584753.54799,1
32,4,2,3,1,8,4,c4_HowHand,2,reaching?,112,H_132.jpg,1627584146.30602,1627584146.30811,0.0224840545654295,0.0353119373321533,0.0725030803680418,2.10659741401672,0.3,13.8109764957428,1.08373856544495,14.8966250324249,1,left,1.06300115585327,14.8947150611877,604.481969585419,607.241969585419,1627584149.0885,1627584149.09399,1627584149.13852,1627584149.14087,1627584151.17262,1627584162.877,1627584162.87882,1627584163.96265,1627584163.96074,1627584753.54799,0
32,4,2,3,2,1,2,c2_WhyHand,1,healthy?,21,H_627.jpg,1627584146.30602,1627584146.30811,15.0280980968475,2.50296878814697,17.5457067394257,19.6464934253693,2.1007866859436,19.7965490722656,0.950356006622314,20.7541549110413,1,left,0.939287900924683,20.7469050788879,604.481969585419,607.241969585419,1627584164.09412,1627584164.09591,1627584166.61173,1627584166.61398,1627584168.71251,1627584168.86257,1627584168.86448,1627584169.82017,1627584169.81293,1627584753.54799,1
32,4,2,3,2,2,2,c2_WhyHand,1,healthy?,18,H_438.jpg,1627584146.30602,1627584146.30811,15.0280980968475,2.50296878814697,17.5457067394257,19.6464934253693,0.3,21.0636894607544,0.800299406051636,21.8715898895264,1,left,0.783113956451416,21.863988866806,604.481969585419,607.241969585419,1627584164.09412,1627584164.09591,1627584166.61173,1627584166.61398,1627584168.71251,1627584170.12971,1627584170.13151,1627584170.93761,1627584170.93001,1627584753.54799,1
32,4,2,3,2,3,2,c2_WhyHand,1,healthy?,23,H_364.jpg,1627584146.30602,1627584146.30811,15.0280980968475,2.50296878814697,17.5457067394257,19.6464934253693,0.3,22.1807734870911,0.850319862365723,23.037327041626,1,left,0.833657026290894,23.0310933494568,604.481969585419,607.241969585419,1627584164.09412,1627584164.09591,1627584166.61173,1627584166.61398,1627584168.71251,1627584171.24679,1627584171.24853,1627584172.10335,1627584172.09711,1627584753.54799,1
32,4,2,3,2,4,2,c2_WhyHand,2,healthy?,22,H_130.jpg,1627584146.30602,1627584146.30811,15.0280980968475,2.50296878814697,17.5457067394257,19.6464934253693,0.3,23.3478777313232,0.98370099067688,24.3333330059051,3,right,0.962085008621216,24.3315787220001,604.481969585419,607.241969585419,1627584164.09412,1627584164.09591,1627584166.61173,1627584166.61398,1627584168.71251,1627584172.4139,1627584172.41546,1627584173.39935,1627584173.3976,1627584753.54799,0
32,4,2,3,2,5,2,c2_WhyHand,1,healthy?,17,H_362.jpg,1627584146.30602,1627584146.30811,15.0280980968475,2.50296878814697,17.5457067394257,19.6464934253693,0.3,24.6483642959595,0.833645582199097,25.4837260150909,1,left,0.813522100448608,25.4820098781586,604.481969585419,607.241969585419,1627584164.09412,1627584164.09591,1627584166.61173,1627584166.61398,1627584168.71251,1627584173.71438,1627584173.71628,1627584174.54975,1627584174.54803,1627584753.54799,1
32,4,2,3,2,6,2,c2_WhyHand,2,healthy?,20,H_007.jpg,1627584146.30602,1627584146.30811,15.0280980968475,2.50296878814697,17.5457067394257,19.6464934253693,0.3,25.7987947368622,0.850317716598511,26.6504909896851,3,right,0.830250978469849,26.6491124534607,604.481969585419,607.241969585419,1627584164.09412,1627584164.09591,1627584166.61173,1627584166.61398,1627584168.71251,1627584174.86481,1627584174.86654,1627584175.71651,1627584175.71513,1627584753.54799,0
32,4,2,3,2,7,2,c2_WhyHand,1,healthy?,19,H_167.jpg,1627584146.30602,1627584146.30811,15.0280980968475,2.50296878814697,17.5457067394257,19.6464934253693,0.3,26.9658985042572,0.683588266372681,27.6505000495911,1,left,0.661565065383911,27.6494867706299,604.481969585419,607.241969585419,1627584164.09412,1627584164.09591,1627584166.61173,1627584166.61398,1627584168.71251,1627584176.03192,1627584176.03333,1627584176.71652,1627584176.71551,1627584753.54799,1
32,4,2,3,2,8,2,c2_WhyHand,2,healthy?,24,H_019.jpg,1627584146.30602,1627584146.30811,15.0280980968475,2.50296878814697,17.5457067394257,19.6464934253693,0.3,27.9662728214264,1.71730947494507,29.960134973526,3,right,1.97007794380188,29.6835822963715,604.481969585419,607.241969585419,1627584164.09412,1627584164.09591,1627584166.61173,1627584166.61398,1627584168.71251,1627584177.03229,1627584177.03735,1627584179.02615,1627584178.7496,1627584753.54799,0
32,4,2,3,3,1,1,c1_WhyFace,1,admiring?,4,F_779.jpg,1627584146.30602,1627584146.30811,30.0337128543854,6.60542511940002,36.6528558635712,38.7536420726776,2.10078620910645,38.9036974811554,0.766954898834229,39.6717960739136,1,left,0.749681949615479,39.6706523799896,604.481969585419,607.241969585419,1627584179.09973,1627584179.10404,1627584185.71888,1627584185.72096,1627584187.81966,1627584187.96972,1627584187.97176,1627584188.73782,1627584188.73667,1627584753.54799,1
32,4,2,3,3,2,1,c1_WhyFace,1,admiring?,1,F_593.jpg,1627584146.30602,1627584146.30811,30.0337128543854,6.60542511940002,36.6528558635712,38.7536420726776,0.3,39.9874362850189,0.650243520736694,40.6387050056458,1,left,0.631052017211914,40.6376798057556,604.481969585419,607.241969585419,1627584179.09973,1627584179.10404,1627584185.71888,1627584185.72096,1627584187.81966,1627584189.05346,1627584189.05516,1627584189.70473,1627584189.7037,1627584753.54799,1
32,4,2,3,3,3,1,c1_WhyFace,2,admiring?,3,F_110.jpg,1627584146.30602,1627584146.30811,30.0337128543854,6.60542511940002,36.6528558635712,38.7536420726776,0.3,40.954465379715,0.666915416717529,41.6373178863525,3,right,0.661549091339111,41.6213807964325,604.481969585419,607.241969585419,1627584179.09973,1627584179.10404,1627584185.71888,1627584185.72096,1627584187.81966,1627584190.02049,1627584190.02158,1627584190.70334,1627584190.6874,1627584753.54799,0
32,4,2,3,3,4,1,c1_WhyFace,1,admiring?,8,F_590.jpg,1627584146.30602,1627584146.30811,30.0337128543854,6.60542511940002,36.6528558635712,38.7536420726776,0.3,41.9381670856476,0.633570194244385,42.573606004715,1,left,0.617868900299072,42.571737279892,604.481969585419,607.241969585419,1627584179.09973,1627584179.10404,1627584185.71888,1627584185.72096,1627584187.81966,1627584191.00419,1627584191.00568,1627584191.63963,1627584191.63776,1627584753.54799,1
32,4,2,3,3,5,1,c1_WhyFace,2,admiring?,6,F_692.jpg,1627584146.30602,1627584146.30811,30.0337128543854,6.60542511940002,36.6528558635712,38.7536420726776,0.3,42.8885211849213,0.766954660415649,43.6572098636627,3,right,0.748640775680542,43.6554758453369,604.481969585419,607.241969585419,1627584179.09973,1627584179.10404,1627584185.71888,1627584185.72096,1627584187.81966,1627584191.95454,1627584191.95583,1627584192.72323,1627584192.7215,1627584753.54799,0
32,4,2,3,3,6,1,c1_WhyFace,1,admiring?,5,F_759.jpg,1627584146.30602,1627584146.30811,30.0337128543854,6.60542511940002,36.6528558635712,38.7536420726776,0.3,43.9722611808777,0.81697154045105,44.7909920120239,1,left,0.799159049987793,44.7892327213287,604.481969585419,607.241969585419,1627584179.09973,1627584179.10404,1627584185.71888,1627584185.72096,1627584187.81966,1627584193.03828,1627584193.03985,1627584193.85701,1627584193.85525,1627584753.54799,1
32,4,2,3,3,7,1,c1_WhyFace,1,admiring?,7,F_648.jpg,1627584146.30602,1627584146.30811,30.0337128543854,6.60542511940002,36.6528558635712,38.7536420726776,0.3,45.1060180568695,0.700262546539307,45.8078000450134,1,left,0.688111066818237,45.8062806034088,604.481969585419,607.241969585419,1627584179.09973,1627584179.10404,1627584185.71888,1627584185.72096,1627584187.81966,1627584194.17204,1627584194.17362,1627584194.87382,1627584194.8723,1627584753.54799,1
32,4,2,3,3,8,1,c1_WhyFace,2,admiring?,2,F_129.jpg,1627584146.30602,1627584146.30811,30.0337128543854,6.60542511940002,36.6528558635712,38.7536420726776,0.3,46.1230652236938,0.900336980819702,47.0251068973541,3,right,0.88153600692749,47.0234022045136,604.481969585419,607.241969585419,1627584179.09973,1627584179.10404,1627584185.71888,1627584185.72096,1627584187.81966,1627584195.18909,1627584195.19093,1627584196.09113,1627584196.08942,1627584753.54799,0
32,4,2,3,4,1,3,c3_HowFace,1,smiling?,119,F_139.jpg,1627584146.30602,1627584146.30811,47.0900928878784,8.51316213607788,55.609948387146,57.7107338809967,2.10078549385071,57.8607909584045,0.733606100082397,58.604266872406,1,left,0.713186025619507,58.5943970584869,604.481969585419,607.241969585419,1627584196.15611,1627584196.17061,1627584204.67597,1627584204.68789,1627584206.77675,1627584206.92681,1627584206.93787,1627584207.67029,1627584207.66042,1627584753.54799,1
32,4,2,3,4,2,3,c3_HowFace,2,smiling?,113,F_712.jpg,1627584146.30602,1627584146.30811,47.0900928878784,8.51316213607788,55.609948387146,57.7107338809967,0.3,58.9111843013763,0.900335788726807,59.8132250213623,3,right,0.881766080856323,59.8115200901032,604.481969585419,607.241969585419,1627584196.15611,1627584196.17061,1627584204.67597,1627584204.68789,1627584206.77675,1627584207.9772,1627584207.97887,1627584208.87925,1627584208.87754,1627584753.54799,0
32,4,2,3,4,3,3,c3_HowFace,1,smiling?,115,F_695.jpg,1627584146.30602,1627584146.30811,47.0900928878784,8.51316213607788,55.609948387146,57.7107338809967,0.3,60.1283047103882,1.01704692840576,61.1541030311584,1,left,1.00940895080566,61.1453516387939,604.481969585419,607.241969585419,1627584196.15611,1627584196.17061,1627584204.67597,1627584204.68789,1627584206.77675,1627584209.19432,1627584209.19567,1627584210.22012,1627584210.21137,1627584753.54799,1
32,4,2,3,4,4,3,c3_HowFace,2,smiling?,120,F_758.jpg,1627584146.30602,1627584146.30811,47.0900928878784,8.51316213607788,55.609948387146,57.7107338809967,0.3,61.4621381664276,0.766952991485596,62.237447013855,3,right,0.759093999862671,62.2290911579132,604.481969585419,607.241969585419,1627584196.15611,1627584196.17061,1627584204.67597,1627584204.68789,1627584206.77675,1627584210.52816,1627584210.52965,1627584211.30347,1627584211.29511,1627584753.54799,0
32,4,2,3,4,5,3,c3_HowFace,1,smiling?,116,F_083.jpg,1627584146.30602,1627584146.30811,47.0900928878784,8.51316213607788,55.609948387146,57.7107338809967,0.3,62.5458772087097,0.533532857894897,63.0806150341034,1,left,0.514025926589966,63.0794100666046,604.481969585419,607.241969585419,1627584196.15611,1627584196.17061,1627584204.67597,1627584204.68789,1627584206.77675,1627584211.6119,1627584211.61358,1627584212.14664,1627584212.14543,1627584753.54799,1
32,4,2,3,4,6,3,c3_HowFace,1,smiling?,118,F_759.jpg,1627584146.30602,1627584146.30811,47.0900928878784,8.51316213607788,55.609948387146,57.7107338809967,0.3,63.3961951637268,0.583551406860352,63.9813029670715,1,left,0.562649011611938,63.9797465705872,604.481969585419,607.241969585419,1627584196.15611,1627584196.17061,1627584204.67597,1627584204.68789,1627584206.77675,1627584212.46222,1627584212.46422,1627584213.04732,1627584213.04577,1627584753.54799,1
32,4,2,3,4,7,3,c3_HowFace,2,smiling?,114,F_412.jpg,1627584146.30602,1627584146.30811,47.0900928878784,8.51316213607788,55.609948387146,57.7107338809967,0.3,64.2965309524536,0.516860723495483,64.8147420787811,3,right,0.499286890029907,64.8133916759491,604.481969585419,607.241969585419,1627584196.15611,1627584196.17061,1627584204.67597,1627584204.68789,1627584206.77675,1627584213.36255,1627584213.36406,1627584213.88076,1627584213.87941,1627584753.54799,0
32,4,2,3,4,8,3,c3_HowFace,1,smiling?,117,F_593.jpg,1627584146.30602,1627584146.30811,47.0900928878784,8.51316213607788,55.609948387146,57.7107338809967,0.3,65.1301770114899,0.5668785572052,65.7046229743957,1,left,0.549713134765625,65.6970555686951,604.481969585419,607.241969585419,1627584196.15611,1627584196.17061,1627584204.67597,1627584204.68789,1627584206.77675,1627584214.1962,1627584214.19792,1627584214.77064,1627584214.76308,1627584753.54799,1
32,4,2,3,5,1,4,c4_HowHand,1,lifting?,56,H_136.jpg,1627584146.30602,1627584146.30811,65.7637472057342,7.37004065513611,73.14984416008,75.2506296539307,2.10078549385071,75.4006860160828,1.08373880386353,76.4861080551147,3,right,1.0583279132843,76.4844248199463,604.481969585419,607.241969585419,1627584214.82977,1627584214.83836,1627584222.21586,1627584222.22207,1627584224.31665,1627584224.46671,1627584224.47104,1627584225.55213,1627584225.55044,1627584753.54799,0
32,4,2,3,5,2,4,c4_HowHand,2,lifting?,51,H_038.jpg,1627584146.30602,1627584146.30811,65.7637472057342,7.37004065513611,73.14984416008,75.2506296539307,0.3,76.8012099170685,1.06706643104553,77.8707199001312,3,right,1.05606508255005,77.868276348114,604.481969585419,607.241969585419,1627584214.82977,1627584214.83836,1627584222.21586,1627584222.22207,1627584224.31665,1627584225.86723,1627584225.87077,1627584226.93674,1627584226.9343,1627584753.54799,0
32,4,2,3,5,3,4,c4_HowHand,1,lifting?,52,H_189.jpg,1627584146.30602,1627584146.30811,65.7637472057342,7.37004065513611,73.14984416008,75.2506296539307,0.3,78.185060968399,1.18377709388733,79.3700439834595,1,left,1.15926504135132,79.3688380622864,604.481969585419,607.241969585419,1627584214.82977,1627584214.83836,1627584222.21586,1627584222.22207,1627584224.31665,1627584227.25108,1627584227.25433,1627584228.43606,1627584228.43486,1627584753.54799,1
32,4,2,3,5,4,4,c4_HowHand,2,lifting?,53,H_077.jpg,1627584146.30602,1627584146.30811,65.7637472057342,7.37004065513611,73.14984416008,75.2506296539307,0.3,79.6856231594086,1.30048608779907,80.9874420070648,3,right,1.28567504882812,80.9861092472076,604.481969585419,607.241969585419,1627584214.82977,1627584214.83836,1627584222.21586,1627584222.22207,1627584224.31665,1627584228.75164,1627584228.75401,1627584230.05346,1627584230.05213,1627584753.54799,0
32,4,2,3,5,5,4,c4_HowHand,1,lifting?,50,H_443.jpg,1627584146.30602,1627584146.30811,65.7637472057342,7.37004065513611,73.14984416008,75.2506296539307,0.3,81.3028936290741,0.967029094696045,82.2714080715179,3,right,0.945446014404297,82.2699227237701,604.481969585419,607.241969585419,1627584214.82977,1627584214.83836,1627584222.21586,1627584222.22207,1627584224.31665,1627584230.36891,1627584230.37056,1627584231.33743,1627584231.33594,1627584753.54799,0
32,4,2,3,5,6,4,c4_HowHand,2,lifting?,55,H_012.jpg,1627584146.30602,1627584146.30811,65.7637472057342,7.37004065513611,73.14984416008,75.2506296539307,0.3,82.5867080593109,1.13375782966614,83.7218089008331,3,right,1.11394691467285,83.720465888977,604.481969585419,607.241969585419,1627584214.82977,1627584214.83836,1627584222.21586,1627584222.22207,1627584224.31665,1627584231.65273,1627584231.6544,1627584232.78783,1627584232.78649,1627584753.54799,0
32,4,2,3,5,7,4,c4_HowHand,1,lifting?,49,H_362.jpg,1627584146.30602,1627584146.30811,65.7637472057342,7.37004065513611,73.14984416008,75.2506296539307,0.3,84.0372505092621,1.18377637863159,85.2221689128876,1,left,1.16846489906311,85.2210268878937,604.481969585419,607.241969585419,1627584214.82977,1627584214.83836,1627584222.21586,1627584222.22207,1627584224.31665,1627584233.10327,1627584233.10498,1627584234.28819,1627584234.28705,1627584753.54799,1
32,4,2,3,5,8,4,c4_HowHand,1,lifting?,54,H_170.jpg,1627584146.30602,1627584146.30811,65.7637472057342,7.37004065513611,73.14984416008,75.2506296539307,0.3,85.537812461853,1.08373808860779,86.6374540233612,1,left,1.07542681694031,86.6215505504608,604.481969585419,607.241969585419,1627584214.82977,1627584214.83836,1627584222.21586,1627584222.22207,1627584224.31665,1627584234.60383,1627584234.60553,1627584235.70347,1627584235.68757,1627584753.54799,1
32,4,2,3,6,1,2,c2_WhyHand,1,helping?,38,H_077.jpg,1627584146.30602,1627584146.30811,86.7049159908295,8.91001200675964,95.6249194049835,97.7257046604156,2.10078525543213,97.8757617378235,0.88366436958313,98.761064043045,1,left,0.862848997116089,98.7594261074066,604.481969585419,607.241969585419,1627584235.77094,1627584235.77245,1627584244.69094,1627584244.6924,1627584246.79172,1627584246.94178,1627584246.94357,1627584247.82708,1627584247.82545,1627584753.54799,1
32,4,2,3,6,2,2,c2_WhyHand,1,helping?,36,H_349.jpg,1627584146.30602,1627584146.30811,86.7049159908295,8.91001200675964,95.6249194049835,97.7257046604156,0.3,99.0762112045288,0.683588743209839,99.7714440727234,1,left,0.672213077545166,99.7597999477386,604.481969585419,607.241969585419,1627584235.77094,1627584235.77245,1627584244.69094,1627584244.6924,1627584246.79172,1627584248.14223,1627584248.14391,1627584248.83746,1627584248.82582,1627584753.54799,1
32,4,2,3,6,3,2,c2_WhyHand,1,helping?,37,H_474.jpg,1627584146.30602,1627584146.30811,86.7049159908295,8.91001200675964,95.6249194049835,97.7257046604156,0.3,100.076584806442,0.666915655136108,100.744874944687,1,left,0.651692867279053,100.743500461578,604.481969585419,607.241969585419,1627584235.77094,1627584235.77245,1627584244.69094,1627584244.6924,1627584246.79172,1627584249.1426,1627584249.14418,1627584249.81089,1627584249.80952,1627584753.54799,1
32,4,2,3,6,4,2,c2_WhyHand,1,helping?,39,H_024.jpg,1627584146.30602,1627584146.30811,86.7049159908295,8.91001200675964,95.6249194049835,97.7257046604156,0.3,101.060286989212,0.850318193435669,101.912348976135,3,right,0.835824012756348,101.910605182648,604.481969585419,607.241969585419,1627584235.77094,1627584235.77245,1627584244.69094,1627584244.6924,1627584246.79172,1627584250.12631,1627584250.128,1627584250.97837,1627584250.97663,1627584753.54799,0
32,4,2,3,6,5,2,c2_WhyHand,2,helping?,40,H_012.jpg,1627584146.30602,1627584146.30811,86.7049159908295,8.91001200675964,95.6249194049835,97.7257046604156,0.3,102.227389564514,0.833645582199097,103.062387933731,3,right,0.81447696685791,103.061035146713,604.481969585419,607.241969585419,1627584235.77094,1627584235.77245,1627584244.69094,1627584244.6924,1627584246.79172,1627584251.29341,1627584251.29521,1627584252.12841,1627584252.12706,1627584753.54799,0
32,4,2,3,6,6,2,c2_WhyHand,2,helping?,35,H_159.jpg,1627584146.30602,1627584146.30811,86.7049159908295,8.91001200675964,95.6249194049835,97.7257046604156,0.3,103.377819766998,1.38385128974915,104.771162023544,3,right,1.3732430934906,104.761671056747,604.481969585419,607.241969585419,1627584235.77094,1627584235.77245,1627584244.69094,1627584244.6924,1627584246.79172,1627584252.44384,1627584252.4455,1627584253.83718,1627584253.82769,1627584753.54799,0
32,4,2,3,6,7,2,c2_WhyHand,1,helping?,34,H_111.jpg,1627584146.30602,1627584146.30811,86.7049159908295,8.91001200675964,95.6249194049835,97.7257046604156,0.3,105.078455677032,0.983706474304199,106.071485033035,1,left,0.968830108642578,106.062162151337,604.481969585419,607.241969585419,1627584235.77094,1627584235.77245,1627584244.69094,1627584244.6924,1627584246.79172,1627584254.14448,1627584254.14635,1627584255.13751,1627584255.12818,1627584753.54799,1
32,4,2,3,6,8,2,c2_WhyHand,2,helping?,33,H_091.jpg,1627584146.30602,1627584146.30811,86.7049159908295,8.91001200675964,95.6249194049835,97.7257046604156,0.3,106.378942718506,1.31715965270996,107.70413397789,1,left,1.31065392494202,107.696102371216,604.481969585419,607.241969585419,1627584235.77094,1627584235.77245,1627584244.69094,1627584244.6924,1627584246.79172,1627584255.44496,1627584255.44669,1627584256.77015,1627584256.76212,1627584753.54799,0
32,4,2,3,7,1,1,c1_WhyFace,1,proud?,104,F_598.jpg,1627584146.30602,1627584146.30811,107.762794008255,5.72716188430786,113.498272886276,115.599059095383,2.10078620910645,115.749114980698,0.783626556396484,116.534409036636,1,left,0.759404897689819,116.532741537094,604.481969585419,607.241969585419,1627584256.82881,1627584256.83732,1627584262.56429,1627584262.57125,1627584264.66508,1627584264.81514,1627584264.82095,1627584265.60043,1627584265.59876,1627584753.54799,1
32,4,2,3,7,2,1,c1_WhyFace,2,proud?,102,F_760.jpg,1627584146.30602,1627584146.30811,107.762794008255,5.72716188430786,113.498272886276,115.599059095383,0.3,116.849526872635,0.683588743209839,117.538086881638,3,right,0.665844917297363,117.533115615845,604.481969585419,607.241969585419,1627584256.82881,1627584256.83732,1627584262.56429,1627584262.57125,1627584264.66508,1627584265.91555,1627584265.91735,1627584266.60411,1627584266.59914,1627584753.54799,0
32,4,2,3,7,3,1,c1_WhyFace,1,proud?,97,F_582.jpg,1627584146.30602,1627584146.30811,107.762794008255,5.72716188430786,113.498272886276,115.599059095383,0.3,117.849902143478,0.700260400772095,118.554065933228,1,left,0.688124179840088,118.55016254425,604.481969585419,607.241969585419,1627584256.82881,1627584256.83732,1627584262.56429,1627584262.57125,1627584264.66508,1627584266.91592,1627584266.92096,1627584267.62009,1627584267.61618,1627584753.54799,1
32,4,2,3,7,4,1,c1_WhyFace,2,proud?,98,F_412.jpg,1627584146.30602,1627584146.30811,107.762794008255,5.72716188430786,113.498272886276,115.599059095383,0.3,118.866948833466,1.48388814926147,120.354548921585,3,right,1.46672892570496,120.350836982727,604.481969585419,607.241969585419,1627584256.82881,1627584256.83732,1627584262.56429,1627584262.57125,1627584264.66508,1627584267.93297,1627584267.9375,1627584269.42057,1627584269.41686,1627584753.54799,0
32,4,2,3,7,5,1,c1_WhyFace,1,proud?,101,F_083.jpg,1627584146.30602,1627584146.30811,107.762794008255,5.72716188430786,113.498272886276,115.599059095383,0.3,120.667624225616,0.683587074279785,121.354798069,1,left,0.662237882614136,121.351211299896,604.481969585419,607.241969585419,1627584256.82881,1627584256.83732,1627584262.56429,1627584262.57125,1627584264.66508,1627584269.73364,1627584269.73759,1627584270.42082,1627584270.41723,1627584753.54799,1
32,4,2,3,7,6,1,c1_WhyFace,2,proud?,100,F_776.jpg,1627584146.30602,1627584146.30811,107.762794008255,5.72716188430786,113.498272886276,115.599059095383,0.3,121.667996635437,1.48388862609863,123.154555072784,3,right,1.46671009063721,123.151885261536,604.481969585419,607.241969585419,1627584256.82881,1627584256.83732,1627584262.56429,1627584262.57125,1627584264.66508,1627584270.73402,1627584270.73738,1627584272.22058,1627584272.21791,1627584753.54799,0
32,4,2,3,7,7,1,c1_WhyFace,1,proud?,103,F_618.jpg,1627584146.30602,1627584146.30811,107.762794008255,5.72716188430786,113.498272886276,115.599059095383,0.3,123.468670120239,0.683588981628418,124.154109945297,1,left,0.661334991455078,124.152259101868,604.481969585419,607.241969585419,1627584256.82881,1627584256.83732,1627584262.56429,1627584262.57125,1627584264.66508,1627584272.53469,1627584272.53713,1627584273.22013,1627584273.21828,1627584753.54799,1
32,4,2,3,7,8,1,c1_WhyFace,1,proud?,99,F_695.jpg,1627584146.30602,1627584146.30811,107.762794008255,5.72716188430786,113.498272886276,115.599059095383,0.3,124.469043722153,0.866992235183716,125.337564935684,3,right,0.849040985107422,125.336035957336,604.481969585419,607.241969585419,1627584256.82881,1627584256.83732,1627584262.56429,1627584262.57125,1627584264.66508,1627584273.53506,1627584273.53727,1627584274.40358,1627584274.40206,1627584753.54799,0
32,4,2,3,8,1,3,c3_HowFace,1,looking to side?,72,F_590.jpg,1627584146.30602,1627584146.30811,125.402727117538,5.61728692054749,131.038168897629,133.122281780243,2.08411288261414,133.289010753632,1.71730899810791,NaN,0,NA,0,135.00631975174,604.481969585419,607.241969585419,1627584274.46875,1627584274.47016,1627584280.10419,1627584280.10601,1627584282.1883,1627584282.35503,1627584282.35676,NaN,1627584284.07234,1627584753.54799,0
32,4,2,3,8,2,3,c3_HowFace,1,looking to side?,71,F_433.jpg,1627584146.30602,1627584146.30811,125.402727117538,5.61728692054749,131.038168897629,133.122281780243,0.3,135.323105802536,1.71730947494507,NaN,0,NA,0,137.040415277481,604.481969585419,607.241969585419,1627584274.46875,1627584274.47016,1627584280.10419,1627584280.10601,1627584282.1883,1627584284.38913,1627584284.391,NaN,1627584286.10644,1627584753.54799,0
32,4,2,3,8,3,3,c3_HowFace,1,looking to side?,67,F_716.jpg,1627584146.30602,1627584146.30811,125.402727117538,5.61728692054749,131.038168897629,133.122281780243,0.3,137.357199420929,1.71730947494507,NaN,0,NA,0,139.074508895874,604.481969585419,607.241969585419,1627584274.46875,1627584274.47016,1627584280.10419,1627584280.10601,1627584282.1883,1627584286.42322,1627584286.42474,NaN,1627584288.14053,1627584753.54799,0
32,4,2,3,8,4,3,c3_HowFace,2,looking to side?,70,F_779.jpg,1627584146.30602,1627584146.30811,125.402727117538,5.61728692054749,131.038168897629,133.122281780243,0.3,139.391294946671,1.71730828285217,NaN,0,NA,0,141.108603229523,604.481969585419,607.241969585419,1627584274.46875,1627584274.47016,1627584280.10419,1627584280.10601,1627584282.1883,1627584288.45731,1627584288.45898,NaN,1627584290.17462,1627584753.54799,0
32,4,2,3,8,5,3,c3_HowFace,1,looking to side?,68,F_760.jpg,1627584146.30602,1627584146.30811,125.402727117538,5.61728692054749,131.038168897629,133.122281780243,0.3,141.425389280319,0.850318193435669,142.287477006912,3,right,0.841689109802246,142.275707473755,604.481969585419,607.241969585419,1627584274.46875,1627584274.47016,1627584280.10419,1627584280.10601,1627584282.1883,1627584290.49141,1627584290.49309,1627584291.3535,1627584291.34173,1627584753.54799,0
32,4,2,3,8,6,3,c3_HowFace,2,looking to side?,66,F_111.jpg,1627584146.30602,1627584146.30811,125.402727117538,5.61728692054749,131.038168897629,133.122281780243,0.3,142.592491378784,0.533533334732056,143.138222923279,3,right,0.519942998886108,143.126024713516,604.481969585419,607.241969585419,1627584274.46875,1627584274.47016,1627584280.10419,1627584280.10601,1627584282.1883,1627584291.65851,1627584291.66029,1627584292.20424,1627584292.19204,1627584753.54799,0
32,4,2,3,8,7,3,c3_HowFace,1,looking to side?,69,F_110.jpg,1627584146.30602,1627584146.30811,125.402727117538,5.61728692054749,131.038168897629,133.122281780243,0.3,143.442810049057,0.533533334732056,143.977544059753,3,right,0.51844310760498,143.976343383789,604.481969585419,607.241969585419,1627584274.46875,1627584274.47016,1627584280.10419,1627584280.10601,1627584282.1883,1627584292.50883,1627584292.51081,1627584293.04356,1627584293.04236,1627584753.54799,0
32,4,2,3,8,8,3,c3_HowFace,2,looking to side?,65,F_798.jpg,1627584146.30602,1627584146.30811,125.402727117538,5.61728692054749,131.038168897629,133.122281780243,0.3,144.293128004074,0.716934680938721,145.011758079529,3,right,0.70358419418335,145.010062685013,604.481969585419,607.241969585419,1627584274.46875,1627584274.47016,1627584280.10419,1627584280.10601,1627584282.1883,1627584293.35915,1627584293.36074,1627584294.07778,1627584294.07608,1627584753.54799,0
32,4,2,3,9,1,1,c1_WhyFace,1,argument?,43,F_716.jpg,1627584146.30602,1627584146.30811,145.076755275726,5.05127263069153,150.145318260193,152.246103992462,2.10078573226929,152.396160116196,1.33383250236511,153.737492074966,1,left,1.3171808719635,153.729992618561,604.481969585419,607.241969585419,1627584294.14278,1627584294.14432,1627584299.21134,1627584299.21287,1627584301.31212,1627584301.46218,1627584301.46402,1627584302.80351,1627584302.79601,1627584753.54799,1
32,4,2,3,9,2,1,c1_WhyFace,2,argument?,44,F_139.jpg,1627584146.30602,1627584146.30811,145.076755275726,5.05127263069153,150.145318260193,152.246103992462,0.3,154.046778430939,0.616896629333496,154.670892944336,3,right,0.609422206878662,154.663675060272,604.481969585419,607.241969585419,1627584294.14278,1627584294.14432,1627584299.21134,1627584299.21287,1627584301.31212,1627584303.1128,1627584303.11455,1627584303.73691,1627584303.7297,1627584753.54799,0
32,4,2,3,9,3,1,c1_WhyFace,1,argument?,41,F_712.jpg,1627584146.30602,1627584146.30811,145.076755275726,5.05127263069153,150.145318260193,152.246103992462,0.3,154.980460157394,0.633569478988647,155.615838041306,1,left,0.615828037261963,155.614029636383,604.481969585419,607.241969585419,1627584294.14278,1627584294.14432,1627584299.21134,1627584299.21287,1627584301.31212,1627584304.04648,1627584304.04803,1627584304.68186,1627584304.68005,1627584753.54799,1
32,4,2,3,9,4,1,c1_WhyFace,2,argument?,45,F_433.jpg,1627584146.30602,1627584146.30811,145.076755275726,5.05127263069153,150.145318260193,152.246103992462,0.3,155.930815448761,0.967028379440308,156.904187908173,1,left,0.957562923431396,156.897843828201,604.481969585419,607.241969585419,1627584294.14278,1627584294.14432,1627584299.21134,1627584299.21287,1627584301.31212,1627584304.99684,1627584304.99869,1627584305.97021,1627584305.96386,1627584753.54799,0
32,4,2,3,9,5,1,c1_WhyFace,1,argument?,42,F_403.jpg,1627584146.30602,1627584146.30811,145.076755275726,5.05127263069153,150.145318260193,152.246103992462,0.3,157.214629163742,0.666916608810425,157.887712945938,1,left,0.65097713470459,157.881545772552,604.481969585419,607.241969585419,1627584294.14278,1627584294.14432,1627584299.21134,1627584299.21287,1627584301.31212,1627584306.28065,1627584306.28232,1627584306.95373,1627584306.94757,1627584753.54799,1
32,4,2,3,9,6,1,c1_WhyFace,2,argument?,46,F_844.jpg,1627584146.30602,1627584146.30811,145.076755275726,5.05127263069153,150.145318260193,152.246103992462,0.3,158.198330392838,1.25046873092651,159.454648008347,3,right,1.23608183860779,159.448799123764,604.481969585419,607.241969585419,1627584294.14278,1627584294.14432,1627584299.21134,1627584299.21287,1627584301.31212,1627584307.26435,1627584307.2659,1627584308.52067,1627584308.51482,1627584753.54799,0
32,4,2,3,9,7,1,c1_WhyFace,1,argument?,47,F_743.jpg,1627584146.30602,1627584146.30811,145.076755275726,5.05127263069153,150.145318260193,152.246103992462,0.3,159.765583267212,1.41719722747803,161.183911075592,3,right,1.39602899551392,161.18278049469,604.481969585419,607.241969585419,1627584294.14278,1627584294.14432,1627584299.21134,1627584299.21287,1627584301.31212,1627584308.8316,1627584308.83337,1627584310.24993,1627584310.2488,1627584753.54799,0
32,4,2,3,9,8,1,c1_WhyFace,1,argument?,48,F_758.jpg,1627584146.30602,1627584146.30811,145.076755275726,5.05127263069153,150.145318260193,152.246103992462,0.3,161.499566068649,1.71730852127075,NaN,0,NA,0,163.21687458992,604.481969585419,607.241969585419,1627584294.14278,1627584294.14432,1627584299.21134,1627584299.21287,1627584301.31212,1627584310.56559,1627584310.56742,NaN,1627584312.28289,1627584753.54799,0
32,4,2,3,10,1,3,c3_HowFace,1,open mouth?,80,F_844.jpg,1627584146.30602,1627584146.30811,163.550332775116,4.41792511940002,167.985326519012,170.086112012863,2.10078549385071,170.236167898178,1.40052390098572,171.6381320858,1,left,1.38192415237427,171.636691799164,604.481969585419,607.241969585419,1627584312.61635,1627584312.6211,1627584317.05135,1627584317.05409,1627584319.15213,1627584319.30219,1627584319.305,1627584320.70415,1627584320.70271,1627584753.54799,1
32,4,2,3,10,2,3,c3_HowFace,1,open mouth?,74,F_776.jpg,1627584146.30602,1627584146.30811,163.550332775116,4.41792511940002,167.985326519012,170.086112012863,0.3,171.953476419449,0.500187397003174,172.454596986771,1,left,0.488172054290771,172.453663816452,604.481969585419,607.241969585419,1627584312.61635,1627584312.6211,1627584317.05135,1627584317.05409,1627584319.15213,1627584321.0195,1627584321.02115,1627584321.52062,1627584321.51968,1627584753.54799,1
32,4,2,3,10,3,3,c3_HowFace,2,open mouth?,76,F_544.jpg,1627584146.30602,1627584146.30811,163.550332775116,4.41792511940002,167.985326519012,170.086112012863,0.3,172.770449390411,0.716935396194458,173.488836994171,3,right,0.70084810256958,173.487384786606,604.481969585419,607.241969585419,1627584312.61635,1627584312.6211,1627584317.05135,1627584317.05409,1627584319.15213,1627584321.83647,1627584321.83806,1627584322.55486,1627584322.5534,1627584753.54799,0
32,4,2,3,10,4,3,c3_HowFace,1,open mouth?,78,F_692.jpg,1627584146.30602,1627584146.30811,163.550332775116,4.41792511940002,167.985326519012,170.086112012863,0.3,173.804169406891,0.766953229904175,174.572702875137,1,left,0.758020877838135,174.571122636795,604.481969585419,607.241969585419,1627584312.61635,1627584312.6211,1627584317.05135,1627584317.05409,1627584319.15213,1627584322.87019,1627584322.87147,1627584323.63872,1627584323.63714,1627584753.54799,1
32,4,2,3,10,5,3,c3_HowFace,2,open mouth?,77,F_584.jpg,1627584146.30602,1627584146.30811,163.550332775116,4.41792511940002,167.985326519012,170.086112012863,0.3,174.887907733917,0.766954660415649,175.656226863861,3,right,0.750647068023682,175.654862394333,604.481969585419,607.241969585419,1627584312.61635,1627584312.6211,1627584317.05135,1627584317.05409,1627584319.15213,1627584323.95393,1627584323.95523,1627584324.72225,1627584324.72088,1627584753.54799,0
32,4,2,3,10,6,3,c3_HowFace,1,open mouth?,73,F_403.jpg,1627584146.30602,1627584146.30811,163.550332775116,4.41792511940002,167.985326519012,170.086112012863,0.3,175.971647253037,1.71730899810791,NaN,0,NA,0,177.688956251144,604.481969585419,607.241969585419,1627584312.61635,1627584312.6211,1627584317.05135,1627584317.05409,1627584319.15213,1627584325.03767,1627584325.03937,NaN,1627584326.75498,1627584753.54799,0
32,4,2,3,10,7,3,c3_HowFace,1,open mouth?,75,F_086.jpg,1627584146.30602,1627584146.30811,163.550332775116,4.41792511940002,167.985326519012,170.086112012863,0.3,178.005741109848,1.71730875968933,NaN,0,NA,0,179.723049869537,604.481969585419,607.241969585419,1627584312.61635,1627584312.6211,1627584317.05135,1627584317.05409,1627584319.15213,1627584327.07176,1627584327.0735,NaN,1627584328.78907,1627584753.54799,0
32,4,2,3,10,8,3,c3_HowFace,2,open mouth?,79,F_648.jpg,1627584146.30602,1627584146.30811,163.550332775116,4.41792511940002,167.985326519012,170.086112012863,0.3,180.039835681915,0.75028133392334,180.791898956299,3,right,0.728707075119019,180.790117015839,604.481969585419,607.241969585419,1627584312.61635,1627584312.6211,1627584317.05135,1627584317.05409,1627584319.15213,1627584329.10586,1627584329.10737,1627584329.85792,1627584329.85614,1627584753.54799,0
32,4,2,3,11,1,4,c4_HowHand,1,pressing button?,88,H_019.jpg,1627584146.30602,1627584146.30811,180.856807699204,5.00109338760376,185.875352611542,187.97613858223,2.10078597068787,188.126194705963,1.35050559043884,189.47853302002,1,left,1.33022308349609,189.476700296402,604.481969585419,607.241969585419,1627584329.92283,1627584329.92416,1627584334.94137,1627584334.94311,1627584337.04216,1627584337.19221,1627584337.19424,1627584338.54455,1627584338.54272,1627584753.54799,1
32,4,2,3,11,2,4,c4_HowHand,2,pressing button?,87,H_024.jpg,1627584146.30602,1627584146.30811,180.856807699204,5.00109338760376,185.875352611542,187.97613858223,0.3,189.793484916687,0.700262069702148,190.495132913589,3,right,0.6858971118927,190.493746986389,604.481969585419,607.241969585419,1627584329.92283,1627584329.92416,1627584334.94137,1627584334.94311,1627584337.04216,1627584338.8595,1627584338.86113,1627584339.56115,1627584339.55977,1627584753.54799,0
32,4,2,3,11,3,4,c4_HowHand,2,pressing button?,85,H_130.jpg,1627584146.30602,1627584146.30811,180.856807699204,5.00109338760376,185.875352611542,187.97613858223,0.3,190.810532083511,0.650242805480957,191.462287893295,3,right,0.629074811935425,191.460774888992,604.481969585419,607.241969585419,1627584329.92283,1627584329.92416,1627584334.94137,1627584334.94311,1627584337.04216,1627584339.87655,1627584339.87831,1627584340.52831,1627584340.52679,1627584753.54799,0
32,4,2,3,11,4,4,c4_HowHand,1,pressing button?,83,H_502.jpg,1627584146.30602,1627584146.30811,180.856807699204,5.00109338760376,185.875352611542,187.97613858223,0.3,191.777560939789,0.98370099067688,192.76241897583,1,left,0.963561058044434,192.761261930466,604.481969585419,607.241969585419,1627584329.92283,1627584329.92416,1627584334.94137,1627584334.94311,1627584337.04216,1627584340.84358,1627584340.84515,1627584341.82844,1627584341.82728,1627584753.54799,1
32,4,2,3,11,5,4,c4_HowHand,2,pressing button?,81,H_261.jpg,1627584146.30602,1627584146.30811,180.856807699204,5.00109338760376,185.875352611542,187.97613858223,0.3,193.078046312332,1.33383274078369,194.413556089401,3,right,1.31338715553284,194.411879053116,604.481969585419,607.241969585419,1627584329.92283,1627584329.92416,1627584334.94137,1627584334.94311,1627584337.04216,1627584342.14407,1627584342.14582,1627584343.47958,1627584343.4779,1627584753.54799,0
32,4,2,3,11,6,4,c4_HowHand,1,pressing button?,86,H_332.jpg,1627584146.30602,1627584146.30811,180.856807699204,5.00109338760376,185.875352611542,187.97613858223,0.3,194.728664627075,1.61727166175842,196.347635974884,1,left,1.59864807128906,196.345936288834,604.481969585419,607.241969585419,1627584329.92283,1627584329.92416,1627584334.94137,1627584334.94311,1627584337.04216,1627584343.79468,1627584343.79644,1627584345.41366,1627584345.41196,1627584753.54799,1
32,4,2,3,11,7,4,c4_HowHand,1,pressing button?,82,H_126.jpg,1627584146.30602,1627584146.30811,180.856807699204,5.00109338760376,185.875352611542,187.97613858223,0.3,196.662720193863,0.950356245040894,197.621285905838,1,left,0.941464185714722,197.613076438904,604.481969585419,607.241969585419,1627584329.92283,1627584329.92416,1627584334.94137,1627584334.94311,1627584337.04216,1627584345.72874,1627584345.73061,1627584346.68731,1627584346.6791,1627584753.54799,1
32,4,2,3,11,8,4,c4_HowHand,1,pressing button?,84,H_483.jpg,1627584146.30602,1627584146.30811,180.856807699204,5.00109338760376,185.875352611542,187.97613858223,0.3,197.929862966537,0.650242805480957,198.58764790535,1,left,0.643206834793091,198.580105772018,604.481969585419,607.241969585419,1627584329.92283,1627584329.92416,1627584334.94137,1627584334.94311,1627584337.04216,1627584346.99588,1627584346.99742,1627584347.65367,1627584347.64613,1627584753.54799,1
32,4,2,3,12,1,2,c2_WhyHand,1,competing?,9,H_261.jpg,1627584146.30602,1627584146.30811,198.663470020294,4.98447299003601,203.66534160614,205.766128053665,2.10078644752502,205.916184177399,1.71730852127075,NaN,0,NA,0,207.633492698669,604.481969585419,607.241969585419,1627584347.72949,1627584347.73755,1627584352.73136,1627584352.73307,1627584354.83215,1627584354.9822,1627584354.98377,NaN,1627584356.69951,1627584753.54799,0
32,4,2,3,12,2,2,c2_WhyHand,2,competing?,12,H_483.jpg,1627584146.30602,1627584146.30811,198.663470020294,4.98447299003601,203.66534160614,205.766128053665,0.3,207.950278272629,1.71730852127075,NaN,0,NA,0,209.6675867939,604.481969585419,607.241969585419,1627584347.72949,1627584347.73755,1627584352.73136,1627584352.73307,1627584354.83215,1627584357.0163,1627584357.01775,NaN,1627584358.73361,1627584753.54799,0
32,4,2,3,12,3,2,c2_WhyHand,1,competing?,14,H_132.jpg,1627584146.30602,1627584146.30811,198.663470020294,4.98447299003601,203.66534160614,205.766128053665,0.3,209.984373083115,0.666914939880371,210.654931058884,1,left,0.64893913269043,210.651288022995,604.481969585419,607.241969585419,1627584347.72949,1627584347.73755,1627584352.73136,1627584352.73307,1627584354.83215,1627584359.05039,1627584359.05431,1627584359.72095,1627584359.71731,1627584753.54799,1
32,4,2,3,12,4,2,c2_WhyHand,2,competing?,10,H_126.jpg,1627584146.30602,1627584146.30811,198.663470020294,4.98447299003601,203.66534160614,205.766128053665,0.3,210.968073596954,0.800299167633057,211.771658887863,3,right,0.780576944351196,211.768372764587,604.481969585419,607.241969585419,1627584347.72949,1627584347.73755,1627584352.73136,1627584352.73307,1627584354.83215,1627584360.03409,1627584360.03753,1627584360.83768,1627584360.83439,1627584753.54799,0
32,4,2,3,12,5,2,c2_WhyHand,1,competing?,16,H_136.jpg,1627584146.30602,1627584146.30811,198.663470020294,4.98447299003601,203.66534160614,205.766128053665,0.3,212.085159292221,0.733607769012451,212.821338882446,1,left,0.7205970287323,212.818767061234,604.481969585419,607.241969585419,1627584347.72949,1627584347.73755,1627584352.73136,1627584352.73307,1627584354.83215,1627584361.15118,1627584361.1544,1627584361.88736,1627584361.88479,1627584753.54799,1
32,4,2,3,12,6,2,c2_WhyHand,2,competing?,11,H_502.jpg,1627584146.30602,1627584146.30811,198.663470020294,4.98447299003601,203.66534160614,205.766128053665,0.3,213.135551919937,1.01704692840576,214.154306879044,3,right,0.997300863265991,214.152598848343,604.481969585419,607.241969585419,1627584347.72949,1627584347.73755,1627584352.73136,1627584352.73307,1627584354.83215,1627584362.20157,1627584362.20408,1627584363.22033,1627584363.21862,1627584753.54799,0
32,4,2,3,12,7,2,c2_WhyHand,1,competing?,13,H_003.jpg,1627584146.30602,1627584146.30811,198.663470020294,4.98447299003601,203.66534160614,205.766128053665,0.3,214.469383707047,0.866991758346558,215.33826207161,1,left,0.844599008560181,215.336375465393,604.481969585419,607.241969585419,1627584347.72949,1627584347.73755,1627584352.73136,1627584352.73307,1627584354.83215,1627584363.5354,1627584363.5376,1627584364.40428,1627584364.4024,1627584753.54799,1
32,4,2,3,12,8,2,c2_WhyHand,1,competing?,15,H_170.jpg,1627584146.30602,1627584146.30811,198.663470020294,4.98447299003601,203.66534160614,205.766128053665,0.3,215.653159608841,0.616896867752075,216.271058073044,1,left,0.608886957168579,216.270056476593,604.481969585419,607.241969585419,1627584347.72949,1627584347.73755,1627584352.73136,1627584352.73307,1627584354.83215,1627584364.71918,1627584364.72087,1627584365.33708,1627584365.33608,1627584753.54799,1
32,4,2,3,13,1,1,c1_WhyFace,1,self-doubt?,29,F_544.jpg,1627584146.30602,1627584146.30811,216.336749305725,5.38114070892334,221.722097387314,223.822883119583,2.10078573226929,223.972939481735,0.716935157775879,224.690829029083,1,left,0.69146203994751,224.689874639511,604.481969585419,607.241969585419,1627584365.40277,1627584365.40407,1627584370.78812,1627584370.80531,1627584372.8889,1627584373.03896,1627584373.05476,1627584373.75685,1627584373.75589,1627584753.54799,1
32,4,2,3,13,2,1,c1_WhyFace,2,self-doubt?,27,F_086.jpg,1627584146.30602,1627584146.30811,216.336749305725,5.38114070892334,221.722097387314,223.822883119583,0.3,225.006659736633,0.700262308120728,225.708601942062,3,right,0.689489841461182,225.706922044754,604.481969585419,607.241969585419,1627584365.40277,1627584365.40407,1627584370.78812,1627584370.80531,1627584372.8889,1627584374.07268,1627584374.07421,1627584374.77462,1627584374.77294,1627584753.54799,0
32,4,2,3,13,3,1,c1_WhyFace,1,self-doubt?,25,F_798.jpg,1627584146.30602,1627584146.30811,216.336749305725,5.38114070892334,221.722097387314,223.822883119583,0.3,226.02370642662,0.616898536682129,226.642031898499,1,left,0.593645095825195,226.640604963303,604.481969585419,607.241969585419,1627584365.40277,1627584365.40407,1627584370.78812,1627584370.80531,1627584372.8889,1627584375.08973,1627584375.09152,1627584375.70805,1627584375.70662,1627584753.54799,1
32,4,2,3,13,4,1,c1_WhyFace,1,self-doubt?,26,F_111.jpg,1627584146.30602,1627584146.30811,216.336749305725,5.38114070892334,221.722097387314,223.822883119583,0.3,226.957389583588,0.633569955825806,227.592407932282,1,left,0.613821983337402,227.590959539413,604.481969585419,607.241969585419,1627584365.40277,1627584365.40407,1627584370.78812,1627584370.80531,1627584372.8889,1627584376.02341,1627584376.0251,1627584376.65843,1627584376.65698,1627584753.54799,1
32,4,2,3,13,5,1,c1_WhyFace,2,self-doubt?,31,F_774.jpg,1627584146.30602,1627584146.30811,216.336749305725,5.38114070892334,221.722097387314,223.822883119583,0.3,227.907744636536,0.750281095504761,228.659539928436,3,right,0.738074064254761,228.65802573204,604.481969585419,607.241969585419,1627584365.40277,1627584365.40407,1627584370.78812,1627584370.80531,1627584372.8889,1627584376.97376,1627584376.97558,1627584377.72556,1627584377.72405,1627584753.54799,0
32,4,2,3,13,6,1,c1_WhyFace,1,self-doubt?,28,F_754.jpg,1627584146.30602,1627584146.30811,216.336749305725,5.38114070892334,221.722097387314,223.822883119583,0.3,228.974813690186,1.71730661392212,230.828346004486,1,left,1.83055300712585,230.692120304108,604.481969585419,607.241969585419,1627584365.40277,1627584365.40407,1627584370.78812,1627584370.80531,1627584372.8889,1627584378.04083,1627584378.04262,1627584379.89437,1627584379.75814,1627584753.54799,1
32,4,2,3,13,7,1,c1_WhyFace,2,self-doubt?,32,F_128.jpg,1627584146.30602,1627584146.30811,216.336749305725,5.38114070892334,221.722097387314,223.822883119583,0.3,231.008906116486,0.917009353637695,231.927646865845,3,right,0.896230220794678,231.925915470123,604.481969585419,607.241969585419,1627584365.40277,1627584365.40407,1627584370.78812,1627584370.80531,1627584372.8889,1627584380.07493,1627584380.07631,1627584380.99367,1627584380.99194,1627584753.54799,0
32,4,2,3,13,8,1,c1_WhyFace,1,self-doubt?,30,F_584.jpg,1627584146.30602,1627584146.30811,216.336749305725,5.38114070892334,221.722097387314,223.822883119583,0.3,232.242699613571,0.750281095504761,233.004327049255,3,right,0.741460084915161,232.992980709076,604.481969585419,607.241969585419,1627584365.40277,1627584365.40407,1627584370.78812,1627584370.80531,1627584372.8889,1627584381.30872,1627584381.31008,1627584382.07035,1627584382.059,1627584753.54799,0
32,4,2,3,14,1,3,c3_HowFace,1,looking at camera?,64,F_128.jpg,1627584146.30602,1627584146.30811,233.076346149445,7.69572186470032,240.779227962494,242.880013456345,2.10078549385071,243.030070295334,1.71730828285217,NaN,0,NA,0,244.747378578186,604.481969585419,607.241969585419,1627584382.14237,1627584382.14412,1627584389.84525,1627584389.85476,1627584391.94603,1627584392.09609,1627584392.10433,NaN,1627584393.8134,1627584753.54799,0
32,4,2,3,14,2,3,c3_HowFace,1,looking at camera?,60,F_618.jpg,1627584146.30602,1627584146.30811,233.076346149445,7.69572186470032,240.779227962494,242.880013456345,0.3,245.064164152145,0.766952276229858,245.83798002243,1,left,0.755512952804565,245.831116428375,604.481969585419,607.241969585419,1627584382.14237,1627584382.14412,1627584389.84525,1627584389.85476,1627584391.94603,1627584394.13018,1627584394.1319,1627584394.904,1627584394.89714,1627584753.54799,1
32,4,2,3,14,3,3,c3_HowFace,1,looking at camera?,62,F_598.jpg,1627584146.30602,1627584146.30811,233.076346149445,7.69572186470032,240.779227962494,242.880013456345,0.3,246.147902479172,0.500187397003174,246.654716959,1,left,0.490969896316528,246.648089876175,604.481969585419,607.241969585419,1627584382.14237,1627584382.14412,1627584389.84525,1627584389.85476,1627584391.94603,1627584395.21392,1627584395.21575,1627584395.72074,1627584395.71411,1627584753.54799,1
32,4,2,3,14,4,3,c3_HowFace,2,looking at camera?,63,F_743.jpg,1627584146.30602,1627584146.30811,233.076346149445,7.69572186470032,240.779227962494,242.880013456345,0.3,246.96487449646,0.533532619476318,247.504503002167,3,right,0.51582407951355,247.498407115936,604.481969585419,607.241969585419,1627584382.14237,1627584382.14412,1627584389.84525,1627584389.85476,1627584391.94603,1627584396.03089,1627584396.03224,1627584396.57052,1627584396.56443,1627584753.54799,0
32,4,2,3,14,5,3,c3_HowFace,1,looking at camera?,61,F_774.jpg,1627584146.30602,1627584146.30811,233.076346149445,7.69572186470032,240.779227962494,242.880013456345,0.3,247.815192689896,0.566879510879517,248.388607969284,1,left,0.550359964370728,248.382072200775,604.481969585419,607.241969585419,1627584382.14237,1627584382.14412,1627584389.84525,1627584389.85476,1627584391.94603,1627584396.88121,1627584396.88284,1627584397.45463,1627584397.44809,1627584753.54799,1
32,4,2,3,14,6,3,c3_HowFace,2,looking at camera?,57,F_582.jpg,1627584146.30602,1627584146.30811,233.076346149445,7.69572186470032,240.779227962494,242.880013456345,0.3,248.69885682106,0.633570909500122,249.337673892975,1,left,0.622420072555542,249.33242773056,604.481969585419,607.241969585419,1627584382.14237,1627584382.14412,1627584389.84525,1627584389.85476,1627584391.94603,1627584397.76488,1627584397.76659,1627584398.40369,1627584398.39845,1627584753.54799,0
32,4,2,3,14,7,3,c3_HowFace,2,looking at camera?,58,F_754.jpg,1627584146.30602,1627584146.30811,233.076346149445,7.69572186470032,240.779227962494,242.880013456345,0.3,249.649212827683,0.833645105361938,250.488030900955,3,right,0.826464891433716,250.482857933044,604.481969585419,607.241969585419,1627584382.14237,1627584382.14412,1627584389.84525,1627584389.85476,1627584391.94603,1627584398.71523,1627584398.71657,1627584399.55405,1627584399.54888,1627584753.54799,0
32,4,2,3,14,8,3,c3_HowFace,1,looking at camera?,59,F_129.jpg,1627584146.30602,1627584146.30811,233.076346149445,7.69572186470032,240.779227962494,242.880013456345,0.3,250.799642553329,0.55020546913147,251.354300966263,1,left,0.531430006027222,251.349848022461,604.481969585419,607.241969585419,1627584382.14237,1627584382.14412,1627584389.84525,1627584389.85476,1627584391.94603,1627584399.86566,1627584399.86719,1627584400.42032,1627584400.41587,1627584753.54799,1
32,4,2,3,15,1,4,c4_HowHand,1,both hands?,123,H_167.jpg,1627584146.30602,1627584146.30811,251.416541090012,8.14545488357544,259.569590559006,261.670377006531,2.10078644752502,261.820433130264,1.18377590179443,263.005973091125,1,left,1.16258788108826,263.004209032059,604.481969585419,607.241969585419,1627584400.48256,1627584400.48749,1627584408.63561,1627584408.63767,1627584410.7364,1627584410.88645,1627584410.88829,1627584412.07199,1627584412.07023,1627584753.54799,1
32,4,2,3,15,2,4,c4_HowHand,2,both hands?,121,H_091.jpg,1627584146.30602,1627584146.30811,251.416541090012,8.14545488357544,259.569590559006,261.670377006531,0.3,263.320993652344,0.917009830474854,264.239582052231,3,right,0.904748916625977,264.238003482819,604.481969585419,607.241969585419,1627584400.48256,1627584400.48749,1627584408.63561,1627584408.63767,1627584410.7364,1627584412.38701,1627584412.38857,1627584413.3056,1627584413.30402,1627584753.54799,0
32,4,2,3,15,3,4,c4_HowHand,2,both hands?,125,H_627.jpg,1627584146.30602,1627584146.30811,251.416541090012,8.14545488357544,259.569590559006,261.670377006531,0.3,264.554789772034,1.20044922828674,265.771013011932,3,right,1.19343185424805,265.75523900032,604.481969585419,607.241969585419,1627584400.48256,1627584400.48749,1627584408.63561,1627584408.63767,1627584410.7364,1627584413.62081,1627584413.62232,1627584414.83703,1627584414.82126,1627584753.54799,0
32,4,2,3,15,4,4,c4_HowHand,1,both hands?,128,H_027.jpg,1627584146.30602,1627584146.30811,251.416541090012,8.14545488357544,259.569590559006,261.670377006531,0.3,266.07202290535,1.71730947494507,NaN,0,NA,0,267.789332380295,604.481969585419,607.241969585419,1627584400.48256,1627584400.48749,1627584408.63561,1627584408.63767,1627584410.7364,1627584415.13804,1627584415.1398,NaN,1627584416.85535,1627584753.54799,0
32,4,2,3,15,5,4,c4_HowHand,1,both hands?,122,H_111.jpg,1627584146.30602,1627584146.30811,251.416541090012,8.14545488357544,259.569590559006,261.670377006531,0.3,268.106117954254,1.71730995178223,NaN,0,NA,0,269.823427906036,604.481969585419,607.241969585419,1627584400.48256,1627584400.48749,1627584408.63561,1627584408.63767,1627584410.7364,1627584417.17214,1627584417.17384,NaN,1627584418.88945,1627584753.54799,0
32,4,2,3,15,6,4,c4_HowHand,2,both hands?,126,H_159.jpg,1627584146.30602,1627584146.30811,251.416541090012,8.14545488357544,259.569590559006,261.670377006531,0.3,270.140212526321,1.71730899810791,NaN,0,NA,0,271.857521524429,604.481969585419,607.241969585419,1627584400.48256,1627584400.48749,1627584408.63561,1627584408.63767,1627584410.7364,1627584419.20623,1627584419.20773,NaN,1627584420.92354,1627584753.54799,0
32,4,2,3,15,7,4,c4_HowHand,1,both hands?,124,H_581.jpg,1627584146.30602,1627584146.30811,251.416541090012,8.14545488357544,259.569590559006,261.670377006531,0.3,272.174306621552,1.71730923652649,NaN,0,NA,0,273.891615858078,604.481969585419,607.241969585419,1627584400.48256,1627584400.48749,1627584408.63561,1627584408.63767,1627584410.7364,1627584421.24033,1627584421.24172,NaN,1627584422.95764,1627584753.54799,0
32,4,2,3,15,8,4,c4_HowHand,1,both hands?,127,H_349.jpg,1627584146.30602,1627584146.30811,251.416541090012,8.14545488357544,259.569590559006,261.670377006531,0.3,274.208400478363,0.633570909500122,274.843600978851,1,left,0.614435911178589,274.841971387863,604.481969585419,607.241969585419,1627584400.48256,1627584400.48749,1627584408.63561,1627584408.63767,1627584410.7364,1627584423.27442,1627584423.27596,1627584423.90962,1627584423.90799,1627584753.54799,1
32,4,2,3,16,1,2,c2_WhyHand,1,self-protection?,89,H_443.jpg,1627584146.30602,1627584146.30811,274.908663978577,3.44335293769836,278.35995434761,280.460740795136,2.10078644752502,280.610796918869,0.800298929214478,281.42128490448,1,left,0.781152963638306,281.411095848084,604.481969585419,607.241969585419,1627584423.97468,1627584423.98764,1627584427.42597,1627584427.43805,1627584429.52676,1627584429.67682,1627584429.68775,1627584430.4873,1627584430.47712,1627584753.54799,1
32,4,2,3,16,2,2,c2_WhyHand,2,self-protection?,90,H_006.jpg,1627584146.30602,1627584146.30811,274.908663978577,3.44335293769836,278.35995434761,280.460740795136,0.3,281.727881183624,0.783626556396484,282.521699895859,3,right,0.770794868469238,282.511507740021,604.481969585419,607.241969585419,1627584423.97468,1627584423.98764,1627584427.42597,1627584427.43805,1627584429.52676,1627584430.7939,1627584430.7957,1627584431.58772,1627584431.57753,1627584753.54799,0
32,4,2,3,16,3,2,c2_WhyHand,1,self-protection?,91,H_581.jpg,1627584146.30602,1627584146.30811,274.908663978577,3.44335293769836,278.35995434761,280.460740795136,0.3,282.828293075562,1.71730899810791,NaN,0,NA,0,284.545602073669,604.481969585419,607.241969585419,1627584423.97468,1627584423.98764,1627584427.42597,1627584427.43805,1627584429.52676,1627584431.89431,1627584431.89599,NaN,1627584433.61162,1627584753.54799,0
32,4,2,3,16,4,2,c2_WhyHand,2,self-protection?,92,H_532.jpg,1627584146.30602,1627584146.30811,274.908663978577,3.44335293769836,278.35995434761,280.460740795136,0.3,284.862387647629,0.016671895980835,284.88796090126,1,left,0.000216007232666016,284.87905954361,604.481969585419,607.241969585419,1627584423.97468,1627584423.98764,1627584427.42597,1627584427.43805,1627584429.52676,1627584433.92841,1627584433.92998,1627584433.95398,1627584433.94508,1627584753.54799,0
32,4,2,3,16,5,2,c2_WhyHand,1,self-protection?,96,H_027.jpg,1627584146.30602,1627584146.30811,274.908663978577,3.44335293769836,278.35995434761,280.460740795136,0.3,285.195844640732,1.06706738471985,286.271678915024,1,left,1.05422210693359,286.262912025452,604.481969585419,607.241969585419,1627584423.97468,1627584423.98764,1627584427.42597,1627584427.43805,1627584429.52676,1627584434.26186,1627584434.26371,1627584435.3377,1627584435.32893,1627584753.54799,1
32,4,2,3,16,6,2,c2_WhyHand,1,self-protection?,93,H_038.jpg,1627584146.30602,1627584146.30811,274.908663978577,3.44335293769836,278.35995434761,280.460740795136,0.3,286.579697122574,0.650242328643799,287.237720956802,3,right,0.643830060958862,287.229939451218,604.481969585419,607.241969585419,1627584423.97468,1627584423.98764,1627584427.42597,1627584427.43805,1627584429.52676,1627584435.64572,1627584435.64729,1627584436.30374,1627584436.29596,1627584753.54799,0
32,4,2,3,16,7,2,c2_WhyHand,2,self-protection?,95,H_332.jpg,1627584146.30602,1627584146.30811,274.908663978577,3.44335293769836,278.35995434761,280.460740795136,0.3,287.546725025177,1.71730947494507,NaN,0,NA,0,289.264034500122,604.481969585419,607.241969585419,1627584423.97468,1627584423.98764,1627584427.42597,1627584427.43805,1627584429.52676,1627584436.61275,1627584436.61471,NaN,1627584438.33005,1627584753.54799,0
32,4,2,3,16,8,2,c2_WhyHand,1,self-protection?,94,H_189.jpg,1627584146.30602,1627584146.30811,274.908663978577,3.44335293769836,278.35995434761,280.460740795136,0.3,289.580818881989,0.0166738033294678,289.605168094635,3,right,0.00809001922607422,289.597492685318,604.481969585419,607.241969585419,1627584423.97468,1627584423.98764,1627584427.42597,1627584427.43805,1627584429.52676,1627584438.64684,1627584438.64835,1627584438.67119,1627584438.66351,1627584753.54799,0
32,4,2,3,17,1,3,c3_HowFace,1,smiling?,118,F_759.jpg,1627584146.30602,1627584146.30811,289.680856933594,10.1511149406433,299.851328840256,301.935441246033,2.08411240577698,302.085497369766,1.71730995178223,NaN,0,NA,0,303.802807321548,604.481969585419,607.241969585419,1627584438.74688,1627584438.74865,1627584448.91735,1627584448.91943,1627584451.00146,1627584451.15152,1627584451.1546,NaN,1627584452.86883,1627584753.54799,0
32,4,2,3,17,2,3,c3_HowFace,2,smiling?,114,F_412.jpg,1627584146.30602,1627584146.30811,289.680856933594,10.1511149406433,299.851328840256,301.935441246033,0.3,304.119593133926,1.71730875968933,NaN,0,NA,0,305.836901893616,604.481969585419,607.241969585419,1627584438.74688,1627584438.74865,1627584448.91735,1627584448.91943,1627584451.00146,1627584453.18561,1627584453.18733,NaN,1627584454.90292,1627584753.54799,0
32,4,2,3,17,3,3,c3_HowFace,1,smiling?,117,F_593.jpg,1627584146.30602,1627584146.30811,289.680856933594,10.1511149406433,299.851328840256,301.935441246033,0.3,306.153686990738,1.71730947494507,NaN,0,NA,0,307.870996465683,604.481969585419,607.241969585419,1627584438.74688,1627584438.74865,1627584448.91735,1627584448.91943,1627584451.00146,1627584455.21971,1627584455.22121,NaN,1627584456.93702,1627584753.54799,0
32,4,2,3,17,4,3,c3_HowFace,2,smiling?,113,F_712.jpg,1627584146.30602,1627584146.30811,289.680856933594,10.1511149406433,299.851328840256,301.935441246033,0.3,308.187781085968,1.71730995178223,NaN,0,NA,0,309.90509103775,604.481969585419,607.241969585419,1627584438.74688,1627584438.74865,1627584448.91735,1627584448.91943,1627584451.00146,1627584457.2538,1627584457.25549,NaN,1627584458.97111,1627584753.54799,0
32,4,2,3,17,5,3,c3_HowFace,1,smiling?,115,F_695.jpg,1627584146.30602,1627584146.30811,289.680856933594,10.1511149406433,299.851328840256,301.935441246033,0.3,310.221874704361,1.71730923652649,NaN,0,NA,0,311.939183940887,604.481969585419,607.241969585419,1627584438.74688,1627584438.74865,1627584448.91735,1627584448.91943,1627584451.00146,1627584459.28789,1627584459.28881,NaN,1627584461.0052,1627584753.54799,0
32,4,2,3,17,6,3,c3_HowFace,1,smiling?,119,F_139.jpg,1627584146.30602,1627584146.30811,289.680856933594,10.1511149406433,299.851328840256,301.935441246033,0.3,312.255969514847,0.733608484268188,312.990678062439,1,left,0.714998006820679,312.989577999115,604.481969585419,607.241969585419,1627584438.74688,1627584438.74865,1627584448.91735,1627584448.91943,1627584451.00146,1627584461.32199,1627584461.32359,1627584462.0567,1627584462.0556,1627584753.54799,1
32,4,2,3,17,7,3,c3_HowFace,1,smiling?,116,F_083.jpg,1627584146.30602,1627584146.30811,289.680856933594,10.1511149406433,299.851328840256,301.935441246033,0.3,313.306363334656,0.483514070510864,313.804872980118,1,left,0.475990056991577,313.789877405167,604.481969585419,607.241969585419,1627584438.74688,1627584438.74865,1627584448.91735,1627584448.91943,1627584451.00146,1627584462.37238,1627584462.37407,1627584462.87089,1627584462.8559,1627584753.54799,1
32,4,2,3,17,8,3,c3_HowFace,2,smiling?,120,F_758.jpg,1627584146.30602,1627584146.30811,289.680856933594,10.1511149406433,299.851328840256,301.935441246033,0.3,314.10666226387,0.783627033233643,314.891820898056,3,right,0.762952089309692,314.890289297104,604.481969585419,607.241969585419,1627584438.74688,1627584438.74865,1627584448.91735,1627584448.91943,1627584451.00146,1627584463.17268,1627584463.17481,1627584463.95784,1627584463.95631,1627584753.54799,0
32,4,2,3,18,1,1,c1_WhyFace,1,admiring?,1,F_593.jpg,1627584146.30602,1627584146.30811,314.956979026794,2.66499805450439,317.641318311691,319.725430717468,2.08411240577698,319.875486602783,0.816973209381104,320.694251050949,1,left,0.785446882247925,320.692459812164,604.481969585419,607.241969585419,1627584464.023,1627584464.02464,1627584466.70734,1627584466.70999,1627584468.79145,1627584468.94151,1627584468.95477,1627584469.76027,1627584469.75848,1627584753.54799,1
32,4,2,3,18,2,1,c1_WhyFace,2,admiring?,2,F_129.jpg,1627584146.30602,1627584146.30811,314.956979026794,2.66499805450439,317.641318311691,319.725430717468,0.3,321.009244432449,1.00037431716919,322.0218338871,3,right,0.986467838287354,322.009618749619,604.481969585419,607.241969585419,1627584464.023,1627584464.02464,1627584466.70734,1627584466.70999,1627584468.79145,1627584470.07526,1627584470.07662,1627584471.08785,1627584471.07564,1627584753.54799,0
32,4,2,3,18,3,1,c1_WhyFace,1,admiring?,5,F_759.jpg,1627584146.30602,1627584146.30811,314.956979026794,2.66499805450439,317.641318311691,319.725430717468,0.3,322.326403608322,0.616897583007812,322.954928865433,1,left,0.607599973678589,322.94330119133,604.481969585419,607.241969585419,1627584464.023,1627584464.02464,1627584466.70734,1627584466.70999,1627584468.79145,1627584471.39242,1627584471.39444,1627584472.02095,1627584472.00932,1627584753.54799,1
32,4,2,3,18,4,1,c1_WhyFace,2,admiring?,6,F_692.jpg,1627584146.30602,1627584146.30811,314.956979026794,2.66499805450439,317.641318311691,319.725430717468,0.3,323.260087242126,0.633570671081543,323.8954210186,3,right,0.615170001983643,323.893657913208,604.481969585419,607.241969585419,1627584464.023,1627584464.02464,1627584466.70734,1627584466.70999,1627584468.79145,1627584472.32611,1627584472.32797,1627584472.96144,1627584472.95968,1627584753.54799,0
32,4,2,3,18,5,1,c1_WhyFace,1,admiring?,4,F_779.jpg,1627584146.30602,1627584146.30811,314.956979026794,2.66499805450439,317.641318311691,319.725430717468,0.3,324.210441579819,0.566879034042358,324.778512945175,1,left,0.546638965606689,324.777320613861,604.481969585419,607.241969585419,1627584464.023,1627584464.02464,1627584466.70734,1627584466.70999,1627584468.79145,1627584473.27646,1627584473.27807,1627584473.84453,1627584473.84334,1627584753.54799,1
32,4,2,3,18,6,1,c1_WhyFace,1,admiring?,8,F_590.jpg,1627584146.30602,1627584146.30811,314.956979026794,2.66499805450439,317.641318311691,319.725430717468,0.3,325.094107141495,0.516860008239746,325.612169017792,1,left,0.502002000808716,325.610967149735,604.481969585419,607.241969585419,1627584464.023,1627584464.02464,1627584466.70734,1627584466.70999,1627584468.79145,1627584474.16013,1627584474.16223,1627584474.67819,1627584474.67699,1627584753.54799,1
32,4,2,3,18,7,1,c1_WhyFace,1,admiring?,7,F_648.jpg,1627584146.30602,1627584146.30811,314.956979026794,2.66499805450439,317.641318311691,319.725430717468,0.3,325.927752246857,0.716933250427246,326.645689954758,1,left,0.70083212852478,326.644685497284,604.481969585419,607.241969585419,1627584464.023,1627584464.02464,1627584466.70734,1627584466.70999,1627584468.79145,1627584474.99377,1627584474.99539,1627584475.71171,1627584475.71071,1627584753.54799,1
32,4,2,3,18,8,1,c1_WhyFace,2,admiring?,3,F_110.jpg,1627584146.30602,1627584146.30811,314.956979026794,2.66499805450439,317.641318311691,319.725430717468,0.3,326.961472263336,0.583551645278931,327.555061092377,3,right,0.573228120803833,327.545023908615,604.481969585419,607.241969585419,1627584464.023,1627584464.02464,1627584466.70734,1627584466.70999,1627584468.79145,1627584476.02749,1627584476.02931,1627584476.62108,1627584476.61104,1627584753.54799,0
32,4,2,3,19,1,2,c2_WhyHand,1,competing?,9,H_261.jpg,1627584146.30602,1627584146.30811,327.628387203217,7.88360071182251,335.531344881058,337.61545800209,2.08411312103271,337.765513887405,0.950356483459473,338.721150865555,1,left,0.930451154708862,338.715870370865,604.481969585419,607.241969585419,1627584476.69441,1627584476.69611,1627584484.59736,1627584484.5997,1627584486.68148,1627584486.83153,1627584486.83778,1627584487.78717,1627584487.78189,1627584753.54799,1
32,4,2,3,19,2,2,c2_WhyHand,1,competing?,15,H_170.jpg,1627584146.30602,1627584146.30811,327.628387203217,7.88360071182251,335.531344881058,337.61545800209,0.3,339.03265499115,0.516860008239746,339.554424037933,1,left,0.50636887550354,339.54951499939,604.481969585419,607.241969585419,1627584476.69441,1627584476.69611,1627584484.59736,1627584484.5997,1627584486.68148,1627584488.09868,1627584488.10037,1627584488.62044,1627584488.61554,1627584753.54799,1
32,4,2,3,19,3,2,c2_WhyHand,2,competing?,12,H_483.jpg,1627584146.30602,1627584146.30811,327.628387203217,7.88360071182251,335.531344881058,337.61545800209,0.3,339.866300096512,0.516859769821167,340.384304990768,1,left,0.495711088180542,340.383159866333,604.481969585419,607.241969585419,1627584476.69441,1627584476.69611,1627584484.59736,1627584484.5997,1627584486.68148,1627584488.93232,1627584488.93391,1627584489.45033,1627584489.44918,1627584753.54799,0
32,4,2,3,19,4,2,c2_WhyHand,1,competing?,14,H_132.jpg,1627584146.30602,1627584146.30811,327.628387203217,7.88360071182251,335.531344881058,337.61545800209,0.3,340.699945440292,0.650241136550903,341.354472866058,1,left,0.639492034912109,341.350186576843,604.481969585419,607.241969585419,1627584476.69441,1627584476.69611,1627584484.59736,1627584484.5997,1627584486.68148,1627584489.76597,1627584489.76785,1627584490.42049,1627584490.41621,1627584753.54799,1
32,4,2,3,19,5,2,c2_WhyHand,1,competing?,16,H_136.jpg,1627584146.30602,1627584146.30811,327.628387203217,7.88360071182251,335.531344881058,337.61545800209,0.3,341.666974058151,0.850318193435669,342.521111001968,1,left,0.834241151809692,342.517292251587,604.481969585419,607.241969585419,1627584476.69441,1627584476.69611,1627584484.59736,1627584484.5997,1627584486.68148,1627584490.73299,1627584490.73793,1627584491.58713,1627584491.58331,1627584753.54799,1
32,4,2,3,19,6,2,c2_WhyHand,1,competing?,13,H_003.jpg,1627584146.30602,1627584146.30811,327.628387203217,7.88360071182251,335.531344881058,337.61545800209,0.3,342.834076871872,1.71730923652649,NaN,0,NA,0,344.551386108398,604.481969585419,607.241969585419,1627584476.69441,1627584476.69611,1627584484.59736,1627584484.5997,1627584486.68148,1627584491.9001,1627584491.90413,NaN,1627584493.61741,1627584753.54799,0
32,4,2,3,19,7,2,c2_WhyHand,2,competing?,10,H_126.jpg,1627584146.30602,1627584146.30811,327.628387203217,7.88360071182251,335.531344881058,337.61545800209,0.3,344.868170728683,1.71730899810791,NaN,0,NA,0,346.585479726791,604.481969585419,607.241969585419,1627584476.69441,1627584476.69611,1627584484.59736,1627584484.5997,1627584486.68148,1627584493.93419,1627584493.93805,NaN,1627584495.6515,1627584753.54799,0
32,4,2,3,19,8,2,c2_WhyHand,2,competing?,11,H_502.jpg,1627584146.30602,1627584146.30811,327.628387203217,7.88360071182251,335.531344881058,337.61545800209,0.3,346.902265539169,1.71730971336365,NaN,0,NA,0,348.619575252533,604.481969585419,607.241969585419,1627584476.69441,1627584476.69611,1627584484.59736,1627584484.5997,1627584486.68148,1627584495.96829,1627584495.97127,NaN,1627584497.6856,1627584753.54799,0
32,4,2,3,20,1,4,c4_HowHand,1,reaching?,111,H_003.jpg,1627584146.30602,1627584146.30811,348.953032722473,8.03893518447876,357.006045570374,359.106831541061,2.10078597068787,359.256887426376,1.71730923652649,NaN,0,NA,0,360.974196662903,604.481969585419,607.241969585419,1627584498.01905,1627584498.02084,1627584506.07207,1627584506.07405,1627584508.17285,1627584508.32291,1627584508.32477,NaN,1627584510.04022,1627584753.54799,0
32,4,2,3,20,2,4,c4_HowHand,1,reaching?,110,H_364.jpg,1627584146.30602,1627584146.30811,348.953032722473,8.03893518447876,357.006045570374,359.106831541061,0.3,361.290981998444,0.600226879119873,361.892678012848,1,left,0.58087682723999,361.891208877563,604.481969585419,607.241969585419,1627584498.01905,1627584498.02084,1627584506.07207,1627584506.07405,1627584508.17285,1627584510.357,1627584510.35803,1627584510.9587,1627584510.95723,1627584753.54799,1
32,4,2,3,20,3,4,c4_HowHand,2,reaching?,108,H_532.jpg,1627584146.30602,1627584146.30811,348.953032722473,8.03893518447876,357.006045570374,359.106831541061,0.3,362.207991828918,1.03371953964233,363.255002965927,3,right,1.02327489852905,363.241711368561,604.481969585419,607.241969585419,1627584498.01905,1627584498.02084,1627584506.07207,1627584506.07405,1627584508.17285,1627584511.27401,1627584511.27578,1627584512.32102,1627584512.30773,1627584753.54799,0
32,4,2,3,20,4,4,c4_HowHand,1,reaching?,106,H_006.jpg,1627584146.30602,1627584146.30811,348.953032722473,8.03893518447876,357.006045570374,359.106831541061,0.3,363.558496704102,0.716934680938721,364.277220954895,1,left,0.701637029647827,364.27543138504,604.481969585419,607.241969585419,1627584498.01905,1627584498.02084,1627584506.07207,1627584506.07405,1627584508.17285,1627584512.62452,1627584512.62641,1627584513.34324,1627584513.34145,1627584753.54799,1
32,4,2,3,20,5,4,c4_HowHand,2,reaching?,105,H_438.jpg,1627584146.30602,1627584146.30811,348.953032722473,8.03893518447876,357.006045570374,359.106831541061,0.3,364.592218151093,0.566878080368042,365.171807041168,1,left,0.55777907371521,365.159096231461,604.481969585419,607.241969585419,1627584498.01905,1627584498.02084,1627584506.07207,1627584506.07405,1627584508.17285,1627584513.65824,1627584513.66011,1627584514.23783,1627584514.22512,1627584753.54799,0
32,4,2,3,20,6,4,c4_HowHand,1,reaching?,107,H_007.jpg,1627584146.30602,1627584146.30811,348.953032722473,8.03893518447876,357.006045570374,359.106831541061,0.3,365.475881090164,0.783626556396484,366.261055936813,1,left,0.767739772796631,366.259507646561,604.481969585419,607.241969585419,1627584498.01905,1627584498.02084,1627584506.07207,1627584506.07405,1627584508.17285,1627584514.5419,1627584514.5437,1627584515.32708,1627584515.32553,1627584753.54799,1
32,4,2,3,20,7,4,c4_HowHand,1,reaching?,109,H_474.jpg,1627584146.30602,1627584146.30811,348.953032722473,8.03893518447876,357.006045570374,359.106831541061,0.3,366.576292505264,0.666916131973267,367.254793872833,1,left,0.654913187026978,367.243208637238,604.481969585419,607.241969585419,1627584498.01905,1627584498.02084,1627584506.07207,1627584506.07405,1627584508.17285,1627584515.64231,1627584515.6443,1627584516.32081,1627584516.30923,1627584753.54799,1
32,4,2,3,20,8,4,c4_HowHand,2,reaching?,112,H_132.jpg,1627584146.30602,1627584146.30811,348.953032722473,8.03893518447876,357.006045570374,359.106831541061,0.3,367.559993972778,1.08373928070068,368.644805898666,3,right,1.06327319145203,368.643733253479,604.481969585419,607.241969585419,1627584498.01905,1627584498.02084,1627584506.07207,1627584506.07405,1627584508.17285,1627584516.62601,1627584516.62766,1627584517.71083,1627584517.70975,1627584753.54799,0
32,4,2,3,21,1,3,c3_HowFace,1,open mouth?,73,F_403.jpg,1627584146.30602,1627584146.30811,368.727098455429,6.10488653182983,374.846053352356,376.946840276718,2.10078692436218,377.096895923615,0.566878795623779,377.672221889496,1,left,0.551717042922974,377.663774719238,604.481969585419,607.241969585419,1627584517.79312,1627584517.79469,1627584523.91207,1627584523.91364,1627584526.01286,1627584526.16292,1627584526.16443,1627584526.73824,1627584526.72979,1627584753.54799,1
32,4,2,3,21,2,3,c3_HowFace,2,open mouth?,79,F_648.jpg,1627584146.30602,1627584146.30811,368.727098455429,6.10488653182983,374.846053352356,376.946840276718,0.3,377.98055981636,0.750280857086182,378.737788906097,3,right,0.732851028442383,378.730840673447,604.481969585419,607.241969585419,1627584517.79312,1627584517.79469,1627584523.91207,1627584523.91364,1627584526.01286,1627584527.04658,1627584527.0485,1627584527.80381,1627584527.79686,1627584753.54799,0
32,4,2,3,21,3,3,c3_HowFace,1,open mouth?,74,F_776.jpg,1627584146.30602,1627584146.30811,368.727098455429,6.10488653182983,374.846053352356,376.946840276718,0.3,379.047626247406,0.483513832092285,379.532907953262,1,left,0.461677074432373,379.531140079498,604.481969585419,607.241969585419,1627584517.79312,1627584517.79469,1627584523.91207,1627584523.91364,1627584526.01286,1627584528.11365,1627584528.11541,1627584528.59893,1627584528.59716,1627584753.54799,1
32,4,2,3,21,4,3,c3_HowFace,2,open mouth?,77,F_584.jpg,1627584146.30602,1627584146.30811,368.727098455429,6.10488653182983,374.846053352356,376.946840276718,0.3,379.84792517662,0.550206184387207,380.399203052521,3,right,0.530121088027954,380.398131361008,604.481969585419,607.241969585419,1627584517.79312,1627584517.79469,1627584523.91207,1627584523.91364,1627584526.01286,1627584528.91395,1627584528.91565,1627584529.46522,1627584529.46415,1627584753.54799,0
32,4,2,3,21,5,3,c3_HowFace,1,open mouth?,80,F_844.jpg,1627584146.30602,1627584146.30811,368.727098455429,6.10488653182983,374.846053352356,376.946840276718,0.3,380.714917411804,0.500186443328857,381.221190919876,1,left,0.486591100692749,381.215103855133,604.481969585419,607.241969585419,1627584517.79312,1627584517.79469,1627584523.91207,1627584523.91364,1627584526.01286,1627584529.78094,1627584529.7828,1627584530.28721,1627584530.28112,1627584753.54799,1
32,4,2,3,21,6,3,c3_HowFace,1,open mouth?,78,F_692.jpg,1627584146.30602,1627584146.30811,368.727098455429,6.10488653182983,374.846053352356,376.946840276718,0.3,381.531888475418,0.500187158584595,382.037795057297,1,left,0.482757091522217,382.032075634003,604.481969585419,607.241969585419,1627584517.79312,1627584517.79469,1627584523.91207,1627584523.91364,1627584526.01286,1627584530.59791,1627584530.59941,1627584531.10382,1627584531.0981,1627584753.54799,1
32,4,2,3,21,7,3,c3_HowFace,1,open mouth?,75,F_086.jpg,1627584146.30602,1627584146.30811,368.727098455429,6.10488653182983,374.846053352356,376.946840276718,0.3,382.348860969543,0.500187158584595,382.850462903976,1,left,0.480998039245605,382.849048128128,604.481969585419,607.241969585419,1627584517.79312,1627584517.79469,1627584523.91207,1627584523.91364,1627584526.01286,1627584531.41488,1627584531.41642,1627584531.91648,1627584531.91507,1627584753.54799,1
32,4,2,3,21,8,3,c3_HowFace,2,open mouth?,76,F_544.jpg,1627584146.30602,1627584146.30811,368.727098455429,6.10488653182983,374.846053352356,376.946840276718,0.3,383.165832986832,0.650243997573853,383.817413082123,3,right,0.630194902420044,383.816076984406,604.481969585419,607.241969585419,1627584517.79312,1627584517.79469,1627584523.91207,1627584523.91364,1627584526.01286,1627584532.23185,1627584532.23347,1627584532.88343,1627584532.8821,1627584753.54799,0
32,4,2,3,22,1,1,c1_WhyFace,1,argument?,42,F_403.jpg,1627584146.30602,1627584146.30811,383.899440755844,9.60846018791199,393.519707193375,395.620492448807,2.10078525543213,395.770549049377,0.516859769821167,396.288408031464,1,left,0.495599031448364,396.287408819199,604.481969585419,607.241969585419,1627584532.96546,1627584532.96714,1627584542.58573,1627584542.58752,1627584544.68651,1627584544.83657,1627584544.83814,1627584545.35443,1627584545.35343,1627584753.54799,1
32,4,2,3,22,2,1,c1_WhyFace,2,argument?,46,F_844.jpg,1627584146.30602,1627584146.30811,383.899440755844,9.60846018791199,393.519707193375,395.620492448807,0.3,396.604194393158,0.733607530593872,397.338826885223,3,right,0.714800119400024,397.337801923752,604.481969585419,607.241969585419,1627584532.96546,1627584532.96714,1627584542.58573,1627584542.58752,1627584544.68651,1627584545.67021,1627584545.6718,1627584546.40485,1627584546.40382,1627584753.54799,0
32,4,2,3,22,3,1,c1_WhyFace,1,argument?,41,F_712.jpg,1627584146.30602,1627584146.30811,383.899440755844,9.60846018791199,393.519707193375,395.620492448807,0.3,397.654587974548,0.600224256515503,398.255740871429,1,left,0.592197895050049,398.254812231064,604.481969585419,607.241969585419,1627584532.96546,1627584532.96714,1627584542.58573,1627584542.58752,1627584544.68651,1627584546.72061,1627584546.72205,1627584547.32176,1627584547.32083,1627584753.54799,1
32,4,2,3,22,4,1,c1_WhyFace,1,argument?,48,F_758.jpg,1627584146.30602,1627584146.30811,383.899440755844,9.60846018791199,393.519707193375,395.620492448807,0.3,398.571596136093,0.750281810760498,399.323412885666,3,right,0.737914085388184,399.321877946854,604.481969585419,607.241969585419,1627584532.96546,1627584532.96714,1627584542.58573,1627584542.58752,1627584544.68651,1627584547.63762,1627584547.63933,1627584548.38943,1627584548.3879,1627584753.54799,0
32,4,2,3,22,5,1,c1_WhyFace,2,argument?,45,F_433.jpg,1627584146.30602,1627584146.30811,383.899440755844,9.60846018791199,393.519707193375,395.620492448807,0.3,399.638662805557,0.800299167633057,400.440116872787,3,right,0.783720970153809,400.43896197319,604.481969585419,607.241969585419,1627584532.96546,1627584532.96714,1627584542.58573,1627584542.58752,1627584544.68651,1627584548.70468,1627584548.70636,1627584549.50614,1627584549.50498,1627584753.54799,0
32,4,2,3,22,6,1,c1_WhyFace,1,argument?,43,F_716.jpg,1627584146.30602,1627584146.30811,383.899440755844,9.60846018791199,393.519707193375,395.620492448807,0.3,400.755748262405,0.716934680938721,401.473798027039,3,right,0.698724985122681,401.472682943344,604.481969585419,607.241969585419,1627584532.96546,1627584532.96714,1627584542.58573,1627584542.58752,1627584544.68651,1627584549.82177,1627584549.82335,1627584550.53982,1627584550.5387,1627584753.54799,0
32,4,2,3,22,7,1,c1_WhyFace,2,argument?,44,F_139.jpg,1627584146.30602,1627584146.30811,383.899440755844,9.60846018791199,393.519707193375,395.620492448807,0.3,401.789468278885,0.800298452377319,402.591266860962,3,right,0.779814958572388,402.589766731262,604.481969585419,607.241969585419,1627584532.96546,1627584532.96714,1627584542.58573,1627584542.58752,1627584544.68651,1627584550.85549,1627584550.85713,1627584551.65729,1627584551.65579,1627584753.54799,0
32,4,2,3,22,8,1,c1_WhyFace,1,argument?,47,F_743.jpg,1627584146.30602,1627584146.30811,383.899440755844,9.60846018791199,393.519707193375,395.620492448807,0.3,402.906553258896,0.583550214767456,403.492014875412,1,left,0.567691802978516,403.490103473663,604.481969585419,607.241969585419,1627584532.96546,1627584532.96714,1627584542.58573,1627584542.58752,1627584544.68651,1627584551.97257,1627584551.97434,1627584552.55803,1627584552.55612,1627584753.54799,1
32,4,2,3,23,1,2,c2_WhyHand,1,helping?,39,H_024.jpg,1627584146.30602,1627584146.30811,403.573468198776,8.15445375442505,411.743192186356,413.843977918625,2.10078573226929,413.99403380394,1.11708474159241,415.112686862946,1,left,1.09494686126709,415.111118545532,604.481969585419,607.241969585419,1627584552.63949,1627584552.64116,1627584560.80921,1627584560.81126,1627584562.91,1627584563.06005,1627584563.06245,1627584564.17871,1627584564.17714,1627584753.54799,1
32,4,2,3,23,2,2,c2_WhyHand,1,helping?,36,H_349.jpg,1627584146.30602,1627584146.30811,403.573468198776,8.15445375442505,411.743192186356,413.843977918625,0.3,415.427904119492,0.616897106170654,416.046309938431,1,left,0.600664138793945,416.044801225662,604.481969585419,607.241969585419,1627584552.63949,1627584552.64116,1627584560.80921,1627584560.81126,1627584562.91,1627584564.49392,1627584564.49588,1627584565.11233,1627584565.11082,1627584753.54799,1
32,4,2,3,23,3,2,c2_WhyHand,1,helping?,38,H_077.jpg,1627584146.30602,1627584146.30811,403.573468198776,8.15445375442505,411.743192186356,413.843977918625,0.3,416.361586799622,0.600224018096924,416.971240987778,1,left,0.587465047836304,416.961810817719,604.481969585419,607.241969585419,1627584552.63949,1627584552.64116,1627584560.80921,1627584560.81126,1627584562.91,1627584565.42761,1627584565.42934,1627584566.03726,1627584566.02783,1627584753.54799,1
32,4,2,3,23,4,2,c2_WhyHand,1,helping?,37,H_474.jpg,1627584146.30602,1627584146.30811,403.573468198776,8.15445375442505,411.743192186356,413.843977918625,0.3,417.278596153259,0.816972255706787,418.097251882553,1,left,0.798996925354004,418.095568408966,604.481969585419,607.241969585419,1627584552.63949,1627584552.64116,1627584560.80921,1627584560.81126,1627584562.91,1627584566.34462,1627584566.34655,1627584567.16327,1627584567.16159,1627584753.54799,1
32,4,2,3,23,5,2,c2_WhyHand,2,helping?,33,H_091.jpg,1627584146.30602,1627584146.30811,403.573468198776,8.15445375442505,411.743192186356,413.843977918625,0.3,418.412353506088,1.21712279319763,419.638220062256,3,right,1.20759177207947,419.629476299286,604.481969585419,607.241969585419,1627584552.63949,1627584552.64116,1627584560.80921,1627584560.81126,1627584562.91,1627584567.47837,1627584567.48015,1627584568.70424,1627584568.6955,1627584753.54799,0
32,4,2,3,23,6,2,c2_WhyHand,2,helping?,35,H_159.jpg,1627584146.30602,1627584146.30811,403.573468198776,8.15445375442505,411.743192186356,413.843977918625,0.3,419.946263542175,1.1170825958252,421.071343889236,3,right,1.10846304893494,421.063346138,604.481969585419,607.241969585419,1627584552.63949,1627584552.64116,1627584560.80921,1627584560.81126,1627584562.91,1627584569.01228,1627584569.01378,1627584570.13736,1627584570.12937,1627584753.54799,0
32,4,2,3,23,7,2,c2_WhyHand,1,helping?,34,H_111.jpg,1627584146.30602,1627584146.30811,403.573468198776,8.15445375442505,411.743192186356,413.843977918625,0.3,421.380130519867,1.53390741348267,422.921190013886,1,left,1.52507400512695,422.91403793335,604.481969585419,607.241969585419,1627584552.63949,1627584552.64116,1627584560.80921,1627584560.81126,1627584562.91,1627584570.44615,1627584570.44824,1627584571.98721,1627584571.98006,1627584753.54799,1
32,4,2,3,23,8,2,c2_WhyHand,2,helping?,40,H_012.jpg,1627584146.30602,1627584146.30811,403.573468198776,8.15445375442505,411.743192186356,413.843977918625,0.3,423.23082326889,1.26714110374451,424.504967918396,3,right,1.25476002693176,424.497964372635,604.481969585419,607.241969585419,1627584552.63949,1627584552.64116,1627584560.80921,1627584560.81126,1627584562.91,1627584572.29684,1627584572.29836,1627584573.57099,1627584573.56398,1627584753.54799,0
32,4,2,3,24,1,4,c4_HowHand,1,both hands?,122,H_111.jpg,1627584146.30602,1627584146.30811,424.581328620911,5.21671724319458,429.816620578766,431.900733699799,2.08411312103271,432.050790300369,0.783625364303589,432.837898006439,1,left,0.76292896270752,432.834415664673,604.481969585419,607.241969585419,1627584573.64735,1627584573.65465,1627584578.88264,1627584578.8844,1627584580.96675,1627584581.11681,1627584581.12146,1627584581.90392,1627584581.90044,1627584753.54799,1
32,4,2,3,24,2,4,c4_HowHand,1,both hands?,128,H_027.jpg,1627584146.30602,1627584146.30811,424.581328620911,5.21671724319458,429.816620578766,431.900733699799,0.3,433.151202430725,0.883662462234497,434.037875881195,1,left,0.866623163223267,434.03486489296,604.481969585419,607.241969585419,1627584573.64735,1627584573.65465,1627584578.88264,1627584578.8844,1627584580.96675,1627584582.21722,1627584582.22095,1627584583.1039,1627584583.10088,1627584753.54799,1
32,4,2,3,24,3,4,c4_HowHand,2,both hands?,121,H_091.jpg,1627584146.30602,1627584146.30811,424.581328620911,5.21671724319458,429.816620578766,431.900733699799,0.3,434.351650705338,1.40052390098572,435.754990091324,3,right,1.38193106651306,435.752174606323,604.481969585419,607.241969585419,1627584573.64735,1627584573.65465,1627584578.88264,1627584578.8844,1627584580.96675,1627584583.41767,1627584583.42139,1627584584.82101,1627584584.81819,1627584753.54799,0
32,4,2,3,24,4,4,c4_HowHand,1,both hands?,123,H_167.jpg,1627584146.30602,1627584146.30811,424.581328620911,5.21671724319458,429.816620578766,431.900733699799,0.3,436.068959465027,0.75028133392334,436.821295013428,1,left,0.737709999084473,436.81924079895,604.481969585419,607.241969585419,1627584573.64735,1627584573.65465,1627584578.88264,1627584578.8844,1627584580.96675,1627584585.13498,1627584585.13815,1627584585.88732,1627584585.88526,1627584753.54799,1
32,4,2,3,24,5,4,c4_HowHand,1,both hands?,124,H_581.jpg,1627584146.30602,1627584146.30811,424.581328620911,5.21671724319458,429.816620578766,431.900733699799,0.3,437.13602637291,1.01704668998718,438.154526939392,1,left,1.00220990180969,438.153073062897,604.481969585419,607.241969585419,1627584573.64735,1627584573.65465,1627584578.88264,1627584578.8844,1627584580.96675,1627584586.20205,1627584586.20412,1627584587.22055,1627584587.21909,1627584753.54799,1
32,4,2,3,24,6,4,c4_HowHand,2,both hands?,126,H_159.jpg,1627584146.30602,1627584146.30811,424.581328620911,5.21671724319458,429.816620578766,431.900733699799,0.3,438.469857683182,1.00037407875061,439.471222867966,3,right,0.988669872283936,439.470231761932,604.481969585419,607.241969585419,1627584573.64735,1627584573.65465,1627584578.88264,1627584578.8844,1627584580.96675,1627584587.53588,1627584587.5377,1627584588.53724,1627584588.53625,1627584753.54799,0
32,4,2,3,24,7,4,c4_HowHand,1,both hands?,127,H_349.jpg,1627584146.30602,1627584146.30811,424.581328620911,5.21671724319458,429.816620578766,431.900733699799,0.3,439.787016859055,0.933683395385742,440.721766939163,1,left,0.917744874954224,440.72070025444,604.481969585419,607.241969585419,1627584573.64735,1627584573.65465,1627584578.88264,1627584578.8844,1627584580.96675,1627584588.85304,1627584588.85471,1627584589.78779,1627584589.78672,1627584753.54799,1
32,4,2,3,24,8,4,c4_HowHand,2,both hands?,125,H_627.jpg,1627584146.30602,1627584146.30811,424.581328620911,5.21671724319458,429.816620578766,431.900733699799,0.3,441.037484874725,1.31715989112854,442.355577936172,3,right,1.3070650100708,442.354644765854,604.481969585419,607.241969585419,1627584573.64735,1627584573.65465,1627584578.88264,1627584578.8844,1627584580.96675,1627584590.1035,1627584590.10504,1627584591.4216,1627584591.42066,1627584753.54799,0
32,4,2,3,25,1,2,c2_WhyHand,1,healthy?,18,H_438.jpg,1627584146.30602,1627584146.30811,442.438008775711,4.87687826156616,447.323169698715,449.42395614624,2.10078644752502,449.57401298523,1.71730923652649,NaN,0,NA,0,451.291322221756,604.481969585419,607.241969585419,1627584591.50403,1627584591.50493,1627584596.38919,1627584596.39105,1627584598.48998,1627584598.64003,1627584598.64145,NaN,1627584600.35734,1627584753.54799,0
32,4,2,3,25,2,2,c2_WhyHand,1,healthy?,23,H_364.jpg,1627584146.30602,1627584146.30811,442.438008775711,4.87687826156616,447.323169698715,449.42395614624,0.3,451.608106842041,1.71730899810791,NaN,0,NA,0,453.325415840149,604.481969585419,607.241969585419,1627584591.50403,1627584591.50493,1627584596.38919,1627584596.39105,1627584598.48998,1627584600.67413,1627584600.67561,NaN,1627584602.39144,1627584753.54799,0
32,4,2,3,25,3,2,c2_WhyHand,1,healthy?,17,H_362.jpg,1627584146.30602,1627584146.30811,442.438008775711,4.87687826156616,447.323169698715,449.42395614624,0.3,453.642200460434,1.71730971336365,NaN,0,NA,0,455.359510173798,604.481969585419,607.241969585419,1627584591.50403,1627584591.50493,1627584596.38919,1627584596.39105,1627584598.48998,1627584602.70822,1627584602.70932,NaN,1627584604.42553,1627584753.54799,0
32,4,2,3,25,4,2,c2_WhyHand,2,healthy?,24,H_019.jpg,1627584146.30602,1627584146.30811,442.438008775711,4.87687826156616,447.323169698715,449.42395614624,0.3,455.676295986176,1.71730923652649,NaN,0,NA,0,457.393605222702,604.481969585419,607.241969585419,1627584591.50403,1627584591.50493,1627584596.38919,1627584596.39105,1627584598.48998,1627584604.74232,1627584604.74417,NaN,1627584606.45963,1627584753.54799,0
32,4,2,3,25,5,2,c2_WhyHand,1,healthy?,19,H_167.jpg,1627584146.30602,1627584146.30811,442.438008775711,4.87687826156616,447.323169698715,449.42395614624,0.3,457.710390319824,1.31715869903564,459.028630962372,1,left,1.29955101013184,459.02754901886,604.481969585419,607.241969585419,1627584591.50403,1627584591.50493,1627584596.38919,1627584596.39105,1627584598.48998,1627584606.77641,1627584606.7781,1627584608.09465,1627584608.09357,1627584753.54799,1
32,4,2,3,25,6,2,c2_WhyHand,2,healthy?,20,H_007.jpg,1627584146.30602,1627584146.30811,442.438008775711,4.87687826156616,447.323169698715,449.42395614624,0.3,459.344334592819,0.850318670272827,460.195780982971,3,right,0.832412004470825,460.194653263092,604.481969585419,607.241969585419,1627584591.50403,1627584591.50493,1627584596.38919,1627584596.39105,1627584598.48998,1627584608.41035,1627584608.41162,1627584609.2618,1627584609.26067,1627584753.54799,0
32,4,2,3,25,7,2,c2_WhyHand,1,healthy?,21,H_627.jpg,1627584146.30602,1627584146.30811,442.438008775711,4.87687826156616,447.323169698715,449.42395614624,0.3,460.511437883377,0.783627033233643,461.305111875534,1,left,0.774312019348145,461.295064916611,604.481969585419,607.241969585419,1627584591.50403,1627584591.50493,1627584596.38919,1627584596.39105,1627584598.48998,1627584609.57746,1627584609.5792,1627584610.37113,1627584610.36108,1627584753.54799,1
32,4,2,3,25,8,2,c2_WhyHand,2,healthy?,22,H_130.jpg,1627584146.30602,1627584146.30811,442.438008775711,4.87687826156616,447.323169698715,449.42395614624,0.3,461.611848106384,0.68359112739563,462.296712865829,3,right,0.666268110275269,462.29543923378,604.481969585419,607.241969585419,1627584591.50403,1627584591.50493,1627584596.38919,1627584596.39105,1627584598.48998,1627584610.67787,1627584610.67992,1627584611.36273,1627584611.36146,1627584753.54799,0
32,4,2,3,26,1,4,c4_HowHand,1,pressing button?,82,H_126.jpg,1627584146.30602,1627584146.30811,462.378802528381,3.99018049240112,466.380301465988,468.481086006165,2.10078454017639,468.631142606735,0.716935157775879,469.34923409462,1,left,0.69224214553833,469.348077764511,604.481969585419,607.241969585419,1627584611.44482,1627584611.4547,1627584615.44632,1627584615.45499,1627584617.54711,1627584617.69716,1627584617.70488,1627584618.41525,1627584618.4141,1627584753.54799,1
32,4,2,3,26,2,4,c4_HowHand,2,pressing button?,85,H_130.jpg,1627584146.30602,1627584146.30811,462.378802528381,3.99018049240112,466.380301465988,468.481086006165,0.3,469.664862384796,0.766954898834229,470.437916984558,3,right,0.755725145339966,470.43181728363,604.481969585419,607.241969585419,1627584611.44482,1627584611.4547,1627584615.44632,1627584615.45499,1627584617.54711,1627584618.73088,1627584618.73254,1627584619.50394,1627584619.49784,1627584753.54799,0
32,4,2,3,26,3,4,c4_HowHand,1,pressing button?,84,H_483.jpg,1627584146.30602,1627584146.30811,462.378802528381,3.99018049240112,466.380301465988,468.481086006165,0.3,470.748601665497,1.08373808860779,471.838572015762,1,left,1.07613110542297,471.832339754105,604.481969585419,607.241969585419,1627584611.44482,1627584611.4547,1627584615.44632,1627584615.45499,1627584617.54711,1627584619.81462,1627584619.81622,1627584620.90459,1627584620.89836,1627584753.54799,1
32,4,2,3,26,4,4,c4_HowHand,2,pressing button?,87,H_024.jpg,1627584146.30602,1627584146.30811,462.378802528381,3.99018049240112,466.380301465988,468.481086006165,0.3,472.149125804901,0.833645105361938,472.984355916977,3,right,0.810410976409912,472.982770910263,604.481969585419,607.241969585419,1627584611.44482,1627584611.4547,1627584615.44632,1627584615.45499,1627584617.54711,1627584621.21515,1627584621.21693,1627584622.05038,1627584622.04879,1627584753.54799,0
32,4,2,3,26,5,4,c4_HowHand,1,pressing button?,86,H_332.jpg,1627584146.30602,1627584146.30811,462.378802528381,3.99018049240112,466.380301465988,468.481086006165,0.3,473.299556007385,0.600224018096924,473.904593935013,1,left,0.588788986206055,473.899780025482,604.481969585419,607.241969585419,1627584611.44482,1627584611.4547,1627584615.44632,1627584615.45499,1627584617.54711,1627584622.36558,1627584622.36709,1627584622.97061,1627584622.9658,1627584753.54799,1
32,4,2,3,26,6,4,c4_HowHand,1,pressing button?,88,H_019.jpg,1627584146.30602,1627584146.30811,462.378802528381,3.99018049240112,466.380301465988,468.481086006165,0.3,474.21656583786,0.633569955825806,474.855175962448,1,left,0.612433910369873,474.850135793686,604.481969585419,607.241969585419,1627584611.44482,1627584611.4547,1627584615.44632,1627584615.45499,1627584617.54711,1627584623.28259,1627584623.28411,1627584623.9212,1627584623.91616,1627584753.54799,1
32,4,2,3,26,7,4,c4_HowHand,2,pressing button?,81,H_261.jpg,1627584146.30602,1627584146.30811,462.378802528381,3.99018049240112,466.380301465988,468.481086006165,0.3,475.166920890808,0.900336027145386,476.07202290535,3,right,0.880371809005737,476.067256917954,604.481969585419,607.241969585419,1627584611.44482,1627584611.4547,1627584615.44632,1627584615.45499,1627584617.54711,1627584624.23294,1627584624.23817,1627584625.13804,1627584625.13328,1627584753.54799,0
32,4,2,3,26,8,4,c4_HowHand,1,pressing button?,83,H_502.jpg,1627584146.30602,1627584146.30811,462.378802528381,3.99018049240112,466.380301465988,468.481086006165,0.3,476.384043445587,1.13375735282898,477.518887033463,1,left,1.10836505889893,477.517800798416,604.481969585419,607.241969585419,1627584611.44482,1627584611.4547,1627584615.44632,1627584615.45499,1627584617.54711,1627584625.45006,1627584625.45466,1627584626.58491,1627584626.58382,1627584753.54799,1
32,4,2,3,27,1,3,c3_HowFace,1,looking at camera?,60,F_618.jpg,1627584146.30602,1627584146.30811,477.601166000366,6.29771995544434,483.903523435593,486.004308214188,2.10078477859497,486.154367675781,1.01704430580139,487.17287396431,1,left,0.994023084640503,487.171411981583,604.481969585419,607.241969585419,1627584626.66719,1627584626.66877,1627584632.96954,1627584632.97146,1627584635.07033,1627584635.22039,1627584635.22179,1627584636.23889,1627584636.23743,1627584753.54799,1
32,4,2,3,27,2,3,c3_HowFace,2,looking at camera?,58,F_754.jpg,1627584146.30602,1627584146.30811,477.601166000366,6.29771995544434,483.903523435593,486.004308214188,0.3,487.488198032379,0.583549737930298,488.07290886879,3,right,0.568121194839478,488.071747770309,604.481969585419,607.241969585419,1627584626.66719,1627584626.66877,1627584632.96954,1627584632.97146,1627584635.07033,1627584636.55422,1627584636.55607,1627584637.13893,1627584637.13777,1627584753.54799,0
32,4,2,3,27,3,3,c3_HowFace,1,looking at camera?,59,F_129.jpg,1627584146.30602,1627584146.30811,477.601166000366,6.29771995544434,483.903523435593,486.004308214188,0.3,488.388535013199,0.516860008239746,488.90691493988,1,left,0.50255012512207,488.905395021439,604.481969585419,607.241969585419,1627584626.66719,1627584626.66877,1627584632.96954,1627584632.97146,1627584635.07033,1627584637.45456,1627584637.456,1627584637.97293,1627584637.97142,1627584753.54799,1
32,4,2,3,27,4,3,c3_HowFace,1,looking at camera?,62,F_598.jpg,1627584146.30602,1627584146.30811,477.601166000366,6.29771995544434,483.903523435593,486.004308214188,0.3,489.222179403305,0.683588266372681,489.921989908218,1,left,0.676280975341797,489.905767669678,604.481969585419,607.241969585419,1627584626.66719,1627584626.66877,1627584632.96954,1627584632.97146,1627584635.07033,1627584638.2882,1627584638.28995,1627584638.98801,1627584638.97179,1627584753.54799,1
32,4,2,3,27,5,3,c3_HowFace,1,looking at camera?,64,F_128.jpg,1627584146.30602,1627584146.30811,477.601166000366,6.29771995544434,483.903523435593,486.004308214188,0.3,490.222553720474,0.600224733352661,490.82488702774,1,left,0.576164960861206,490.822778453827,604.481969585419,607.241969585419,1627584626.66719,1627584626.66877,1627584632.96954,1627584632.97146,1627584635.07033,1627584639.28857,1627584639.29013,1627584639.89091,1627584639.8888,1627584753.54799,1
32,4,2,3,27,6,3,c3_HowFace,2,looking at camera?,57,F_582.jpg,1627584146.30602,1627584146.30811,477.601166000366,6.29771995544434,483.903523435593,486.004308214188,0.3,491.139564504623,0.950354099273682,492.091500988007,1,left,0.938568830490112,492.089918603897,604.481969585419,607.241969585419,1627584626.66719,1627584626.66877,1627584632.96954,1627584632.97146,1627584635.07033,1627584640.20558,1627584640.20722,1627584641.15752,1627584641.15594,1627584753.54799,0
32,4,2,3,27,7,3,c3_HowFace,1,looking at camera?,61,F_774.jpg,1627584146.30602,1627584146.30811,477.601166000366,6.29771995544434,483.903523435593,486.004308214188,0.3,492.406705131531,1.13375687599182,493.541438093185,3,right,1.12143111228943,493.540462007523,604.481969585419,607.241969585419,1627584626.66719,1627584626.66877,1627584632.96954,1627584632.97146,1627584635.07033,1627584641.47273,1627584641.47456,1627584642.60746,1627584642.60648,1627584753.54799,0
32,4,2,3,27,8,3,c3_HowFace,2,looking at camera?,63,F_743.jpg,1627584146.30602,1627584146.30811,477.601166000366,6.29771995544434,483.903523435593,486.004308214188,0.3,493.857246627808,0.783627271652222,494.654900064468,3,right,0.775907039642334,494.64087389946,604.481969585419,607.241969585419,1627584626.66719,1627584626.66877,1627584632.96954,1627584632.97146,1627584635.07033,1627584642.92327,1627584642.92512,1627584643.72092,1627584643.70689,1627584753.54799,0
32,4,2,3,28,1,1,c1_WhyFace,1,self-doubt?,25,F_798.jpg,1627584146.30602,1627584146.30811,494.757583847046,8.1053991317749,502.877289047241,504.978075494766,2.10078644752502,505.128130426407,1.71730899810791,NaN,0,NA,0,506.845439424515,604.481969585419,607.241969585419,1627584643.8236,1627584643.82504,1627584651.94331,1627584651.94518,1627584654.0441,1627584654.19415,1627584654.19603,NaN,1627584655.91146,1627584753.54799,0
32,4,2,3,28,2,1,c1_WhyFace,2,self-doubt?,27,F_086.jpg,1627584146.30602,1627584146.30811,494.757583847046,8.1053991317749,502.877289047241,504.978075494766,0.3,507.162224283218,1.18377733230591,508.347676029205,1,left,1.16117191314697,508.346001615524,604.481969585419,607.241969585419,1627584643.8236,1627584643.82504,1627584651.94331,1627584651.94518,1627584654.0441,1627584656.22824,1627584656.22966,1627584657.4137,1627584657.41202,1627584753.54799,0
