src_subject_id,session_id,run_id,param_counterbalance_ver,param_block_num,param_trial_num,param_cond_type_num,param_cond_type_string,param_normative_response,param_ques_type_string,param_image_num,param_image_filename,param_trigger_onset,param_start_biopac,event01_fixation,event01_fixation_dur,event01_blockquestion_onset,event01_block_isi_blacksreen,event01_blockquestion_dur,event02_image_onset,event02_image_dur,event03_response_onset,event03_response_key,event03_response_keyname,event03_RT,event04_shortquestion_onset,param_end_instruct_onset,param_experiment_duration,RAW_e1_fixation,RAW_e1_fixation_biopac,RAW_e1_blockquestion_onset,RAW_e1_blockquestion_onset_biopac,RAW_e1_block_isi_blacksreen,RAW_e2_image_onset,RAW_e2_image_onset_biopac,RAW_e3_response_onset,RAW_e4_shortquestion_onset,RAW_param_end_instruct_onset,accuracy
77,4,1,3,1,1,4,c4_HowHand,1,reaching?,107,H_007.jpg,1634862989.09474,1634862989.1072,0.0476288700103757,0.0370821952819824,0.0976469421386716,2.11506675720215,2.01741981506348,2.26512240409851,0.95035457611084,3.22825311660767,1,left,0.926615953445435,3.21547698020935,604.473032464981,607.233032464981,1634862991.90237,1634862991.90852,1634862991.95239,1634862991.95441,1634862993.96981,1634862994.11987,1634862994.12181,1634862995.083,1634862995.07022,1634863596.32778,1
77,4,1,3,1,2,4,c4_HowHand,2,reaching?,108,H_532.jpg,1634862989.09474,1634862989.1072,0.0476288700103757,0.0370821952819824,0.0976469421386716,2.11506675720215,0.3,3.53226160049438,0.967027187347412,4.50074409484863,3,right,0.944150924682617,4.4992887878418,604.473032464981,607.233032464981,1634862991.90237,1634862991.90852,1634862991.95239,1634862991.95441,1634862993.96981,1634862995.38701,1634862995.3887,1634862996.35549,1634862996.35403,1634863596.32778,0
77,4,1,3,1,3,4,c4_HowHand,1,reaching?,109,H_474.jpg,1634862989.09474,1634862989.1072,0.0476288700103757,0.0370821952819824,0.0976469421386716,2.11506675720215,0.3,4.81607245445251,1.16710329055786,5.99451111793518,1,left,1.15606212615967,5.98317574501038,604.473032464981,607.233032464981,1634862991.90237,1634862991.90852,1634862991.95239,1634862991.95441,1634862993.96981,1634862996.67082,1634862996.67206,1634862997.84926,1634862997.83792,1634863596.32778,1
77,4,1,3,1,4,4,c4_HowHand,2,reaching?,105,H_438.jpg,1634862989.09474,1634862989.1072,0.0476288700103757,0.0370821952819824,0.0976469421386716,2.11506675720215,0.3,6.29995988845825,1.10040998458862,7.4022941493988,3,right,1.08224701881409,7.40036987304688,604.473032464981,607.233032464981,1634862991.90237,1634862991.90852,1634862991.95239,1634862991.95441,1634862993.96981,1634862998.1547,1634862998.15647,1634862999.25704,1634862999.25511,1634863596.32778,0
77,4,1,3,1,5,4,c4_HowHand,1,reaching?,110,H_364.jpg,1634862989.09474,1634862989.1072,0.0476288700103757,0.0370821952819824,0.0976469421386716,2.11506675720215,0.3,7.71715592384338,1.06706357002258,8.79638599395752,1,left,1.05108714103699,8.78421949386597,604.473032464981,607.233032464981,1634862991.90237,1634862991.90852,1634862991.95239,1634862991.95441,1634862993.96981,1634862999.5719,1634862999.57449,1634863000.65113,1634863000.63896,1634863596.32778,1
77,4,1,3,1,6,4,c4_HowHand,1,reaching?,106,H_006.jpg,1634862989.09474,1634862989.1072,0.0476288700103757,0.0370821952819824,0.0976469421386716,2.11506675720215,0.3,9.10100506782532,0.900336027145386,10.0106980705261,1,left,0.892467975616455,10.0013410949707,604.473032464981,607.233032464981,1634862991.90237,1634862991.90852,1634862991.95239,1634862991.95441,1634862993.96981,1634863000.95575,1634863000.95727,1634863001.86544,1634863001.85609,1634863596.32778,1
77,4,1,3,1,7,4,c4_HowHand,1,reaching?,111,H_003.jpg,1634862989.09474,1634862989.1072,0.0476288700103757,0.0370821952819824,0.0976469421386716,2.11506675720215,0.3,10.3181259536743,1.00037169456482,11.319626083374,1,left,0.981793880462646,11.3184976482391,604.473032464981,607.233032464981,1634862991.90237,1634862991.90852,1634862991.95239,1634862991.95441,1634862993.96981,1634863002.17287,1634863002.17492,1634863003.17437,1634863003.17324,1634863596.32778,1
77,4,1,3,1,8,4,c4_HowHand,2,reaching?,112,H_132.jpg,1634862989.09474,1634862989.1072,0.0476288700103757,0.0370821952819824,0.0976469421386716,2.11506675720215,0.3,11.6352829837799,1.03371906280518,12.6767821216583,3,right,1.02177405357361,12.6690020465851,604.473032464981,607.233032464981,1634862991.90237,1634862991.90852,1634862991.95239,1634862991.95441,1634862993.96981,1634863003.49003,1634863003.49188,1634863004.53153,1634863004.52375,1634863596.32778,0
77,4,1,3,2,1,2,c2_WhyHand,1,healthy?,21,H_627.jpg,1634862989.09474,1634862989.1072,12.8690769577026,4.66234302520752,17.5374853515625,19.6382677459717,2.10078239440918,19.7883243465424,1.26713848114014,21.0564870738983,1,left,1.24029803276062,21.0554628276825,604.473032464981,607.233032464981,1634863004.72382,1634863004.73297,1634863009.39223,1634863009.39918,1634863011.49301,1634863011.64307,1634863011.64884,1634863012.91123,1634863012.91021,1634863596.32778,1
77,4,1,3,2,2,2,c2_WhyHand,1,healthy?,18,H_438.jpg,1634862989.09474,1634862989.1072,12.8690769577026,4.66234302520752,17.5374853515625,19.6382677459717,0.3,21.3722481632233,1.16710138320923,22.5441660785675,1,left,1.15103101730347,22.5393495464325,604.473032464981,607.233032464981,1634863004.72382,1634863004.73297,1634863009.39223,1634863009.39918,1634863011.49301,1634863013.22699,1634863013.23215,1634863014.39891,1634863014.39409,1634863596.32778,1
77,4,1,3,2,3,2,c2_WhyHand,1,healthy?,23,H_364.jpg,1634862989.09474,1634862989.1072,12.8690769577026,4.66234302520752,17.5374853515625,19.6382677459717,0.3,22.8561346435547,1.68396139144897,24.5434460544586,1,left,1.66023397445679,24.5400960350037,604.473032464981,607.233032464981,1634863004.72382,1634863004.73297,1634863009.39223,1634863009.39918,1634863011.49301,1634863014.71088,1634863014.7152,1634863016.39819,1634863016.39484,1634863596.32778,1
77,4,1,3,2,4,2,c2_WhyHand,2,healthy?,22,H_130.jpg,1634862989.09474,1634862989.1072,12.8690769577026,4.66234302520752,17.5374853515625,19.6382677459717,0.3,24.8568797016144,1.36717677116394,26.2275910282135,3,right,1.35641622543335,26.2240564727783,604.473032464981,607.233032464981,1634863004.72382,1634863004.73297,1634863009.39223,1634863009.39918,1634863011.49301,1634863016.71162,1634863016.71544,1634863018.08234,1634863018.0788,1634863596.32778,0
77,4,1,3,2,5,2,c2_WhyHand,1,healthy?,17,H_362.jpg,1634862989.09474,1634862989.1072,12.8690769577026,4.66234302520752,17.5374853515625,19.6382677459717,0.3,26.5408415699005,1.13375663757324,27.6767921352386,1,left,1.11872410774231,27.6745982074738,604.473032464981,607.233032464981,1634863004.72382,1634863004.73297,1634863009.39223,1634863009.39918,1634863011.49301,1634863018.39559,1634863018.3988,1634863019.53154,1634863019.52934,1634863596.32778,1
77,4,1,3,2,6,2,c2_WhyHand,2,healthy?,20,H_007.jpg,1634862989.09474,1634862989.1072,12.8690769577026,4.66234302520752,17.5374853515625,19.6382677459717,0.3,27.9913833045959,1.33383083343506,29.3274440670013,3,right,1.31353306770325,29.325214138031,604.473032464981,607.233032464981,1634863004.72382,1634863004.73297,1634863009.39223,1634863009.39918,1634863011.49301,1634863019.84613,1634863019.84859,1634863021.18219,1634863021.17996,1634863596.32778,0
77,4,1,3,2,7,2,c2_WhyHand,1,healthy?,19,H_167.jpg,1634862989.09474,1634862989.1072,12.8690769577026,4.66234302520752,17.5374853515625,19.6382677459717,0.3,29.6419975662231,0.900336265563965,30.543295135498,1,left,0.891813993453979,30.5423338317871,604.473032464981,607.233032464981,1634863004.72382,1634863004.73297,1634863009.39223,1634863009.39918,1634863011.49301,1634863021.49674,1634863021.49883,1634863022.39804,1634863022.39708,1634863596.32778,1
77,4,1,3,2,8,2,c2_WhyHand,2,healthy?,24,H_019.jpg,1634862989.09474,1634862989.1072,12.8690769577026,4.66234302520752,17.5374853515625,19.6382677459717,0.3,30.8591194057465,1.26713871955872,32.1279041671753,3,right,1.24402785301208,32.1262581253052,604.473032464981,607.233032464981,1634863004.72382,1634863004.73297,1634863009.39223,1634863009.39918,1634863011.49301,1634863022.71386,1634863022.71562,1634863023.98265,1634863023.981,1634863596.32778,0
77,4,1,3,3,1,1,c1_WhyFace,1,admiring?,4,F_779.jpg,1634862989.09474,1634862989.1072,32.2429675960541,4.39612936973572,36.6446096801758,38.7453932666779,2.10078358650208,38.89544962883,1.01704478263855,39.914201965332,1,left,0.985126972198486,39.9124944114685,604.473032464981,607.233032464981,1634863024.09771,1634863024.09966,1634863028.49935,1634863028.51614,1634863030.60014,1634863030.75019,1634863030.76569,1634863031.76895,1634863031.76724,1634863596.32778,1
77,4,1,3,3,2,1,c1_WhyFace,1,admiring?,1,F_593.jpg,1634862989.09474,1634862989.1072,32.2429675960541,4.39612936973572,36.6446096801758,38.7453932666779,0.3,40.2292799854279,0.950354337692261,41.1807711029053,1,left,0.930232048034668,41.1796343231201,604.473032464981,607.233032464981,1634863024.09771,1634863024.09966,1634863028.49935,1634863028.51614,1634863030.60014,1634863032.08402,1634863032.08563,1634863033.03552,1634863033.03438,1634863596.32778,1
77,4,1,3,3,3,1,c1_WhyFace,2,admiring?,3,F_110.jpg,1634862989.09474,1634862989.1072,32.2429675960541,4.39612936973572,36.6446096801758,38.7453932666779,0.3,41.4964189434052,1.20044779777527,42.6982669734955,3,right,1.17851614952087,42.6968667411804,604.473032464981,607.233032464981,1634863024.09771,1634863024.09966,1634863028.49935,1634863028.51614,1634863030.60014,1634863033.35116,1634863033.35286,1634863034.55301,1634863034.55161,1634863596.32778,0
77,4,1,3,3,4,1,c1_WhyFace,1,admiring?,8,F_590.jpg,1634862989.09474,1634862989.1072,32.2429675960541,4.39612936973572,36.6446096801758,38.7453932666779,0.3,43.013651599884,0.816971778869629,43.8318200016022,1,left,0.802531957626343,43.8306233787537,604.473032464981,607.233032464981,1634863024.09771,1634863024.09966,1634863028.49935,1634863028.51614,1634863030.60014,1634863034.8684,1634863034.87001,1634863035.68656,1634863035.68537,1634863596.32778,1
77,4,1,3,3,5,1,c1_WhyFace,2,admiring?,6,F_692.jpg,1634862989.09474,1634862989.1072,32.2429675960541,4.39612936973572,36.6446096801758,38.7453932666779,0.3,44.1474079990387,1.35050320625305,45.4996471309662,3,right,1.33135795593262,45.4979112052918,604.473032464981,607.233032464981,1634863024.09771,1634863024.09966,1634863028.49935,1634863028.51614,1634863030.60014,1634863036.00215,1634863036.00325,1634863037.35439,1634863037.35266,1634863596.32778,0
77,4,1,3,3,6,1,c1_WhyFace,1,admiring?,5,F_759.jpg,1634862989.09474,1634862989.1072,32.2429675960541,4.39612936973572,36.6446096801758,38.7453932666779,0.3,45.8146960639954,1.01704597473145,46.8440179729462,1,left,1.0042679309845,46.8317420387268,604.473032464981,607.233032464981,1634863024.09771,1634863024.09966,1634863028.49935,1634863028.51614,1634863030.60014,1634863037.66944,1634863037.67132,1634863038.69876,1634863038.68649,1634863596.32778,1
77,4,1,3,3,7,1,c1_WhyFace,1,admiring?,7,F_648.jpg,1634862989.09474,1634862989.1072,32.2429675960541,4.39612936973572,36.6446096801758,38.7453932666779,0.3,47.1485266590118,1.03371930122375,48.1833031082153,1,left,1.01323795318604,48.1822459602356,604.473032464981,607.233032464981,1634863024.09771,1634863024.09966,1634863028.49935,1634863028.51614,1634863030.60014,1634863039.00327,1634863039.00497,1634863040.03805,1634863040.03699,1634863596.32778,1
77,4,1,3,3,8,1,c1_WhyFace,2,admiring?,2,F_129.jpg,1634862989.09474,1634862989.1072,32.2429675960541,4.39612936973572,36.6446096801758,38.7453932666779,0.3,48.4990308189392,1.13375616073608,49.6434900665283,3,right,1.12325000762939,49.6327869796753,604.473032464981,607.233032464981,1634863024.09771,1634863024.09966,1634863028.49935,1634863028.51614,1634863030.60014,1634863040.35378,1634863040.35554,1634863041.49823,1634863041.48753,1634863596.32778,0
77,4,1,3,4,1,3,c3_HowFace,1,smiling?,119,F_139.jpg,1634862989.09474,1634862989.1072,49.7328243160248,5.87076187133789,55.6183521652222,57.7191352748871,2.10078310966492,57.8691916370392,0.783625602722168,58.6539921665192,1,left,0.764412879943848,58.6528172397614,604.473032464981,607.233032464981,1634863041.58757,1634863041.59902,1634863047.4731,1634863047.47519,1634863049.57388,1634863049.72394,1634863049.72593,1634863050.50874,1634863050.50756,1634863596.32778,1
77,4,1,3,4,2,3,c3_HowFace,2,smiling?,113,F_712.jpg,1634862989.09474,1634862989.1072,49.7328243160248,5.87076187133789,55.6183521652222,57.7191352748871,0.3,58.9696016216278,0.80029821395874,59.7710490131378,3,right,0.780333995819092,59.7698998355865,604.473032464981,607.233032464981,1634863041.58757,1634863041.59902,1634863047.4731,1634863047.47519,1634863049.57388,1634863050.82435,1634863050.82583,1634863051.62579,1634863051.62464,1634863596.32778,0
77,4,1,3,4,3,3,c3_HowFace,1,smiling?,115,F_695.jpg,1634862989.09474,1634862989.1072,49.7328243160248,5.87076187133789,55.6183521652222,57.7191352748871,0.3,60.0866849327087,0.866989850997925,60.9601051712036,1,left,0.858480930328369,60.9536747837067,604.473032464981,607.233032464981,1634863041.58757,1634863041.59902,1634863047.4731,1634863047.47519,1634863049.57388,1634863051.94143,1634863051.94343,1634863052.81485,1634863052.80842,1634863596.32778,1
77,4,1,3,4,4,3,c3_HowFace,2,smiling?,120,F_758.jpg,1634862989.09474,1634862989.1072,49.7328243160248,5.87076187133789,55.6183521652222,57.7191352748871,0.3,61.2704598808289,0.917009592056274,62.1938261890411,3,right,0.908818006515503,62.1874694728851,604.473032464981,607.233032464981,1634863041.58757,1634863041.59902,1634863047.4731,1634863047.47519,1634863049.57388,1634863053.1252,1634863053.12697,1634863054.04857,1634863054.04221,1634863596.32778,0
77,4,1,3,4,5,3,c3_HowFace,1,smiling?,116,F_083.jpg,1634862989.09474,1634862989.1072,49.7328243160248,5.87076187133789,55.6183521652222,57.7191352748871,0.3,62.5042538547516,0.866988897323608,63.3730261230469,1,left,0.848511934280396,63.3712427520752,604.473032464981,607.233032464981,1634863041.58757,1634863041.59902,1634863047.4731,1634863047.47519,1634863049.57388,1634863054.359,1634863054.36033,1634863055.22777,1634863055.22599,1634863596.32778,1
77,4,1,3,4,6,3,c3_HowFace,1,smiling?,118,F_759.jpg,1634862989.09474,1634862989.1072,49.7328243160248,5.87076187133789,55.6183521652222,57.7191352748871,0.3,63.6880278491974,0.900336027145386,64.5940151119232,1,left,0.880947113037109,64.5883638763428,604.473032464981,607.233032464981,1634863041.58757,1634863041.59902,1634863047.4731,1634863047.47519,1634863049.57388,1634863055.54277,1634863055.54435,1634863056.44876,1634863056.44311,1634863596.32778,1
77,4,1,3,4,7,3,c3_HowFace,2,smiling?,114,F_412.jpg,1634862989.09474,1634862989.1072,49.7328243160248,5.87076187133789,55.6183521652222,57.7191352748871,0.3,64.9051487350464,0.833643913269043,65.7433869743347,3,right,0.81488299369812,65.7387926483154,604.473032464981,607.233032464981,1634863041.58757,1634863041.59902,1634863047.4731,1634863047.47519,1634863049.57388,1634863056.75989,1634863056.76159,1634863057.59813,1634863057.59354,1634863596.32778,0
77,4,1,3,4,8,3,c3_HowFace,1,smiling?,117,F_593.jpg,1634862989.09474,1634862989.1072,49.7328243160248,5.87076187133789,55.6183521652222,57.7191352748871,0.3,66.0555777454376,1.1004102230072,67.1604111099243,1,left,1.08422112464905,67.1559879684448,604.473032464981,607.233032464981,1634863041.58757,1634863041.59902,1634863047.4731,1634863047.47519,1634863049.57388,1634863057.91032,1634863057.91545,1634863059.01516,1634863059.01073,1634863596.32778,1
77,4,1,3,5,1,4,c4_HowHand,1,lifting?,56,H_136.jpg,1634862989.09474,1634862989.1072,67.2393531703949,5.89449501037598,73.1415536308289,75.2423369789123,2.1007833480835,75.3923926258087,1.1837751865387,76.5774350070953,1,left,1.1710090637207,76.5761678123474,604.473032464981,607.233032464981,1634863059.0941,1634863059.09694,1634863064.9963,1634863064.99976,1634863067.09708,1634863067.24714,1634863067.24881,1634863068.43218,1634863068.43091,1634863596.32778,1
77,4,1,3,5,2,4,c4_HowHand,2,lifting?,51,H_038.jpg,1634862989.09474,1634862989.1072,67.2393531703949,5.89449501037598,73.1415536308289,75.2423369789123,0.3,76.8929529094696,0.983700513839722,77.8781101608276,3,right,0.967927932739258,77.8766534233093,604.473032464981,607.233032464981,1634863059.0941,1634863059.09694,1634863064.9963,1634863064.99976,1634863067.09708,1634863068.7477,1634863068.74927,1634863069.73286,1634863069.7314,1634863596.32778,0
77,4,1,3,5,3,4,c4_HowHand,1,lifting?,52,H_189.jpg,1634862989.09474,1634862989.1072,67.2393531703949,5.89449501037598,73.1415536308289,75.2423369789123,0.3,78.1934382820129,1.11708211898804,79.3116121196747,1,left,1.09963393211365,79.310520401001,604.473032464981,607.233032464981,1634863059.0941,1634863059.09694,1634863064.9963,1634863064.99976,1634863067.09708,1634863070.04818,1634863070.04994,1634863071.16636,1634863071.16527,1634863596.32778,1
77,4,1,3,5,4,4,c4_HowHand,2,lifting?,53,H_077.jpg,1634862989.09474,1634862989.1072,67.2393531703949,5.89449501037598,73.1415536308289,75.2423369789123,0.3,79.6273059749603,1.16710209846497,80.7954161071777,3,right,1.14464807510376,80.7944080734253,604.473032464981,607.233032464981,1634863059.0941,1634863059.09694,1634863064.9963,1634863064.99976,1634863067.09708,1634863071.48205,1634863071.48419,1634863072.65016,1634863072.64915,1634863596.32778,0
77,4,1,3,5,5,4,c4_HowHand,1,lifting?,50,H_443.jpg,1634862989.09474,1634862989.1072,67.2393531703949,5.89449501037598,73.1415536308289,75.2423369789123,0.3,81.1111915016174,1.65061640739441,82.7629270458221,3,right,1.62837600708008,82.7618079090118,604.473032464981,607.233032464981,1634863059.0941,1634863059.09694,1634863064.9963,1634863064.99976,1634863067.09708,1634863072.96594,1634863072.96763,1634863074.61767,1634863074.61655,1634863596.32778,0
77,4,1,3,5,6,4,c4_HowHand,2,lifting?,55,H_012.jpg,1634862989.09474,1634862989.1072,67.2393531703949,5.89449501037598,73.1415536308289,75.2423369789123,0.3,83.078593006134,1.30048513412476,84.3805069828033,3,right,1.2870671749115,84.3790781402588,604.473032464981,607.233032464981,1634863059.0941,1634863059.09694,1634863064.9963,1634863064.99976,1634863067.09708,1634863074.93334,1634863074.93514,1634863076.23525,1634863076.23382,1634863596.32778,0
77,4,1,3,5,7,4,c4_HowHand,1,lifting?,49,H_362.jpg,1634862989.09474,1634862989.1072,67.2393531703949,5.89449501037598,73.1415536308289,75.2423369789123,0.3,84.6958629989624,0.967026710510254,85.6639640235901,1,left,0.950240850448608,85.6628897094727,604.473032464981,607.233032464981,1634863059.0941,1634863059.09694,1634863064.9963,1634863064.99976,1634863067.09708,1634863076.55061,1634863076.55243,1634863077.51871,1634863077.51763,1634863596.32778,1
77,4,1,3,5,8,4,c4_HowHand,1,lifting?,54,H_170.jpg,1634862989.09474,1634862989.1072,67.2393531703949,5.89449501037598,73.1415536308289,75.2423369789123,0.3,85.9796748065948,1.33383059501648,87.3268530273437,3,right,1.32380795478821,87.3135054016113,604.473032464981,607.233032464981,1634863059.0941,1634863059.09694,1634863064.9963,1634863064.99976,1634863067.09708,1634863077.83442,1634863077.83601,1634863079.1816,1634863079.16825,1634863596.32778,0
77,4,1,3,6,1,2,c2_WhyHand,1,helping?,38,H_077.jpg,1634862989.09474,1634862989.1072,87.3968701267242,8.21812605857849,95.6332747840881,97.7340574169159,2.10078263282776,97.8841135406494,1.25046753883362,99.1362020874023,1,left,1.23156595230103,99.134581079483,604.473032464981,607.233032464981,1634863079.25162,1634863079.26545,1634863087.48802,1634863087.48984,1634863089.5888,1634863089.73886,1634863089.74139,1634863090.99095,1634863090.98933,1634863596.32778,1
77,4,1,3,6,2,2,c2_WhyHand,1,helping?,36,H_349.jpg,1634862989.09474,1634862989.1072,87.3968701267242,8.21812605857849,95.6332747840881,97.7340574169159,0.3,99.4513645076752,1.0170464515686,100.469488134384,1,left,1.00045895576477,100.468410959244,604.473032464981,607.233032464981,1634863079.25162,1634863079.26545,1634863087.48802,1634863087.48984,1634863089.5888,1634863091.30611,1634863091.30769,1634863092.32423,1634863092.32316,1634863596.32778,1
77,4,1,3,6,3,2,c2_WhyHand,1,helping?,37,H_474.jpg,1634862989.09474,1634862989.1072,87.3968701267242,8.21812605857849,95.6332747840881,97.7340574169159,0.3,100.785195579529,1.21712112426758,102.004031171799,1,left,1.19563317298889,102.002316703796,604.473032464981,607.233032464981,1634863079.25162,1634863079.26545,1634863087.48802,1634863087.48984,1634863089.5888,1634863092.63994,1634863092.64177,1634863093.85878,1634863093.85706,1634863596.32778,1
77,4,1,3,6,4,2,c2_WhyHand,1,helping?,39,H_024.jpg,1634862989.09474,1634862989.1072,87.3968701267242,8.21812605857849,95.6332747840881,97.7340574169159,0.3,102.319101085663,1.33383059501648,103.660201063156,3,right,1.32307910919189,103.652931680679,604.473032464981,607.233032464981,1634863079.25162,1634863079.26545,1634863087.48802,1634863087.48984,1634863089.5888,1634863094.17385,1634863094.17585,1634863095.51495,1634863095.50768,1634863596.32778,0
77,4,1,3,6,5,2,c2_WhyHand,2,helping?,40,H_012.jpg,1634862989.09474,1634862989.1072,87.3968701267242,8.21812605857849,95.6332747840881,97.7340574169159,0.3,103.969716539383,1.40052270889282,105.371841182709,3,right,1.37920689582825,105.370239248276,604.473032464981,607.233032464981,1634863079.25162,1634863079.26545,1634863087.48802,1634863087.48984,1634863089.5888,1634863095.82446,1634863095.82629,1634863097.22659,1634863097.22498,1634863596.32778,0
77,4,1,3,6,6,2,c2_WhyHand,2,helping?,35,H_159.jpg,1634862989.09474,1634862989.1072,87.3968701267242,8.21812605857849,95.6332747840881,97.7340574169159,0.3,105.687024106979,1.20044660568237,106.893391122818,3,right,1.18564391136169,106.887470712662,604.473032464981,607.233032464981,1634863079.25162,1634863079.26545,1634863087.48802,1634863087.48984,1634863089.5888,1634863097.54177,1634863097.54378,1634863098.74814,1634863098.74222,1634863596.32778,0
77,4,1,3,6,7,2,c2_WhyHand,1,helping?,34,H_111.jpg,1634862989.09474,1634862989.1072,87.3968701267242,8.21812605857849,95.6332747840881,97.7340574169159,0.3,107.20425652504,1.0170464515686,108.223180046082,1,left,0.995414018630981,108.221302976608,604.473032464981,607.233032464981,1634863079.25162,1634863079.26545,1634863087.48802,1634863087.48984,1634863089.5888,1634863099.059,1634863099.0605,1634863100.07792,1634863100.07605,1634863596.32778,1
77,4,1,3,6,8,2,c2_WhyHand,2,helping?,33,H_091.jpg,1634862989.09474,1634862989.1072,87.3968701267242,8.21812605857849,95.6332747840881,97.7340574169159,0.3,108.538087835312,1.31715703010559,109.860622158051,3,right,1.30085802078247,109.855244865417,604.473032464981,607.233032464981,1634863079.25162,1634863079.26545,1634863087.48802,1634863087.48984,1634863089.5888,1634863100.39283,1634863100.3944,1634863101.71537,1634863101.70999,1634863596.32778,0
77,4,1,3,7,1,1,c1_WhyFace,1,proud?,104,F_598.jpg,1634862989.09474,1634862989.1072,109.921936979294,3.56799411773682,113.50660656929,115.607390632629,2.10078406333923,115.757445802689,1.5172336101532,117.277317991257,1,left,1.49285507202148,117.274679412842,604.473032464981,607.233032464981,1634863101.77668,1634863101.78198,1634863105.36135,1634863105.3657,1634863107.46214,1634863107.61219,1634863107.61625,1634863109.13206,1634863109.12942,1634863596.32778,1
77,4,1,3,7,2,1,c1_WhyFace,2,proud?,102,F_760.jpg,1634862989.09474,1634862989.1072,109.921936979294,3.56799411773682,113.50660656929,115.607390632629,0.3,117.591462364197,0.967029094696045,118.560647001266,3,right,0.947896957397461,118.558491458893,604.473032464981,607.233032464981,1634863101.77668,1634863101.78198,1634863105.36135,1634863105.3657,1634863107.46214,1634863109.44621,1634863109.44885,1634863110.41539,1634863110.41324,1634863596.32778,0
77,4,1,3,7,3,1,c1_WhyFace,1,proud?,97,F_582.jpg,1634862989.09474,1634862989.1072,109.921936979294,3.56799411773682,113.50660656929,115.607390632629,0.3,118.875274887085,0.833644866943359,119.710815181732,1,left,0.815171957015991,119.708919754028,604.473032464981,607.233032464981,1634863101.77668,1634863101.78198,1634863105.36135,1634863105.3657,1634863107.46214,1634863110.73002,1634863110.73215,1634863111.56556,1634863111.56366,1634863596.32778,1
77,4,1,3,7,4,1,c1_WhyFace,2,proud?,98,F_412.jpg,1634862989.09474,1634862989.1072,109.921936979294,3.56799411773682,113.50660656929,115.607390632629,0.3,120.025703897476,0.98370099067688,121.010925998688,3,right,0.961251974105835,121.009404888153,604.473032464981,607.233032464981,1634863101.77668,1634863101.78198,1634863105.36135,1634863105.3657,1634863107.46214,1634863111.88045,1634863111.88221,1634863112.86567,1634863112.86415,1634863596.32778,0
77,4,1,3,7,5,1,c1_WhyFace,1,proud?,101,F_083.jpg,1634862989.09474,1634862989.1072,109.921936979294,3.56799411773682,113.50660656929,115.607390632629,0.3,121.326189985275,1.28381204605103,122.611034145355,1,left,1.26633095741272,122.610002031326,604.473032464981,607.233032464981,1634863101.77668,1634863101.78198,1634863105.36135,1634863105.3657,1634863107.46214,1634863113.18093,1634863113.18254,1634863114.46578,1634863114.46475,1634863596.32778,1
77,4,1,3,7,6,1,c1_WhyFace,2,proud?,100,F_776.jpg,1634862989.09474,1634862989.1072,109.921936979294,3.56799411773682,113.50660656929,115.607390632629,0.3,122.926786174774,1.03371810913086,123.961886157989,3,right,1.01587891578674,123.960504283905,604.473032464981,607.233032464981,1634863101.77668,1634863101.78198,1634863105.36135,1634863105.3657,1634863107.46214,1634863114.78153,1634863114.78312,1634863115.81663,1634863115.81525,1634863596.32778,0
77,4,1,3,7,7,1,c1_WhyFace,1,proud?,103,F_618.jpg,1634862989.09474,1634862989.1072,109.921936979294,3.56799411773682,113.50660656929,115.607390632629,0.3,124.277289857864,1.35050439834595,125.628893127441,1,left,1.33406901359558,125.62779425621,604.473032464981,607.233032464981,1634863101.77668,1634863101.78198,1634863105.36135,1634863105.3657,1634863107.46214,1634863116.13203,1634863116.13364,1634863117.48364,1634863117.48254,1634863596.32778,1
77,4,1,3,7,8,1,c1_WhyFace,1,proud?,99,F_695.jpg,1634862989.09474,1634862989.1072,109.921936979294,3.56799411773682,113.50660656929,115.607390632629,0.3,125.944578876495,1.71730709075928,NaN,0,NA,0,127.661885967255,604.473032464981,607.233032464981,1634863101.77668,1634863101.78198,1634863105.36135,1634863105.3657,1634863107.46214,1634863117.79932,1634863117.80131,NaN,1634863119.51663,1634863596.32778,0
77,4,1,3,8,1,3,c3_HowFace,1,looking to side?,72,F_590.jpg,1634862989.09474,1634862989.1072,127.995342960358,3.02503323554993,131.02980755806,133.130592336655,2.10078477859497,133.280648460388,1.10040926933289,134.382099142075,1,left,1.08082818984985,134.381057729721,604.473032464981,607.233032464981,1634863119.85009,1634863119.85216,1634863122.88455,1634863122.88613,1634863124.98534,1634863125.13539,1634863125.13758,1634863126.23684,1634863126.2358,1634863596.32778,1
77,4,1,3,8,2,3,c3_HowFace,1,looking to side?,71,F_433.jpg,1634862989.09474,1634862989.1072,127.995342960358,3.02503323554993,131.02980755806,133.130592336655,0.3,134.697842826843,0.816970825195312,135.516601076126,1,left,0.797509908676147,135.514813652039,604.473032464981,607.233032464981,1634863119.85009,1634863119.85216,1634863122.88455,1634863122.88613,1634863124.98534,1634863126.55259,1634863126.55464,1634863127.37135,1634863127.36956,1634863596.32778,1
77,4,1,3,8,3,3,c3_HowFace,1,looking to side?,67,F_716.jpg,1634862989.09474,1634862989.1072,127.995342960358,3.02503323554993,131.02980755806,133.130592336655,0.3,135.831598987579,0.83364462852478,136.677472105026,1,left,0.820849180221558,136.665243616104,604.473032464981,607.233032464981,1634863119.85009,1634863119.85216,1634863122.88455,1634863122.88613,1634863124.98534,1634863127.68634,1634863127.6883,1634863128.53222,1634863128.51999,1634863596.32778,1
77,4,1,3,8,4,3,c3_HowFace,2,looking to side?,70,F_779.jpg,1634862989.09474,1634862989.1072,127.995342960358,3.02503323554993,131.02980755806,133.130592336655,0.3,136.982028236389,1.36717510223389,138.350784053802,3,right,1.34446001052856,138.349203338623,604.473032464981,607.233032464981,1634863119.85009,1634863119.85216,1634863122.88455,1634863122.88613,1634863124.98534,1634863128.83677,1634863128.83838,1634863130.20553,1634863130.20395,1634863596.32778,0
77,4,1,3,8,5,3,c3_HowFace,1,looking to side?,68,F_760.jpg,1634862989.09474,1634862989.1072,127.995342960358,3.02503323554993,131.02980755806,133.130592336655,0.3,138.665988912582,1.31715774536133,139.984563102722,1,left,1.29794406890869,139.983146657944,604.473032464981,607.233032464981,1634863119.85009,1634863119.85216,1634863122.88455,1634863122.88613,1634863124.98534,1634863130.52073,1634863130.52289,1634863131.83931,1634863131.83789,1634863596.32778,1
77,4,1,3,8,6,3,c3_HowFace,2,looking to side?,66,F_111.jpg,1634862989.09474,1634862989.1072,127.995342960358,3.02503323554993,131.02980755806,133.130592336655,0.3,140.299932231903,0.950354099273682,141.260778179169,3,right,0.934892177581787,141.250286331177,604.473032464981,607.233032464981,1634863119.85009,1634863119.85216,1634863122.88455,1634863122.88613,1634863124.98534,1634863132.15468,1634863132.15658,1634863133.11552,1634863133.10503,1634863596.32778,0
77,4,1,3,8,7,3,c3_HowFace,1,looking to side?,69,F_110.jpg,1634862989.09474,1634862989.1072,127.995342960358,3.02503323554993,131.02980755806,133.130592336655,0.3,141.567071428299,1.43386793136597,143.002041091919,1,left,1.41226696968079,143.000939359665,604.473032464981,607.233032464981,1634863119.85009,1634863119.85216,1634863122.88455,1634863122.88613,1634863124.98534,1634863133.42182,1634863133.4233,1634863134.85679,1634863134.85568,1634863596.32778,1
77,4,1,3,8,8,3,c3_HowFace,2,looking to side?,65,F_798.jpg,1634862989.09474,1634862989.1072,127.995342960358,3.02503323554993,131.02980755806,133.130592336655,0.3,143.31772397995,0.850316762924194,144.177119960785,3,right,0.839488983154297,144.168040742874,604.473032464981,607.233032464981,1634863119.85009,1634863119.85216,1634863122.88455,1634863122.88613,1634863124.98534,1634863135.17247,1634863135.17437,1634863136.03186,1634863136.02279,1634863596.32778,0
77,4,1,3,9,1,1,c1_WhyFace,1,argument?,43,F_716.jpg,1634862989.09474,1634862989.1072,144.23473285675,5.89324712753296,150.136933794022,152.237716665268,2.10078287124634,152.387772550583,1.08373785018921,153.476802101135,1,left,1.0632209777832,153.471510400772,604.473032464981,607.233032464981,1634863136.08948,1634863136.09886,1634863141.99168,1634863141.99871,1634863144.09246,1634863144.24252,1634863144.24906,1634863145.33155,1634863145.32626,1634863596.32778,1
77,4,1,3,9,2,1,c1_WhyFace,2,argument?,44,F_139.jpg,1634862989.09474,1634862989.1072,144.23473285675,5.89324712753296,150.136933794022,152.237716665268,0.3,153.788295259476,1.08373808860779,154.873721113205,3,right,1.06141996383667,154.872033348084,604.473032464981,607.233032464981,1634863136.08948,1634863136.09886,1634863141.99168,1634863141.99871,1634863144.09246,1634863145.64304,1634863145.64469,1634863146.72847,1634863146.72678,1634863596.32778,0
77,4,1,3,9,3,1,c1_WhyFace,1,argument?,41,F_712.jpg,1634862989.09474,1634862989.1072,144.23473285675,5.89324712753296,150.136933794022,152.237716665268,0.3,155.188818206787,1.01704549789429,156.210048189163,1,left,1.00062108039856,156.205863704681,604.473032464981,607.233032464981,1634863136.08948,1634863136.09886,1634863141.99168,1634863141.99871,1634863144.09246,1634863147.04356,1634863147.0487,1634863148.06479,1634863148.06061,1634863596.32778,1
77,4,1,3,9,4,1,c1_WhyFace,2,argument?,45,F_433.jpg,1634862989.09474,1634862989.1072,144.23473285675,5.89324712753296,150.136933794022,152.237716665268,0.3,156.522648801804,1.56725001335144,158.093922128677,3,right,1.55090999603271,158.089898815155,604.473032464981,607.233032464981,1634863136.08948,1634863136.09886,1634863141.99168,1634863141.99871,1634863144.09246,1634863148.37739,1634863148.38251,1634863149.94867,1634863149.94464,1634863596.32778,0
77,4,1,3,9,5,1,c1_WhyFace,1,argument?,42,F_403.jpg,1634862989.09474,1634862989.1072,144.23473285675,5.89324712753296,150.136933794022,152.237716665268,0.3,158.406684150696,0.900335788726807,159.3100340271,1,left,0.886599779129028,159.307019939423,604.473032464981,607.233032464981,1634863136.08948,1634863136.09886,1634863141.99168,1634863141.99871,1634863144.09246,1634863150.26143,1634863150.26539,1634863151.16478,1634863151.16176,1634863596.32778,1
77,4,1,3,9,6,1,c1_WhyFace,2,argument?,46,F_844.jpg,1634862989.09474,1634862989.1072,144.23473285675,5.89324712753296,150.136933794022,152.237716665268,0.3,159.623804798126,1.08373713493347,160.709983100891,3,right,1.07129502296448,160.70754193306,604.473032464981,607.233032464981,1634863136.08948,1634863136.09886,1634863141.99168,1634863141.99871,1634863144.09246,1634863151.47855,1634863151.48241,1634863152.56473,1634863152.56229,1634863596.32778,0
77,4,1,3,9,7,1,c1_WhyFace,1,argument?,47,F_743.jpg,1634862989.09474,1634862989.1072,144.23473285675,5.89324712753296,150.136933794022,152.237716665268,0.3,161.024326553345,1.11708307266235,162.143311014175,1,left,1.10679912567139,162.141409626007,604.473032464981,607.233032464981,1634863136.08948,1634863136.09886,1634863141.99168,1634863141.99871,1634863144.09246,1634863152.87907,1634863152.88229,1634863153.99806,1634863153.99615,1634863596.32778,1
77,4,1,3,9,8,1,c1_WhyFace,1,argument?,48,F_758.jpg,1634862989.09474,1634862989.1072,144.23473285675,5.89324712753296,150.136933794022,152.237716665268,0.3,162.458194484711,1.15042948722839,163.609966983795,1,left,1.1403968334198,163.608623971939,604.473032464981,607.233032464981,1634863136.08948,1634863136.09886,1634863141.99168,1634863141.99871,1634863144.09246,1634863154.31294,1634863154.31526,1634863155.46471,1634863155.46337,1634863596.32778,1
77,4,1,3,10,1,3,c3_HowFace,1,open mouth?,80,F_844.jpg,1634862989.09474,1634862989.1072,163.675316324234,4.29261875152588,167.97692035675,170.077704181671,2.10078382492065,170.227760066986,0.88366174697876,171.112581005096,1,left,0.867439031600952,171.111421813965,604.473032464981,607.233032464981,1634863155.53006,1634863155.53173,1634863159.83167,1634863159.83344,1634863161.93245,1634863162.0825,1634863162.08435,1634863162.96733,1634863162.96617,1634863596.32778,1
77,4,1,3,10,2,3,c3_HowFace,1,open mouth?,74,F_776.jpg,1634862989.09474,1634862989.1072,163.675316324234,4.29261875152588,167.97692035675,170.077704181671,0.3,171.428207387924,0.683587312698364,172.127130022049,1,left,0.675776958465576,172.111794700623,604.473032464981,607.233032464981,1634863155.53006,1634863155.53173,1634863159.83167,1634863159.83344,1634863161.93245,1634863163.28295,1634863163.28493,1634863163.98187,1634863163.96654,1634863596.32778,1
77,4,1,3,10,3,3,c3_HowFace,2,open mouth?,76,F_544.jpg,1634862989.09474,1634862989.1072,163.675316324234,4.29261875152588,167.97692035675,170.077704181671,0.3,172.428579559326,1.05039215087891,173.480699052811,3,right,1.03665709495544,173.478971710205,604.473032464981,607.233032464981,1634863155.53006,1634863155.53173,1634863159.83167,1634863159.83344,1634863161.93245,1634863164.28332,1634863164.28498,1634863165.33544,1634863165.33372,1634863596.32778,0
77,4,1,3,10,4,3,c3_HowFace,1,open mouth?,78,F_692.jpg,1634862989.09474,1634862989.1072,163.675316324234,4.29261875152588,167.97692035675,170.077704181671,0.3,173.795756568909,0.900335073471069,174.697759141922,1,left,0.879119157791138,174.69609164238,604.473032464981,607.233032464981,1634863155.53006,1634863155.53173,1634863159.83167,1634863159.83344,1634863161.93245,1634863165.6505,1634863165.65211,1634863166.5525,1634863166.55084,1634863596.32778,1
77,4,1,3,10,5,3,c3_HowFace,2,open mouth?,77,F_584.jpg,1634862989.09474,1634862989.1072,163.675316324234,4.29261875152588,167.97692035675,170.077704181671,0.3,175.012874832153,0.967028617858887,175.981703987122,3,right,0.953212976455688,175.979903450012,604.473032464981,607.233032464981,1634863155.53006,1634863155.53173,1634863159.83167,1634863159.83344,1634863161.93245,1634863166.86762,1634863166.86954,1634863167.83645,1634863167.83465,1634863596.32778,0
77,4,1,3,10,6,3,c3_HowFace,1,open mouth?,73,F_403.jpg,1634862989.09474,1634862989.1072,163.675316324234,4.29261875152588,167.97692035675,170.077704181671,0.3,176.296689739227,1.03371858596802,177.33144616127,1,left,1.01677203178406,177.330408325195,604.473032464981,607.233032464981,1634863155.53006,1634863155.53173,1634863159.83167,1634863159.83344,1634863161.93245,1634863168.15143,1634863168.15314,1634863169.18619,1634863169.18515,1634863596.32778,1
77,4,1,3,10,7,3,c3_HowFace,1,open mouth?,75,F_086.jpg,1634862989.09474,1634862989.1072,163.675316324234,4.29261875152588,167.97692035675,170.077704181671,0.3,177.64719294548,0.900335311889648,178.549113025665,1,left,0.881675004959106,178.54752825737,604.473032464981,607.233032464981,1634863155.53006,1634863155.53173,1634863159.83167,1634863159.83344,1634863161.93245,1634863169.50194,1634863169.50358,1634863170.40386,1634863170.40227,1634863596.32778,1
77,4,1,3,10,8,3,c3_HowFace,2,open mouth?,79,F_648.jpg,1634862989.09474,1634862989.1072,163.675316324234,4.29261875152588,167.97692035675,170.077704181671,0.3,178.864312639236,0.900336503982544,179.766335000992,3,right,0.885647773742676,179.764649143219,604.473032464981,607.233032464981,1634863155.53006,1634863155.53173,1634863159.83167,1634863159.83344,1634863161.93245,1634863170.71906,1634863170.72056,1634863171.62108,1634863171.61939,1634863596.32778,0
77,4,1,3,11,1,4,c4_HowHand,1,pressing button?,88,H_019.jpg,1634862989.09474,1634862989.1072,179.831343164444,6.02663803100586,185.866925230026,187.967707862854,2.10078263282776,188.117764463425,1.20044732093811,189.319960107803,1,left,1.16918611526489,189.318211784363,604.473032464981,607.233032464981,1634863171.68609,1634863171.699,1634863177.72167,1634863177.73254,1634863179.82245,1634863179.97251,1634863179.98231,1634863181.17471,1634863181.17296,1634863596.32778,1
77,4,1,3,11,2,4,c4_HowHand,2,pressing button?,87,H_024.jpg,1634862989.09474,1634862989.1072,179.831343164444,6.02663803100586,185.866925230026,187.967707862854,0.3,189.634996404648,1.16710233688354,190.810684194565,3,right,1.1519889831543,190.802098741531,604.473032464981,607.233032464981,1634863171.68609,1634863171.699,1634863177.72167,1634863177.73254,1634863179.82245,1634863181.48974,1634863181.49189,1634863182.66543,1634863182.65684,1634863596.32778,0
77,4,1,3,11,3,4,c4_HowHand,2,pressing button?,85,H_130.jpg,1634862989.09474,1634862989.1072,179.831343164444,6.02663803100586,185.866925230026,187.967707862854,0.3,191.118883600235,1.05039143562317,192.170308103561,3,right,1.02672791481018,192.169275035858,604.473032464981,607.233032464981,1634863171.68609,1634863171.699,1634863177.72167,1634863177.73254,1634863179.82245,1634863182.97363,1634863182.97578,1634863184.02505,1634863184.02402,1634863596.32778,0
77,4,1,3,11,4,4,c4_HowHand,1,pressing button?,83,H_502.jpg,1634862989.09474,1634862989.1072,179.831343164444,6.02663803100586,185.866925230026,187.967707862854,0.3,192.48606013298,0.750279664993286,193.243416061401,1,left,0.742763996124268,193.236339797974,604.473032464981,607.233032464981,1634863171.68609,1634863171.699,1634863177.72167,1634863177.73254,1634863179.82245,1634863184.34081,1634863184.34253,1634863185.09816,1634863185.09108,1634863596.32778,1
77,4,1,3,11,5,4,c4_HowHand,2,pressing button?,81,H_261.jpg,1634862989.09474,1634862989.1072,179.831343164444,6.02663803100586,185.866925230026,187.967707862854,0.3,193.553124895096,0.950354814529419,194.510555973053,3,right,0.937513113021851,194.503479709625,604.473032464981,607.233032464981,1634863171.68609,1634863171.699,1634863177.72167,1634863177.73254,1634863179.82245,1634863185.40787,1634863185.40948,1634863186.3653,1634863186.35822,1634863596.32778,0
77,4,1,3,11,6,4,c4_HowHand,1,pressing button?,86,H_332.jpg,1634862989.09474,1634862989.1072,179.831343164444,6.02663803100586,185.866925230026,187.967707862854,0.3,194.820263853073,1.03371810913086,195.855018129349,1,left,1.01338219642639,195.853981962204,604.473032464981,607.233032464981,1634863171.68609,1634863171.699,1634863177.72167,1634863177.73254,1634863179.82245,1634863186.67501,1634863186.67714,1634863187.70976,1634863187.70873,1634863596.32778,1
77,4,1,3,11,7,4,c4_HowHand,1,pressing button?,82,H_126.jpg,1634862989.09474,1634862989.1072,179.831343164444,6.02663803100586,185.866925230026,187.967707862854,0.3,196.170768489838,0.967026472091675,197.13897608757,1,left,0.946745872497559,197.137794961929,604.473032464981,607.233032464981,1634863171.68609,1634863171.699,1634863177.72167,1634863177.73254,1634863179.82245,1634863188.02551,1634863188.02743,1634863188.99372,1634863188.99254,1634863596.32778,1
77,4,1,3,11,8,4,c4_HowHand,1,pressing button?,84,H_483.jpg,1634862989.09474,1634862989.1072,179.831343164444,6.02663803100586,185.866925230026,187.967707862854,0.3,197.454578866959,1.55057787895203,199.010025014877,1,left,1.54248213768005,199.005156745911,604.473032464981,607.233032464981,1634863171.68609,1634863171.699,1634863177.72167,1634863177.73254,1634863179.82245,1634863189.30932,1634863189.31138,1634863190.86477,1634863190.8599,1634863596.32778,1
77,4,1,3,12,1,2,c2_WhyHand,1,competing?,9,H_261.jpg,1634862989.09474,1634862989.1072,199.088522424698,4.55992269515991,203.65689324379,205.757675876617,2.10078263282776,205.907732000351,1.06706476211548,206.976812114716,1,left,1.04473090171814,206.974796762466,604.473032464981,607.233032464981,1634863190.94327,1634863190.94898,1634863195.51164,1634863195.51558,1634863197.61242,1634863197.76248,1634863197.76546,1634863198.83156,1634863198.82954,1634863596.32778,1
77,4,1,3,12,2,2,c2_WhyHand,2,competing?,12,H_483.jpg,1634862989.09474,1634862989.1072,199.088522424698,4.55992269515991,203.65689324379,205.757675876617,0.3,207.291580667496,1.30048489570618,208.594027032852,3,right,1.28149390220642,208.592065563202,604.473032464981,607.233032464981,1634863190.94327,1634863190.94898,1634863195.51164,1634863195.51558,1634863197.61242,1634863199.14633,1634863199.1487,1634863200.44877,1634863200.44681,1634863596.32778,0
77,4,1,3,12,3,2,c2_WhyHand,1,competing?,14,H_132.jpg,1634862989.09474,1634862989.1072,199.088522424698,4.55992269515991,203.65689324379,205.757675876617,0.3,208.908850421906,0.85031795501709,209.760707130432,1,left,0.836237907409668,209.759168376923,604.473032464981,607.233032464981,1634863190.94327,1634863190.94898,1634863195.51164,1634863195.51558,1634863197.61242,1634863200.7636,1634863200.76561,1634863201.61545,1634863201.61391,1634863596.32778,1
77,4,1,3,12,4,2,c2_WhyHand,2,competing?,10,H_126.jpg,1634862989.09474,1634862989.1072,199.088522424698,4.55992269515991,203.65689324379,205.757675876617,0.3,210.075952997208,1.0003719329834,211.07740401268,3,right,0.98744797706604,211.076324930191,604.473032464981,607.233032464981,1634863190.94327,1634863190.94898,1634863195.51164,1634863195.51558,1634863197.61242,1634863201.9307,1634863201.93247,1634863202.93215,1634863202.93107,1634863596.32778,0
77,4,1,3,12,5,2,c2_WhyHand,1,competing?,16,H_136.jpg,1634862989.09474,1634862989.1072,199.088522424698,4.55992269515991,203.65689324379,205.757675876617,0.3,211.393111219406,0.917007923126221,212.311556091309,1,left,0.902113914489746,212.310119142532,604.473032464981,607.233032464981,1634863190.94327,1634863190.94898,1634863195.51164,1634863195.51558,1634863197.61242,1634863203.24786,1634863203.24934,1634863204.1663,1634863204.16486,1634863596.32778,1
77,4,1,3,12,6,2,c2_WhyHand,2,competing?,11,H_502.jpg,1634862989.09474,1634862989.1072,199.088522424698,4.55992269515991,203.65689324379,205.757675876617,0.3,212.626904239655,1.58392333984375,214.227559080124,3,right,1.575355052948,214.210827579498,604.473032464981,607.233032464981,1634863190.94327,1634863190.94898,1634863195.51164,1634863195.51558,1634863197.61242,1634863204.48165,1634863204.48368,1634863206.0823,1634863206.06557,1634863596.32778,0
77,4,1,3,12,7,2,c2_WhyHand,1,competing?,13,H_003.jpg,1634862989.09474,1634862989.1072,199.088522424698,4.55992269515991,203.65689324379,205.757675876617,0.3,214.527612915039,0.850316762924194,215.379389038086,1,left,0.831374168395996,215.377929677963,604.473032464981,607.233032464981,1634863190.94327,1634863190.94898,1634863195.51164,1634863195.51558,1634863197.61242,1634863206.38236,1634863206.38393,1634863207.23413,1634863207.23267,1634863596.32778,1
77,4,1,3,12,8,2,c2_WhyHand,1,competing?,15,H_170.jpg,1634862989.09474,1634862989.1072,199.088522424698,4.55992269515991,203.65689324379,205.757675876617,0.3,215.694714536667,0.766953468322754,216.463169088364,1,left,0.755996942520142,216.46166800499,604.473032464981,607.233032464981,1634863190.94327,1634863190.94898,1634863195.51164,1634863195.51558,1634863197.61242,1634863207.54946,1634863207.55102,1634863208.31791,1634863208.31641,1634863596.32778,1
77,4,1,3,13,1,1,c1_WhyFace,1,self-doubt?,29,F_544.jpg,1634862989.09474,1634862989.1072,216.528359165192,5.18959593772888,221.730299224854,223.831083288193,2.10078406333923,223.981138219833,1.15042853355408,225.144255151749,1,left,1.13724493980408,225.131566753387,604.473032464981,607.233032464981,1634863208.3831,1634863208.38457,1634863213.58504,1634863213.58696,1634863215.68583,1634863215.83588,1634863215.83777,1634863216.999,1634863216.98631,1634863596.32778,1
77,4,1,3,13,2,1,c1_WhyFace,2,self-doubt?,27,F_086.jpg,1634862989.09474,1634862989.1072,216.528359165192,5.18959593772888,221.730299224854,223.831083288193,0.3,225.44835351944,1.20044684410095,226.660081138611,3,right,1.18866300582886,226.648800363541,604.473032464981,607.233032464981,1634863208.3831,1634863208.38457,1634863213.58504,1634863213.58696,1634863215.68583,1634863217.3031,1634863217.30464,1634863218.51483,1634863218.50355,1634863596.32778,0
77,4,1,3,13,3,1,c1_WhyFace,1,self-doubt?,25,F_798.jpg,1634862989.09474,1634862989.1072,216.528359165192,5.18959593772888,221.730299224854,223.831083288193,0.3,226.965584745407,0.633569240570068,227.601044168472,1,left,0.6182541847229,227.599153985977,604.473032464981,607.233032464981,1634863208.3831,1634863208.38457,1634863213.58504,1634863213.58696,1634863215.68583,1634863218.82033,1634863218.82192,1634863219.45579,1634863219.4539,1634863596.32778,1
77,4,1,3,13,4,1,c1_WhyFace,1,self-doubt?,26,F_111.jpg,1634862989.09474,1634862989.1072,216.528359165192,5.18959593772888,221.730299224854,223.831083288193,0.3,227.915938606262,0.983701467514038,228.91055606842,1,left,0.972396850585938,228.899640073776,604.473032464981,607.233032464981,1634863208.3831,1634863208.38457,1634863213.58504,1634863213.58696,1634863215.68583,1634863219.77068,1634863219.77234,1634863220.7653,1634863220.75438,1634863596.32778,1
77,4,1,3,13,5,1,c1_WhyFace,2,self-doubt?,31,F_774.jpg,1634862989.09474,1634862989.1072,216.528359165192,5.18959593772888,221.730299224854,223.831083288193,0.3,229.216423978806,0.983701467514038,230.210689058304,3,right,0.970252990722656,230.20012544632,604.473032464981,607.233032464981,1634863208.3831,1634863208.38457,1634863213.58504,1634863213.58696,1634863215.68583,1634863221.07117,1634863221.07293,1634863222.06543,1634863222.05487,1634863596.32778,0
77,4,1,3,13,6,1,c1_WhyFace,1,self-doubt?,28,F_754.jpg,1634862989.09474,1634862989.1072,216.528359165192,5.18959593772888,221.730299224854,223.831083288193,0.3,230.516908874512,1.71730661392212,NaN,0,NA,0,232.234215488434,604.473032464981,607.233032464981,1634863208.3831,1634863208.38457,1634863213.58504,1634863213.58696,1634863215.68583,1634863222.37165,1634863222.37339,NaN,1634863224.08896,1634863596.32778,0
77,4,1,3,13,7,1,c1_WhyFace,2,self-doubt?,32,F_128.jpg,1634862989.09474,1634862989.1072,216.528359165192,5.18959593772888,221.730299224854,223.831083288193,0.3,232.551000823975,0.96702766418457,233.519719114304,3,right,0.949425935745239,233.518028488159,604.473032464981,607.233032464981,1634863208.3831,1634863208.38457,1634863213.58504,1634863213.58696,1634863215.68583,1634863224.40575,1634863224.40782,1634863225.37446,1634863225.37277,1634863596.32778,0
77,4,1,3,13,8,1,c1_WhyFace,1,self-doubt?,30,F_584.jpg,1634862989.09474,1634862989.1072,216.528359165192,5.18959593772888,221.730299224854,223.831083288193,0.3,233.834812870026,1.18377470970154,235.020326128006,3,right,1.16340708732605,235.018587579727,604.473032464981,607.233032464981,1634863208.3831,1634863208.38457,1634863213.58504,1634863213.58696,1634863215.68583,1634863225.68956,1634863225.69136,1634863226.87507,1634863226.87333,1634863596.32778,0
77,4,1,3,14,1,3,c3_HowFace,1,looking at camera?,64,F_128.jpg,1634862989.09474,1634862989.1072,235.085278978348,5.68665313720703,240.787406196594,242.888189783096,2.10078358650208,243.038244714737,0.983701705932617,244.023404111862,1,left,0.962121963500977,244.02194642067,604.473032464981,607.233032464981,1634863226.94002,1634863226.94874,1634863232.64215,1634863232.64428,1634863234.74293,1634863234.89299,1634863234.89505,1634863235.87815,1634863235.87669,1634863596.32778,1
77,4,1,3,14,2,3,c3_HowFace,1,looking at camera?,60,F_618.jpg,1634862989.09474,1634862989.1072,235.085278978348,5.68665313720703,240.787406196594,242.888189783096,0.3,244.338729610443,0.816971778869629,245.160449972153,1,left,0.807867050170898,245.155701389313,604.473032464981,607.233032464981,1634863226.94002,1634863226.94874,1634863232.64215,1634863232.64428,1634863234.74293,1634863236.19347,1634863236.1953,1634863237.01519,1634863237.01045,1634863596.32778,1
77,4,1,3,14,3,3,c3_HowFace,1,looking at camera?,62,F_598.jpg,1634862989.09474,1634862989.1072,235.085278978348,5.68665313720703,240.787406196594,242.888189783096,0.3,245.472485771179,0.783626079559326,246.260055055618,1,left,0.761960983276367,246.256111850739,604.473032464981,607.233032464981,1634863226.94002,1634863226.94874,1634863232.64215,1634863232.64428,1634863234.74293,1634863237.32723,1634863237.33217,1634863238.1148,1634863238.11086,1634863596.32778,1
77,4,1,3,14,4,3,c3_HowFace,2,looking at camera?,63,F_743.jpg,1634862989.09474,1634862989.1072,235.085278978348,5.68665313720703,240.787406196594,242.888189783096,0.3,246.572897424698,0.816970348358154,247.393433084488,3,right,0.794057130813599,247.389867773056,604.473032464981,607.233032464981,1634863226.94002,1634863226.94874,1634863232.64215,1634863232.64428,1634863234.74293,1634863238.42764,1634863238.4319,1634863239.24818,1634863239.24461,1634863596.32778,0
77,4,1,3,14,5,3,c3_HowFace,1,looking at camera?,61,F_774.jpg,1634862989.09474,1634862989.1072,235.085278978348,5.68665313720703,240.787406196594,242.888189783096,0.3,247.706653108597,0.666914701461792,248.376965036392,1,left,0.656993865966797,248.373567810059,604.473032464981,607.233032464981,1634863226.94002,1634863226.94874,1634863232.64215,1634863232.64428,1634863234.74293,1634863239.5614,1634863239.56513,1634863240.23171,1634863240.22831,1634863596.32778,1
77,4,1,3,14,6,3,c3_HowFace,2,looking at camera?,57,F_582.jpg,1634862989.09474,1634862989.1072,235.085278978348,5.68665313720703,240.787406196594,242.888189783096,0.3,248.690352430344,1.00037312507629,249.693974962235,3,right,0.987890005111694,249.69072555542,604.473032464981,607.233032464981,1634863226.94002,1634863226.94874,1634863232.64215,1634863232.64428,1634863234.74293,1634863240.5451,1634863240.5484,1634863241.54872,1634863241.54547,1634863596.32778,0
77,4,1,3,14,7,3,c3_HowFace,2,looking at camera?,58,F_754.jpg,1634862989.09474,1634862989.1072,235.085278978348,5.68665313720703,240.787406196594,242.888189783096,0.3,250.007511129379,0.967026710510254,250.977137079239,3,right,0.959382057189941,250.97453783989,604.473032464981,607.233032464981,1634863226.94002,1634863226.94874,1634863232.64215,1634863232.64428,1634863234.74293,1634863241.86226,1634863241.86475,1634863242.83188,1634863242.82928,1634863596.32778,0
77,4,1,3,14,8,3,c3_HowFace,1,looking at camera?,59,F_129.jpg,1634862989.09474,1634862989.1072,235.085278978348,5.68665313720703,240.787406196594,242.888189783096,0.3,251.291322937012,0.883663177490234,252.176825990677,1,left,0.860942125320435,252.174986114502,604.473032464981,607.233032464981,1634863226.94002,1634863226.94874,1634863232.64215,1634863232.64428,1634863234.74293,1634863243.14607,1634863243.14888,1634863244.03157,1634863244.02973,1634863596.32778,1
77,4,1,3,15,1,4,c4_HowHand,1,both hands?,123,H_167.jpg,1634862989.09474,1634862989.1072,252.258351793289,7.30355429649353,259.577747335434,261.678529729843,2.10078239440918,261.828585853577,1.20044779777527,263.030498971939,1,left,1.18813610076904,263.029033651352,604.473032464981,607.233032464981,1634863244.1131,1634863244.11479,1634863251.43249,1634863251.43427,1634863253.53327,1634863253.68333,1634863253.68531,1634863254.88524,1634863254.88378,1634863596.32778,1
77,4,1,3,15,2,4,c4_HowHand,2,both hands?,121,H_091.jpg,1634862989.09474,1634862989.1072,252.258351793289,7.30355429649353,259.577747335434,261.678529729843,0.3,263.345818510056,0.983700275421143,264.330562105179,3,right,0.964919090270996,264.329518785477,604.473032464981,607.233032464981,1634863244.1131,1634863244.11479,1634863251.43249,1634863251.43427,1634863253.53327,1634863255.20056,1634863255.20243,1634863256.18531,1634863256.18426,1634863596.32778,0
77,4,1,3,15,3,4,c4_HowHand,2,both hands?,125,H_627.jpg,1634862989.09474,1634862989.1072,252.258351793289,7.30355429649353,259.577747335434,261.678529729843,0.3,264.64630364418,1.10040974617004,265.76010512352,3,right,1.08996391296387,265.74671339035,604.473032464981,607.233032464981,1634863244.1131,1634863244.11479,1634863251.43249,1634863251.43427,1634863253.53327,1634863256.50105,1634863256.50301,1634863257.61485,1634863257.60146,1634863596.32778,0
77,4,1,3,15,4,4,c4_HowHand,1,both hands?,128,H_027.jpg,1634862989.09474,1634862989.1072,252.258351793289,7.30355429649353,259.577747335434,261.678529729843,0.3,266.063498487473,0.883662939071655,266.960803022385,1,left,0.876296997070312,266.947161426544,604.473032464981,607.233032464981,1634863244.1131,1634863244.11479,1634863251.43249,1634863251.43427,1634863253.53327,1634863257.91824,1634863257.92014,1634863258.81555,1634863258.80191,1634863596.32778,1
77,4,1,3,15,5,4,c4_HowHand,1,both hands?,122,H_111.jpg,1634862989.09474,1634862989.1072,252.258351793289,7.30355429649353,259.577747335434,261.678529729843,0.3,267.263945808411,1.00037360191345,268.265391101837,1,left,0.976989984512329,268.264319410324,604.473032464981,607.233032464981,1634863244.1131,1634863244.11479,1634863251.43249,1634863251.43427,1634863253.53327,1634863259.11869,1634863259.12035,1634863260.12014,1634863260.11906,1634863596.32778,1
77,4,1,3,15,6,4,c4_HowHand,2,both hands?,126,H_159.jpg,1634862989.09474,1634862989.1072,252.258351793289,7.30355429649353,259.577747335434,261.678529729843,0.3,268.581104030609,0.90033483505249,269.483309020996,3,right,0.87897801399231,269.481438865662,604.473032464981,607.233032464981,1634863244.1131,1634863244.11479,1634863251.43249,1634863251.43427,1634863253.53327,1634863260.43585,1634863260.43771,1634863261.33805,1634863261.33618,1634863596.32778,0
77,4,1,3,15,7,4,c4_HowHand,1,both hands?,124,H_581.jpg,1634862989.09474,1634862989.1072,252.258351793289,7.30355429649353,259.577747335434,261.678529729843,0.3,269.798225154877,1.1170825958252,270.917205085754,1,left,1.09872102737427,270.915307750702,604.473032464981,607.233032464981,1634863244.1131,1634863244.11479,1634863251.43249,1634863251.43427,1634863253.53327,1634863261.65297,1634863261.65492,1634863262.77195,1634863262.77005,1634863596.32778,1
77,4,1,3,15,8,4,c4_HowHand,1,both hands?,127,H_349.jpg,1634862989.09474,1634862989.1072,252.258351793289,7.30355429649353,259.577747335434,261.678529729843,0.3,271.232092609406,0.816971063613892,272.050108184814,1,left,0.797219038009644,272.049063673019,604.473032464981,607.233032464981,1634863244.1131,1634863244.11479,1634863251.43249,1634863251.43427,1634863253.53327,1634863263.08684,1634863263.08836,1634863263.90485,1634863263.90381,1634863596.32778,1
77,4,1,3,16,1,2,c2_WhyHand,1,self-protection?,89,H_443.jpg,1634862989.09474,1634862989.1072,272.115755786896,6.23628640174866,278.368087282181,280.468870868683,2.10078358650208,280.618926753998,1.25046634674072,281.877267112732,1,left,1.2386531829834,281.869393100739,604.473032464981,607.233032464981,1634863263.9705,1634863263.98216,1634863270.22283,1634863270.22455,1634863272.32362,1634863272.47367,1634863272.47638,1634863273.73201,1634863273.72414,1634863596.32778,1
77,4,1,3,16,2,2,c2_WhyHand,2,self-protection?,90,H_006.jpg,1634862989.09474,1634862989.1072,272.115755786896,6.23628640174866,278.368087282181,280.468870868683,0.3,282.186178197861,1.15042877197266,283.338129987717,3,right,1.12882709503174,283.336606969833,604.473032464981,607.233032464981,1634863263.9705,1634863263.98216,1634863270.22283,1634863270.22455,1634863272.32362,1634863274.04092,1634863274.04263,1634863275.19287,1634863275.19135,1634863596.32778,0
77,4,1,3,16,3,2,c2_WhyHand,1,self-protection?,91,H_581.jpg,1634862989.09474,1634862989.1072,272.115755786896,6.23628640174866,278.368087282181,280.468870868683,0.3,283.653391590118,0.733607053756714,284.393766155243,1,left,0.71983814239502,284.386998643875,604.473032464981,607.233032464981,1634863263.9705,1634863263.98216,1634863270.22283,1634863270.22455,1634863272.32362,1634863275.50814,1634863275.50958,1634863276.24851,1634863276.24174,1634863596.32778,1
77,4,1,3,16,4,2,c2_WhyHand,2,self-protection?,92,H_532.jpg,1634862989.09474,1634862989.1072,272.115755786896,6.23628640174866,278.368087282181,280.468870868683,0.3,284.703783025742,0.917008638381958,285.627583971024,3,right,0.903120994567871,285.620791664124,604.473032464981,607.233032464981,1634863263.9705,1634863263.98216,1634863270.22283,1634863270.22455,1634863272.32362,1634863276.55853,1634863276.56046,1634863277.48233,1634863277.47554,1634863596.32778,0
77,4,1,3,16,5,2,c2_WhyHand,1,self-protection?,96,H_027.jpg,1634862989.09474,1634862989.1072,272.115755786896,6.23628640174866,278.368087282181,280.468870868683,0.3,285.937576761246,0.950354337692261,286.893424978256,1,left,0.939178943634033,286.887931098938,604.473032464981,607.233032464981,1634863263.9705,1634863263.98216,1634863270.22283,1634863270.22455,1634863272.32362,1634863277.79232,1634863277.7942,1634863278.74817,1634863278.74268,1634863596.32778,1
77,4,1,3,16,6,2,c2_WhyHand,1,self-protection?,93,H_038.jpg,1634862989.09474,1634862989.1072,272.115755786896,6.23628640174866,278.368087282181,280.468870868683,0.3,287.204715957642,1.1837751865387,288.390267124176,1,left,1.16382503509521,288.38849114418,604.473032464981,607.233032464981,1634863263.9705,1634863263.98216,1634863270.22283,1634863270.22455,1634863272.32362,1634863279.05946,1634863279.06097,1634863280.24501,1634863280.24324,1634863596.32778,1
77,4,1,3,16,7,2,c2_WhyHand,2,self-protection?,95,H_332.jpg,1634862989.09474,1634862989.1072,272.115755786896,6.23628640174866,278.368087282181,280.468870868683,0.3,288.705275764465,0.816970825195312,289.527293195724,3,right,0.797059059143066,289.522246589661,604.473032464981,607.233032464981,1634863263.9705,1634863263.98216,1634863270.22283,1634863270.22455,1634863272.32362,1634863280.56002,1634863280.56144,1634863281.38204,1634863281.37699,1634863596.32778,0
77,4,1,3,16,8,2,c2_WhyHand,1,self-protection?,94,H_189.jpg,1634862989.09474,1634862989.1072,272.115755786896,6.23628640174866,278.368087282181,280.468870868683,0.3,289.839031925201,1.05039119720459,290.890957107544,1,left,1.02832102775574,290.889423122406,604.473032464981,607.233032464981,1634863263.9705,1634863263.98216,1634863270.22283,1634863270.22455,1634863272.32362,1634863281.69378,1634863281.69556,1634863282.7457,1634863282.74417,1634863596.32778,1
77,4,1,3,17,1,3,c3_HowFace,1,smiling?,118,F_759.jpg,1634862989.09474,1634862989.1072,290.972787847519,8.85951232910156,299.842761745453,301.943545093536,2.1007833480835,302.093601455688,0.716933012008667,302.811570158005,1,left,0.70201301574707,302.810534467697,604.473032464981,607.233032464981,1634863282.82753,1634863282.83217,1634863291.69751,1634863291.69945,1634863293.79829,1634863293.94835,1634863293.95033,1634863294.66632,1634863294.66528,1634863596.32778,1
77,4,1,3,17,2,3,c3_HowFace,2,smiling?,114,F_412.jpg,1634862989.09474,1634862989.1072,290.972787847519,8.85951232910156,299.842761745453,301.943545093536,0.3,303.127320518494,1.00037360191345,304.128827085495,3,right,0.985635042190552,304.127694120407,604.473032464981,607.233032464981,1634863282.82753,1634863282.83217,1634863291.69751,1634863291.69945,1634863293.79829,1634863294.98207,1634863294.98367,1634863295.98357,1634863295.98244,1634863596.32778,0
77,4,1,3,17,3,3,c3_HowFace,1,smiling?,117,F_593.jpg,1634862989.09474,1634862989.1072,290.972787847519,8.85951232910156,299.842761745453,301.943545093536,0.3,304.444478025436,1.06706500053406,305.512648096085,1,left,1.04550194740295,305.51154302597,604.473032464981,607.233032464981,1634863282.82753,1634863282.83217,1634863291.69751,1634863291.69945,1634863293.79829,1634863296.29922,1634863296.30074,1634863297.36739,1634863297.36629,1634863596.32778,1
77,4,1,3,17,4,3,c3_HowFace,2,smiling?,113,F_712.jpg,1634862989.09474,1634862989.1072,290.972787847519,8.85951232910156,299.842761745453,301.943545093536,0.3,305.828327646256,1.10041069984436,306.930216064453,3,right,1.09051609039307,306.9287383461,604.473032464981,607.233032464981,1634863282.82753,1634863282.83217,1634863291.69751,1634863291.69945,1634863293.79829,1634863297.68307,1634863297.68474,1634863298.78496,1634863298.78348,1634863596.32778,0
77,4,1,3,17,5,3,c3_HowFace,1,smiling?,115,F_695.jpg,1634862989.09474,1634862989.1072,290.972787847519,8.85951232910156,299.842761745453,301.943545093536,0.3,307.245523443222,1.00037240982056,308.246922960281,1,left,0.980380058288574,308.245895853043,604.473032464981,607.233032464981,1634863282.82753,1634863282.83217,1634863291.69751,1634863291.69945,1634863293.79829,1634863299.10027,1634863299.10171,1634863300.10167,1634863300.10064,1634863596.32778,1
77,4,1,3,17,6,3,c3_HowFace,1,smiling?,119,F_139.jpg,1634862989.09474,1634862989.1072,290.972787847519,8.85951232910156,299.842761745453,301.943545093536,0.3,308.562680473328,0.0166735649108887,308.581224193573,1,left,0.00032496452331543,308.579354038239,604.473032464981,607.233032464981,1634863282.82753,1634863282.83217,1634863291.69751,1634863291.69945,1634863293.79829,1634863300.41743,1634863300.41917,1634863300.43597,1634863300.4341,1634863596.32778,1
77,4,1,3,17,7,3,c3_HowFace,1,smiling?,116,F_083.jpg,1634862989.09474,1634862989.1072,290.972787847519,8.85951232910156,299.842761745453,301.943545093536,0.3,308.896137943268,0.950355529785156,309.848191013336,1,left,0.927618980407715,309.846493473053,604.473032464981,607.233032464981,1634863282.82753,1634863282.83217,1634863291.69751,1634863291.69945,1634863293.79829,1634863300.75088,1634863300.75236,1634863301.70294,1634863301.70124,1634863596.32778,1
77,4,1,3,17,8,3,c3_HowFace,2,smiling?,120,F_758.jpg,1634862989.09474,1634862989.1072,290.972787847519,8.85951232910156,299.842761745453,301.943545093536,0.3,310.163272371292,0.883668422698975,311.048797121048,3,right,0.862962961196899,311.046940793991,604.473032464981,607.233032464981,1634863282.82753,1634863282.83217,1634863291.69751,1634863291.69945,1634863293.79829,1634863302.01802,1634863302.01985,1634863302.90354,1634863302.90169,1634863596.32778,0
77,4,1,3,18,1,1,c1_WhyFace,1,admiring?,1,F_593.jpg,1634862989.09474,1634862989.1072,311.113632192612,6.50826692581177,317.632730474472,319.733512868881,2.10078239440918,319.883569469452,1.03371810913086,320.926817169189,1,left,1.02085590362549,320.917287578583,604.473032464981,607.233032464981,1634863302.96838,1634863302.98217,1634863309.48748,1634863309.48939,1634863311.58826,1634863311.73831,1634863311.74039,1634863312.78156,1634863312.77203,1634863596.32778,1
77,4,1,3,18,2,1,c1_WhyFace,2,admiring?,2,F_129.jpg,1634862989.09474,1634862989.1072,311.113632192612,6.50826692581177,317.632730474472,319.733512868881,0.3,321.234072675705,1.40052247047424,322.63640712738,1,left,1.37872910499573,322.634595146179,604.473032464981,607.233032464981,1634863302.96838,1634863302.98217,1634863309.48748,1634863309.48939,1634863311.58826,1634863313.08882,1634863313.09052,1634863314.49115,1634863314.48934,1634863596.32778,0
77,4,1,3,18,3,1,c1_WhyFace,1,admiring?,5,F_759.jpg,1634862989.09474,1634862989.1072,311.113632192612,6.50826692581177,317.632730474472,319.733512868881,0.3,322.951380243301,1.53390526771545,324.486351003647,1,left,1.51070404052734,324.485285511017,604.473032464981,607.233032464981,1634863302.96838,1634863302.98217,1634863309.48748,1634863309.48939,1634863311.58826,1634863314.80613,1634863314.80785,1634863316.3411,1634863316.34003,1634863596.32778,1
77,4,1,3,18,4,1,c1_WhyFace,2,admiring?,6,F_692.jpg,1634862989.09474,1634862989.1072,311.113632192612,6.50826692581177,317.632730474472,319.733512868881,0.3,324.802070131302,1.53390526771545,326.344137182236,3,right,1.52335810661316,326.335975399017,604.473032464981,607.233032464981,1634863302.96838,1634863302.98217,1634863309.48748,1634863309.48939,1634863311.58826,1634863316.65682,1634863316.65848,1634863318.19888,1634863318.19072,1634863596.32778,0
77,4,1,3,18,5,1,c1_WhyFace,1,admiring?,4,F_779.jpg,1634862989.09474,1634862989.1072,311.113632192612,6.50826692581177,317.632730474472,319.733512868881,0.3,326.652760734558,0.983699321746826,327.643434038162,1,left,0.971335172653198,327.636460056305,604.473032464981,607.233032464981,1634863302.96838,1634863302.98217,1634863309.48748,1634863309.48939,1634863311.58826,1634863318.50751,1634863318.50939,1634863319.49818,1634863319.4912,1634863596.32778,1
77,4,1,3,18,6,1,c1_WhyFace,1,admiring?,8,F_590.jpg,1634862989.09474,1634862989.1072,311.113632192612,6.50826692581177,317.632730474472,319.733512868881,0.3,327.953243961334,0.866991996765137,328.827206125259,1,left,0.855102062225342,328.820235958099,604.473032464981,607.233032464981,1634863302.96838,1634863302.98217,1634863309.48748,1634863309.48939,1634863311.58826,1634863319.80799,1634863319.80892,1634863320.68195,1634863320.67498,1634863596.32778,1
77,4,1,3,18,7,1,c1_WhyFace,1,admiring?,7,F_648.jpg,1634862989.09474,1634862989.1072,311.113632192612,6.50826692581177,317.632730474472,319.733512868881,0.3,329.137020339966,1.00037240982056,330.139062156677,1,left,0.980211973190308,330.137392749786,604.473032464981,607.233032464981,1634863302.96838,1634863302.98217,1634863309.48748,1634863309.48939,1634863311.58826,1634863320.99177,1634863320.99331,1634863321.99381,1634863321.99214,1634863596.32778,1
77,4,1,3,18,8,1,c1_WhyFace,2,admiring?,3,F_110.jpg,1634862989.09474,1634862989.1072,311.113632192612,6.50826692581177,317.632730474472,319.733512868881,0.3,330.45417760849,1.03371930122375,331.494117965698,3,right,1.02387189865112,331.487896909714,604.473032464981,607.233032464981,1634863302.96838,1634863302.98217,1634863309.48748,1634863309.48939,1634863311.58826,1634863322.30892,1634863322.3108,1634863323.34886,1634863323.34264,1634863596.32778,0
77,4,1,3,19,1,2,c2_WhyHand,1,competing?,9,H_261.jpg,1634862989.09474,1634862989.1072,331.571260919571,3.9407172203064,335.522735347748,337.623517742157,2.10078239440918,337.773574104309,1.08373761177063,338.860580196381,1,left,1.06707906723022,338.85731171608,604.473032464981,607.233032464981,1634863323.42601,1634863323.43217,1634863327.37748,1634863327.38231,1634863329.47826,1634863329.62832,1634863329.63228,1634863330.71533,1634863330.71206,1634863596.32778,1
77,4,1,3,19,2,2,c2_WhyHand,1,competing?,15,H_170.jpg,1634862989.09474,1634862989.1072,331.571260919571,3.9407172203064,335.522735347748,337.623517742157,0.3,339.174096813202,0.61689567565918,339.793398132324,1,left,0.596566915512085,339.790992488861,604.473032464981,607.233032464981,1634863323.42601,1634863323.43217,1634863327.37748,1634863327.38231,1634863329.47826,1634863331.02884,1634863331.03195,1634863331.64814,1634863331.64574,1634863596.32778,1
77,4,1,3,19,3,2,c2_WhyHand,2,competing?,12,H_483.jpg,1634862989.09474,1634862989.1072,331.571260919571,3.9407172203064,335.522735347748,337.623517742157,0.3,340.107777585983,0.850317239761353,340.960158100128,3,right,0.827491044998169,340.958094825745,604.473032464981,607.233032464981,1634863323.42601,1634863323.43217,1634863327.37748,1634863327.38231,1634863329.47826,1634863331.96252,1634863331.96536,1634863332.8149,1634863332.81284,1634863596.32778,0
77,4,1,3,19,4,2,c2_WhyHand,1,competing?,14,H_132.jpg,1634862989.09474,1634862989.1072,331.571260919571,3.9407172203064,335.522735347748,337.623517742157,0.3,341.274879922867,0.66691517829895,341.943339099884,1,left,0.6548171043396,341.941795101166,604.473032464981,607.233032464981,1634863323.42601,1634863323.43217,1634863327.37748,1634863327.38231,1634863329.47826,1634863333.12962,1634863333.13207,1634863333.79808,1634863333.79654,1634863596.32778,1
77,4,1,3,19,5,2,c2_WhyHand,1,competing?,16,H_136.jpg,1634862989.09474,1634862989.1072,331.571260919571,3.9407172203064,335.522735347748,337.623517742157,0.3,342.258579244614,0.683588743209839,342.943766107559,1,left,0.668071985244751,342.942167987823,604.473032464981,607.233032464981,1634863323.42601,1634863323.43217,1634863327.37748,1634863327.38231,1634863329.47826,1634863334.11332,1634863334.11548,1634863334.79851,1634863334.79691,1634863596.32778,1
77,4,1,3,19,6,2,c2_WhyHand,1,competing?,13,H_003.jpg,1634862989.09474,1634862989.1072,331.571260919571,3.9407172203064,335.522735347748,337.623517742157,0.3,343.258953084946,0.683587312698364,343.94353102684,1,left,0.673521041870117,343.942540397644,604.473032464981,607.233032464981,1634863323.42601,1634863323.43217,1634863327.37748,1634863327.38231,1634863329.47826,1634863335.1137,1634863335.11551,1634863335.79828,1634863335.79729,1634863596.32778,1
77,4,1,3,19,7,2,c2_WhyHand,2,competing?,10,H_126.jpg,1634862989.09474,1634862989.1072,331.571260919571,3.9407172203064,335.522735347748,337.623517742157,0.3,344.259325971603,0.833643674850464,345.094501962662,3,right,0.820675134658813,345.092969646454,604.473032464981,607.233032464981,1634863323.42601,1634863323.43217,1634863327.37748,1634863327.38231,1634863329.47826,1634863336.11407,1634863336.11534,1634863336.94925,1634863336.94771,1634863596.32778,0
77,4,1,3,19,8,2,c2_WhyHand,2,competing?,11,H_502.jpg,1634862989.09474,1634862989.1072,331.571260919571,3.9407172203064,335.522735347748,337.623517742157,0.3,345.409754981995,1.01704573631287,346.427935113907,1,left,0.994225025177002,346.426800718308,604.473032464981,607.233032464981,1634863323.42601,1634863323.43217,1634863327.37748,1634863327.38231,1634863329.47826,1634863337.2645,1634863337.26621,1634863338.28268,1634863338.28155,1634863596.32778,0
77,4,1,3,20,1,4,c4_HowHand,1,reaching?,111,H_003.jpg,1634862989.09474,1634862989.1072,346.493493070602,10.4984610080719,356.997410526276,359.098194112778,2.10078358650208,359.248248090744,0.766953945159912,360.027162065506,1,left,0.743635892868042,360.015202035904,604.473032464981,607.233032464981,1634863338.34824,1634863338.34919,1634863348.85216,1634863348.86545,1634863350.95294,1634863351.10299,1634863351.11572,1634863351.88191,1634863351.86995,1634863596.32778,1
77,4,1,3,20,2,4,c4_HowHand,1,reaching?,110,H_364.jpg,1634862989.09474,1634862989.1072,346.493493070602,10.4984610080719,356.997410526276,359.098194112778,0.3,360.331986656189,0.783625364303589,361.117393960953,1,left,0.763912916183472,361.115612020493,604.473032464981,607.233032464981,1634863338.34824,1634863338.34919,1634863348.85216,1634863348.86545,1634863350.95294,1634863352.18673,1634863352.18818,1634863352.97214,1634863352.97036,1634863596.32778,1
77,4,1,3,20,3,4,c4_HowHand,2,reaching?,108,H_532.jpg,1634862989.09474,1634862989.1072,346.493493070602,10.4984610080719,356.997410526276,359.098194112778,0.3,361.432397356033,1.00037264823914,362.43416308403,3,right,0.981327056884766,362.432770004272,604.473032464981,607.233032464981,1634863338.34824,1634863338.34919,1634863348.85216,1634863348.86545,1634863350.95294,1634863353.28714,1634863353.2888,1634863354.28891,1634863354.28751,1634863596.32778,0
77,4,1,3,20,4,4,c4_HowHand,1,reaching?,106,H_006.jpg,1634862989.09474,1634862989.1072,346.493493070602,10.4984610080719,356.997410526276,359.098194112778,0.3,362.749555101395,0.716933488845825,363.476842155457,1,left,0.709939002990723,363.46648859024,604.473032464981,607.233032464981,1634863338.34824,1634863338.34919,1634863348.85216,1634863348.86545,1634863350.95294,1634863354.6043,1634863354.60578,1634863355.33159,1634863355.32123,1634863596.32778,1
77,4,1,3,20,5,4,c4_HowHand,2,reaching?,105,H_438.jpg,1634862989.09474,1634862989.1072,346.493493070602,10.4984610080719,356.997410526276,359.098194112778,0.3,363.783273925781,1.13375639915466,364.918549051285,3,right,1.11737108230591,364.917030324936,604.473032464981,607.233032464981,1634863338.34824,1634863338.34919,1634863348.85216,1634863348.86545,1634863350.95294,1634863355.63802,1634863355.63956,1634863356.77329,1634863356.77178,1634863596.32778,0
77,4,1,3,20,6,4,c4_HowHand,1,reaching?,107,H_007.jpg,1634862989.09474,1634862989.1072,346.493493070602,10.4984610080719,356.997410526276,359.098194112778,0.3,365.233814468384,1.0170464515686,366.260084142685,1,left,1.00425791740417,366.250860919952,604.473032464981,607.233032464981,1634863338.34824,1634863338.34919,1634863348.85216,1634863348.86545,1634863350.95294,1634863357.08856,1634863357.08995,1634863358.11483,1634863358.10561,1634863596.32778,1
77,4,1,3,20,7,4,c4_HowHand,1,reaching?,109,H_474.jpg,1634862989.09474,1634862989.1072,346.493493070602,10.4984610080719,356.997410526276,359.098194112778,0.3,366.567644109726,1.41719603538513,367.994211187363,3,right,1.40356707572937,367.984840145111,604.473032464981,607.233032464981,1634863338.34824,1634863338.34919,1634863348.85216,1634863348.86545,1634863350.95294,1634863358.42239,1634863358.42387,1634863359.84896,1634863359.83959,1634863596.32778,0
77,4,1,3,20,8,4,c4_HowHand,2,reaching?,112,H_132.jpg,1634862989.09474,1634862989.1072,346.493493070602,10.4984610080719,356.997410526276,359.098194112778,0.3,368.301625957489,1.1170825958252,369.419872989655,3,right,1.10111880302429,369.418708553314,604.473032464981,607.233032464981,1634863338.34824,1634863338.34919,1634863348.85216,1634863348.86545,1634863350.95294,1634863360.15637,1634863360.15773,1634863361.27462,1634863361.27345,1634863596.32778,0
77,4,1,3,21,1,3,c3_HowFace,1,open mouth?,73,F_403.jpg,1634862989.09474,1634862989.1072,369.502072563171,5.32995653152466,374.837395896912,376.938179244995,2.1007833480835,377.088236322403,1.46721220016479,378.557203044891,1,left,1.44204092025757,378.555448522568,604.473032464981,607.233032464981,1634863361.35682,1634863361.3585,1634863366.69214,1634863366.69924,1634863368.79292,1634863368.94298,1634863368.94919,1634863370.41195,1634863370.41019,1634863596.32778,1
77,4,1,3,21,2,3,c3_HowFace,2,open mouth?,79,F_648.jpg,1634862989.09474,1634862989.1072,369.502072563171,5.32995653152466,374.837395896912,376.938179244995,0.3,378.87223361969,0.716934680938721,379.593410005569,3,right,0.705392837524414,379.589168300629,604.473032464981,607.233032464981,1634863361.35682,1634863361.3585,1634863366.69214,1634863366.69924,1634863368.79292,1634863370.72698,1634863370.72887,1634863371.44815,1634863371.44391,1634863596.32778,0
77,4,1,3,21,3,3,c3_HowFace,1,open mouth?,74,F_776.jpg,1634862989.09474,1634862989.1072,369.502072563171,5.32995653152466,374.837395896912,376.938179244995,0.3,379.905953397751,0.550204515457153,380.457777013779,1,left,0.5259108543396,380.456157913208,604.473032464981,607.233032464981,1634863361.35682,1634863361.3585,1634863366.69214,1634863366.69924,1634863368.79292,1634863371.7607,1634863371.76532,1634863372.31252,1634863372.3109,1634863596.32778,1
77,4,1,3,21,4,3,c3_HowFace,2,open mouth?,77,F_584.jpg,1634862989.09474,1634862989.1072,369.502072563171,5.32995653152466,374.837395896912,376.938179244995,0.3,380.772942771912,0.833644151687622,381.608044137955,3,right,0.80843710899353,381.606586923599,604.473032464981,607.233032464981,1634863361.35682,1634863361.3585,1634863366.69214,1634863366.69924,1634863368.79292,1634863372.62769,1634863372.63225,1634863373.46279,1634863373.46133,1634863596.32778,0
77,4,1,3,21,5,3,c3_HowFace,1,open mouth?,80,F_844.jpg,1634862989.09474,1634862989.1072,369.502072563171,5.32995653152466,374.837395896912,376.938179244995,0.3,381.923371782303,0.550205707550049,382.477352132797,1,left,0.528075933456421,382.473577489853,604.473032464981,607.233032464981,1634863361.35682,1634863361.3585,1634863366.69214,1634863366.69924,1634863368.79292,1634863373.77812,1634863373.78233,1634863374.3321,1634863374.32832,1634863596.32778,1
77,4,1,3,21,6,3,c3_HowFace,1,open mouth?,78,F_692.jpg,1634862989.09474,1634862989.1072,369.502072563171,5.32995653152466,374.837395896912,376.938179244995,0.3,382.790361633301,0.733607053756714,383.527036180496,1,left,0.717308044433594,383.523968687058,604.473032464981,607.233032464981,1634863361.35682,1634863361.3585,1634863366.69214,1634863366.69924,1634863368.79292,1634863374.64511,1634863374.6487,1634863375.38178,1634863375.37871,1634863596.32778,1
77,4,1,3,21,7,3,c3_HowFace,1,open mouth?,75,F_086.jpg,1634862989.09474,1634862989.1072,369.502072563171,5.32995653152466,374.837395896912,376.938179244995,0.3,383.840752830505,0.550205707550049,384.393382062912,1,left,0.538402080535889,384.390958538055,604.473032464981,607.233032464981,1634863361.35682,1634863361.3585,1634863366.69214,1634863366.69924,1634863368.79292,1634863375.6955,1634863375.69883,1634863376.24813,1634863376.2457,1634863596.32778,1
77,4,1,3,21,8,3,c3_HowFace,2,open mouth?,76,F_544.jpg,1634862989.09474,1634862989.1072,369.502072563171,5.32995653152466,374.837395896912,376.938179244995,0.3,384.707744112015,0.700261116027832,385.410714139938,3,right,0.681380033493042,385.408005228043,604.473032464981,607.233032464981,1634863361.35682,1634863361.3585,1634863366.69214,1634863366.69924,1634863368.79292,1634863376.56249,1634863376.56542,1634863377.26546,1634863377.26275,1634863596.32778,0
77,4,1,3,22,1,1,c1_WhyFace,1,argument?,42,F_403.jpg,1634862989.09474,1634862989.1072,385.4913692379,8.0166597366333,393.527699460983,395.611809959412,2.08411049842834,395.761865844727,1.51723170280457,397.294072141647,1,left,1.49537396430969,397.279097547531,604.473032464981,607.233032464981,1634863377.34611,1634863377.34881,1634863385.38244,1634863385.38425,1634863387.46655,1634863387.61661,1634863387.63239,1634863389.14882,1634863389.13384,1634863596.32778,1
77,4,1,3,22,2,1,c1_WhyFace,2,argument?,46,F_844.jpg,1634862989.09474,1634862989.1072,385.4913692379,8.0166597366333,393.527699460983,395.611809959412,0.3,397.595883359909,0.766952991485596,398.363895168304,3,right,0.755660057067871,398.362836351395,604.473032464981,607.233032464981,1634863377.34611,1634863377.34881,1634863385.38244,1634863385.38425,1634863387.46655,1634863389.45063,1634863389.45217,1634863390.21864,1634863390.21758,1634863596.32778,0
77,4,1,3,22,3,1,c1_WhyFace,1,argument?,41,F_712.jpg,1634862989.09474,1634862989.1072,385.4913692379,8.0166597366333,393.527699460983,395.611809959412,0.3,398.679621210098,1.16710042953491,399.847834100723,1,left,1.1459801197052,399.846721639633,604.473032464981,607.233032464981,1634863377.34611,1634863377.34881,1634863385.38244,1634863385.38425,1634863387.46655,1634863390.53437,1634863390.53628,1634863391.70258,1634863391.70147,1634863596.32778,1
77,4,1,3,22,4,1,c1_WhyFace,1,argument?,48,F_758.jpg,1634862989.09474,1634862989.1072,385.4913692379,8.0166597366333,393.527699460983,395.611809959412,0.3,400.163507452011,0.800298452377319,400.977447023392,1,left,0.789083003997803,400.963805904388,604.473032464981,607.233032464981,1634863377.34611,1634863377.34881,1634863385.38244,1634863385.38425,1634863387.46655,1634863392.01825,1634863392.02019,1634863392.83219,1634863392.81855,1634863596.32778,1
77,4,1,3,22,5,1,c1_WhyFace,2,argument?,45,F_433.jpg,1634862989.09474,1634862989.1072,385.4913692379,8.0166597366333,393.527699460983,395.611809959412,0.3,401.280590524673,0.883662223815918,402.165507068634,3,right,0.863301992416382,402.164252748489,604.473032464981,607.233032464981,1634863377.34611,1634863377.34881,1634863385.38244,1634863385.38425,1634863387.46655,1634863393.13534,1634863393.13693,1634863394.02025,1634863394.019,1634863596.32778,0
77,4,1,3,22,6,1,c1_WhyFace,1,argument?,43,F_716.jpg,1634862989.09474,1634862989.1072,385.4913692379,8.0166597366333,393.527699460983,395.611809959412,0.3,402.481038560867,0.816971778869629,403.299720993042,1,left,0.799661874771118,403.298010339737,604.473032464981,607.233032464981,1634863377.34611,1634863377.34881,1634863385.38244,1634863385.38425,1634863387.46655,1634863394.33578,1634863394.33742,1634863395.15447,1634863395.15276,1634863596.32778,1
77,4,1,3,22,7,1,c1_WhyFace,2,argument?,44,F_139.jpg,1634862989.09474,1634862989.1072,385.4913692379,8.0166597366333,393.527699460983,395.611809959412,0.3,403.614794960022,0.950353384017944,404.566244115829,3,right,0.936414003372192,404.56514834404,604.473032464981,607.233032464981,1634863377.34611,1634863377.34881,1634863385.38244,1634863385.38425,1634863387.46655,1634863395.46954,1634863395.4715,1634863396.42099,1634863396.41989,1634863596.32778,0
77,4,1,3,22,8,1,c1_WhyFace,1,argument?,47,F_743.jpg,1634862989.09474,1634862989.1072,385.4913692379,8.0166597366333,393.527699460983,395.611809959412,0.3,404.881934156418,0.917007446289062,405.810090055466,1,left,0.906569004058838,405.798941602707,604.473032464981,607.233032464981,1634863377.34611,1634863377.34881,1634863385.38244,1634863385.38425,1634863387.46655,1634863396.73668,1634863396.73787,1634863397.66483,1634863397.65369,1634863596.32778,1
77,4,1,3,23,1,2,c2_WhyHand,1,helping?,39,H_024.jpg,1634862989.09474,1634862989.1072,405.882307281494,5.84560680389404,411.734488954544,413.835272302628,2.1007833480835,413.985328903198,1.35050344467163,415.344110002518,3,right,1.33426094055176,415.33583234787,604.473032464981,607.233032464981,1634863397.73705,1634863397.74885,1634863403.58923,1634863403.59903,1634863405.69002,1634863405.84007,1634863405.84879,1634863407.19885,1634863407.19058,1634863596.32778,0
77,4,1,3,23,2,2,c2_WhyHand,1,helping?,36,H_349.jpg,1634862989.09474,1634862989.1072,405.882307281494,5.84560680389404,411.734488954544,413.835272302628,0.3,415.652616968155,0.883662700653076,416.538086166382,1,left,0.865077018737793,416.536279668808,604.473032464981,607.233032464981,1634863397.73705,1634863397.74885,1634863403.58923,1634863403.59903,1634863405.69002,1634863407.50736,1634863407.50918,1634863408.39283,1634863408.39102,1634863596.32778,1
77,4,1,3,23,3,2,c2_WhyHand,1,helping?,38,H_077.jpg,1634862989.09474,1634862989.1072,405.882307281494,5.84560680389404,411.734488954544,413.835272302628,0.3,416.853065481186,0.71693229675293,417.57689904213,1,left,0.700418949127197,417.569997777939,604.473032464981,607.233032464981,1634863397.73705,1634863397.74885,1634863403.58923,1634863403.59903,1634863405.69002,1634863408.70781,1634863408.70936,1634863409.43164,1634863409.42474,1634863596.32778,1
77,4,1,3,23,4,2,c2_WhyHand,1,helping?,37,H_474.jpg,1634862989.09474,1634862989.1072,405.882307281494,5.84560680389404,411.734488954544,413.835272302628,0.3,417.88678311348,0.95035457611084,418.843825092316,1,left,0.93510103225708,418.83713768959,604.473032464981,607.233032464981,1634863397.73705,1634863397.74885,1634863403.58923,1634863403.59903,1634863405.69002,1634863409.74153,1634863409.74317,1634863410.69857,1634863410.69188,1634863596.32778,1
77,4,1,3,23,5,2,c2_WhyHand,2,helping?,33,H_091.jpg,1634862989.09474,1634862989.1072,405.882307281494,5.84560680389404,411.734488954544,413.835272302628,0.3,419.153922548294,1.10040998458862,420.260831108093,3,right,1.08524513244629,420.254332532883,604.473032464981,607.233032464981,1634863397.73705,1634863397.74885,1634863403.58923,1634863403.59903,1634863405.69002,1634863411.00867,1634863411.01029,1634863412.11558,1634863412.10908,1634863596.32778,0
77,4,1,3,23,6,2,c2_WhyHand,2,helping?,35,H_159.jpg,1634862989.09474,1634862989.1072,405.882307281494,5.84560680389404,411.734488954544,413.835272302628,0.3,420.571117868423,0.933680772781372,421.506492128372,3,right,0.914233207702637,421.504798641205,604.473032464981,607.233032464981,1634863397.73705,1634863397.74885,1634863403.58923,1634863403.59903,1634863405.69002,1634863412.42586,1634863412.42776,1634863413.36124,1634863413.35954,1634863596.32778,0
77,4,1,3,23,7,2,c2_WhyHand,1,helping?,34,H_111.jpg,1634862989.09474,1634862989.1072,405.882307281494,5.84560680389404,411.734488954544,413.835272302628,0.3,421.821584215164,0.783625364303589,422.610227098465,1,left,0.768253087997437,422.605209579468,604.473032464981,607.233032464981,1634863397.73705,1634863397.74885,1634863403.58923,1634863403.59903,1634863405.69002,1634863413.67633,1634863413.6782,1634863414.46497,1634863414.45995,1634863596.32778,1
77,4,1,3,23,8,2,c2_WhyHand,2,helping?,40,H_012.jpg,1634862989.09474,1634862989.1072,405.882307281494,5.84560680389404,411.734488954544,413.835272302628,0.3,422.921994915009,1.26713895797729,424.193889131546,1,left,1.25997495651245,424.189133872986,604.473032464981,607.233032464981,1634863397.73705,1634863397.74885,1634863403.58923,1634863403.59903,1634863405.69002,1634863414.77674,1634863414.77815,1634863416.04863,1634863416.04388,1634863596.32778,0
77,4,1,3,24,1,4,c4_HowHand,1,both hands?,122,H_111.jpg,1634862989.09474,1634862989.1072,424.272497882843,5.52548718452454,429.807895650864,431.908678998947,2.1007833480835,432.058734884262,1.38385033607483,433.443615188599,1,left,1.3708701133728,433.442585220337,604.473032464981,607.233032464981,1634863416.12724,1634863416.13183,1634863421.66264,1634863421.66566,1634863423.76342,1634863423.91348,1634863423.91541,1634863425.29836,1634863425.29733,1634863596.32778,1
77,4,1,3,24,2,4,c4_HowHand,1,both hands?,128,H_027.jpg,1634862989.09474,1634862989.1072,424.272497882843,5.52548718452454,429.807895650864,431.908678998947,0.3,433.759370079041,0.600223064422607,434.360551109314,1,left,0.592084884643555,434.359593143463,604.473032464981,607.233032464981,1634863416.12724,1634863416.13183,1634863421.66264,1634863421.66566,1634863423.76342,1634863425.61411,1634863425.6158,1634863426.2153,1634863426.21434,1634863596.32778,1
77,4,1,3,24,3,4,c4_HowHand,2,both hands?,121,H_091.jpg,1634862989.09474,1634862989.1072,424.272497882843,5.52548718452454,429.807895650864,431.908678998947,0.3,434.676377763748,0.816970109939575,435.494889965057,3,right,0.800504922866821,435.493347873688,604.473032464981,607.233032464981,1634863416.12724,1634863416.13183,1634863421.66264,1634863421.66566,1634863423.76342,1634863426.53112,1634863426.53267,1634863427.34963,1634863427.34809,1634863596.32778,0
77,4,1,3,24,4,4,c4_HowHand,1,both hands?,123,H_167.jpg,1634862989.09474,1634862989.1072,424.272497882843,5.52548718452454,429.807895650864,431.908678998947,0.3,435.810133686066,0.583550930023193,436.394708147049,1,left,0.566488027572632,436.393684616089,604.473032464981,607.233032464981,1634863416.12724,1634863416.13183,1634863421.66264,1634863421.66566,1634863423.76342,1634863427.66488,1634863427.66718,1634863428.24945,1634863428.24843,1634863596.32778,1
77,4,1,3,24,5,4,c4_HowHand,1,both hands?,124,H_581.jpg,1634862989.09474,1634862989.1072,424.272497882843,5.52548718452454,429.807895650864,431.908678998947,0.3,436.71046995163,0.700260877609253,437.412352075577,1,left,0.682433843612671,437.410730829239,604.473032464981,607.233032464981,1634863416.12724,1634863416.13183,1634863421.66264,1634863421.66566,1634863423.76342,1634863428.56521,1634863428.56676,1634863429.2671,1634863429.26548,1634863596.32778,1
77,4,1,3,24,6,4,c4_HowHand,2,both hands?,126,H_159.jpg,1634862989.09474,1634862989.1072,424.272497882843,5.52548718452454,429.807895650864,431.908678998947,0.3,437.727516641617,0.750279188156128,438.479215135574,3,right,0.735737085342407,438.477795829773,604.473032464981,607.233032464981,1634863416.12724,1634863416.13183,1634863421.66264,1634863421.66566,1634863423.76342,1634863429.58226,1634863429.58392,1634863430.33396,1634863430.33254,1634863596.32778,0
77,4,1,3,24,7,4,c4_HowHand,1,both hands?,127,H_349.jpg,1634862989.09474,1634862989.1072,424.272497882843,5.52548718452454,429.807895650864,431.908678998947,0.3,438.794581165314,0.616896152496338,439.412592163086,1,left,0.594797134399414,439.41147731781,604.473032464981,607.233032464981,1634863416.12724,1634863416.13183,1634863421.66264,1634863421.66566,1634863423.76342,1634863430.64933,1634863430.65119,1634863431.26734,1634863431.26622,1634863596.32778,1
77,4,1,3,24,8,4,c4_HowHand,2,both hands?,125,H_627.jpg,1634862989.09474,1634862989.1072,424.272497882843,5.52548718452454,429.807895650864,431.908678998947,0.3,439.728261938095,0.967026948928833,440.697060098648,3,right,0.956156969070435,440.695288887024,604.473032464981,607.233032464981,1634863416.12724,1634863416.13183,1634863421.66264,1634863421.66566,1634863423.76342,1634863431.58301,1634863431.58475,1634863432.55181,1634863432.55003,1634863596.32778,0
77,4,1,3,25,1,2,c2_WhyHand,1,healthy?,18,H_438.jpg,1634862989.09474,1634862989.1072,440.778654327393,6.53629684448242,447.331096878052,449.43188117981,2.10078430175781,449.581937303543,1.51723217964172,451.100707044601,1,left,1.5005669593811,451.099169483185,604.473032464981,607.233032464981,1634863432.6334,1634863432.6352,1634863439.18584,1634863439.188,1634863441.28663,1634863441.43668,1634863441.43857,1634863442.95545,1634863442.95391,1634863596.32778,1
77,4,1,3,25,2,2,c2_WhyHand,1,healthy?,23,H_364.jpg,1634862989.09474,1634862989.1072,440.778654327393,6.53629684448242,447.331096878052,449.43188117981,0.3,451.415954341888,0.783626079559326,452.210131158829,1,left,0.772249937057495,452.199580421448,604.473032464981,607.233032464981,1634863432.6334,1634863432.6352,1634863439.18584,1634863439.188,1634863441.28663,1634863443.2707,1634863443.27251,1634863444.06488,1634863444.05433,1634863596.32778,1
77,4,1,3,25,3,2,c2_WhyHand,1,healthy?,17,H_362.jpg,1634862989.09474,1634862989.1072,440.778654327393,6.53629684448242,447.331096878052,449.43188117981,0.3,452.516364326477,0.666915416717529,453.184566965103,1,left,0.650285959243774,453.183279743195,604.473032464981,607.233032464981,1634863432.6334,1634863432.6352,1634863439.18584,1634863439.188,1634863441.28663,1634863444.37111,1634863444.37299,1634863445.03931,1634863445.03802,1634863596.32778,1
77,4,1,3,25,4,2,c2_WhyHand,2,healthy?,24,H_019.jpg,1634862989.09474,1634862989.1072,440.778654327393,6.53629684448242,447.331096878052,449.43188117981,0.3,453.500063886642,1.13375759124756,454.643417110443,3,right,1.12206196784973,454.63382147789,604.473032464981,607.233032464981,1634863432.6334,1634863432.6352,1634863439.18584,1634863439.188,1634863441.28663,1634863445.35481,1634863445.35636,1634863446.49816,1634863446.48857,1634863596.32778,0
77,4,1,3,25,5,2,c2_WhyHand,1,healthy?,19,H_167.jpg,1634862989.09474,1634862989.1072,440.778654327393,6.53629684448242,447.331096878052,449.43188117981,0.3,454.950604906082,0.650243043899536,455.610640039444,1,left,0.637113094329834,455.600847949982,604.473032464981,607.233032464981,1634863432.6334,1634863432.6352,1634863439.18584,1634863439.188,1634863441.28663,1634863446.80535,1634863446.80718,1634863447.46538,1634863447.45559,1634863596.32778,1
77,4,1,3,25,6,2,c2_WhyHand,2,healthy?,20,H_007.jpg,1634862989.09474,1634862989.1072,440.778654327393,6.53629684448242,447.331096878052,449.43188117981,0.3,455.917633047104,1.11708188056946,457.044135084152,3,right,1.10492610931396,457.034714927673,604.473032464981,607.233032464981,1634863432.6334,1634863432.6352,1634863439.18584,1634863439.188,1634863441.28663,1634863447.77238,1634863447.77388,1634863448.89888,1634863448.88946,1634863596.32778,0
77,4,1,3,25,7,2,c2_WhyHand,1,healthy?,21,H_627.jpg,1634862989.09474,1634862989.1072,440.778654327393,6.53629684448242,447.331096878052,449.43188117981,0.3,457.351501216888,1.58392357826233,458.937087049484,1,left,1.56685400009155,458.935424795151,604.473032464981,607.233032464981,1634863432.6334,1634863432.6352,1634863439.18584,1634863439.188,1634863441.28663,1634863449.20625,1634863449.20825,1634863450.79183,1634863450.79017,1634863596.32778,1
77,4,1,3,25,8,2,c2_WhyHand,2,healthy?,22,H_130.jpg,1634862989.09474,1634862989.1072,440.778654327393,6.53629684448242,447.331096878052,449.43188117981,0.3,459.25221036911,1.71730661392212,NaN,0,NA,0,460.969516983032,604.473032464981,607.233032464981,1634863432.6334,1634863432.6352,1634863439.18584,1634863439.188,1634863441.28663,1634863451.10696,1634863451.10862,NaN,1634863452.82426,1634863596.32778,0
77,4,1,3,26,1,4,c4_HowHand,1,pressing button?,82,H_126.jpg,1634862989.09474,1634862989.1072,461.319646587372,5.04924845695496,466.388203611374,468.472315540314,2.08411192893982,468.622370948792,0.733606815338135,469.360747089386,1,left,0.720937013626099,469.35597776413,604.473032464981,607.233032464981,1634863453.17439,1634863453.18219,1634863458.24295,1634863458.24494,1634863460.32706,1634863460.47712,1634863460.48235,1634863461.21549,1634863461.21072,1634863596.32778,1
77,4,1,3,26,2,4,c4_HowHand,2,pressing button?,85,H_130.jpg,1634862989.09474,1634862989.1072,461.319646587372,5.04924845695496,466.388203611374,468.472315540314,0.3,469.672761669159,1.16710233688354,470.84341501236,3,right,1.15111494064331,470.839864006042,604.473032464981,607.233032464981,1634863453.17439,1634863453.18219,1634863458.24295,1634863458.24494,1634863460.32706,1634863461.52751,1634863461.53223,1634863462.69816,1634863462.69461,1634863596.32778,0
77,4,1,3,26,3,4,c4_HowHand,1,pressing button?,84,H_483.jpg,1634862989.09474,1634862989.1072,461.319646587372,5.04924845695496,466.388203611374,468.472315540314,0.3,471.156648864746,0.917009353637695,472.077053060532,3,right,0.8994460105896,472.073658218384,604.473032464981,607.233032464981,1634863453.17439,1634863453.18219,1634863458.24295,1634863458.24494,1634863460.32706,1634863463.01139,1634863463.01539,1634863463.9318,1634863463.9284,1634863596.32778,0
77,4,1,3,26,4,4,c4_HowHand,2,pressing button?,87,H_024.jpg,1634862989.09474,1634862989.1072,461.319646587372,5.04924845695496,466.388203611374,468.472315540314,0.3,472.390442361832,1.23379373550415,473.62713312149,3,right,1.22466611862183,473.624236097336,604.473032464981,607.233032464981,1634863453.17439,1634863453.18219,1634863458.24295,1634863458.24494,1634863460.32706,1634863464.24519,1634863464.24858,1634863465.48188,1634863465.47898,1634863596.32778,0
77,4,1,3,26,5,4,c4_HowHand,1,pressing button?,86,H_332.jpg,1634862989.09474,1634862989.1072,461.319646587372,5.04924845695496,466.388203611374,468.472315540314,0.3,473.941020956039,0.833643674850464,474.777178039551,1,left,0.812705993652344,474.77466463089,604.473032464981,607.233032464981,1634863453.17439,1634863453.18219,1634863458.24295,1634863458.24494,1634863460.32706,1634863465.79577,1634863465.79884,1634863466.63192,1634863466.62941,1634863596.32778,1
77,4,1,3,26,6,4,c4_HowHand,1,pressing button?,88,H_019.jpg,1634862989.09474,1634862989.1072,461.319646587372,5.04924845695496,466.388203611374,468.472315540314,0.3,475.091448774338,0.616897106170654,475.710090150833,1,left,0.60002589225769,475.708345880508,604.473032464981,607.233032464981,1634863453.17439,1634863453.18219,1634863458.24295,1634863458.24494,1634863460.32706,1634863466.94619,1634863466.94898,1634863467.56484,1634863467.56309,1634863596.32778,1
77,4,1,3,26,7,4,c4_HowHand,2,pressing button?,81,H_261.jpg,1634862989.09474,1634862989.1072,461.319646587372,5.04924845695496,466.388203611374,468.472315540314,0.3,476.025130977631,1.61726927757263,477.64412902832,3,right,1.60044693946838,477.642400255203,604.473032464981,607.233032464981,1634863453.17439,1634863453.18219,1634863458.24295,1634863458.24494,1634863460.32706,1634863467.87988,1634863467.88231,1634863469.49887,1634863469.49715,1634863596.32778,0
77,4,1,3,26,8,4,c4_HowHand,1,pressing button?,83,H_502.jpg,1634862989.09474,1634862989.1072,461.319646587372,5.04924845695496,466.388203611374,468.472315540314,0.3,477.959185829163,0.833643913269043,478.793800106049,1,left,0.825356006622314,478.792829742432,604.473032464981,607.233032464981,1634863453.17439,1634863453.18219,1634863458.24295,1634863458.24494,1634863460.32706,1634863469.81393,1634863469.81582,1634863470.64855,1634863470.64757,1634863596.32778,1
77,4,1,3,27,1,3,c3_HowFace,1,looking at camera?,60,F_618.jpg,1634862989.09474,1634862989.1072,478.8761951828,5.02279591560364,483.911406269073,486.012188901901,2.10078263282776,486.162244548798,1.58392405509949,487.747641077042,1,left,1.57211208343506,487.746168603897,604.473032464981,607.233032464981,1634863470.73094,1634863470.73235,1634863475.76615,1634863475.76835,1634863477.86693,1634863478.01699,1634863478.01903,1634863479.60239,1634863479.60091,1634863596.32778,1
77,4,1,3,27,2,3,c3_HowFace,2,looking at camera?,58,F_754.jpg,1634862989.09474,1634862989.1072,478.8761951828,5.02279591560364,483.911406269073,486.012188901901,0.3,488.062953939438,0.800298452377319,488.877374162674,3,right,0.789597034454346,488.863252391815,604.473032464981,607.233032464981,1634863470.73094,1634863470.73235,1634863475.76615,1634863475.76835,1634863477.86693,1634863479.9177,1634863479.91953,1634863480.73212,1634863480.718,1634863596.32778,0
77,4,1,3,27,3,3,c3_HowFace,1,looking at camera?,59,F_129.jpg,1634862989.09474,1634862989.1072,478.8761951828,5.02279591560364,483.911406269073,486.012188901901,0.3,489.180037250519,0.850317001342773,490.031990995407,1,left,0.830767869949341,490.030354251862,604.473032464981,607.233032464981,1634863470.73094,1634863470.73235,1634863475.76615,1634863475.76835,1634863477.86693,1634863481.03478,1634863481.03655,1634863481.88674,1634863481.8851,1634863596.32778,1
77,4,1,3,27,4,3,c3_HowFace,1,looking at camera?,62,F_598.jpg,1634862989.09474,1634862989.1072,478.8761951828,5.02279591560364,483.911406269073,486.012188901901,0.3,490.347138633728,0.850317239761353,491.198530187607,1,left,0.837237119674683,491.197455873489,604.473032464981,607.233032464981,1634863470.73094,1634863470.73235,1634863475.76615,1634863475.76835,1634863477.86693,1634863482.20188,1634863482.20358,1634863483.05328,1634863483.0522,1634863596.32778,1
77,4,1,3,27,5,3,c3_HowFace,1,looking at camera?,64,F_128.jpg,1634862989.09474,1634862989.1072,478.8761951828,5.02279591560364,483.911406269073,486.012188901901,0.3,491.51424120903,1.7173068523407,NaN,0,NA,0,493.231548061371,604.473032464981,607.233032464981,1634863470.73094,1634863470.73235,1634863475.76615,1634863475.76835,1634863477.86693,1634863483.36899,1634863483.37047,NaN,1634863485.08629,1634863596.32778,0
77,4,1,3,27,6,3,c3_HowFace,2,looking at camera?,57,F_582.jpg,1634862989.09474,1634862989.1072,478.8761951828,5.02279591560364,483.911406269073,486.012188901901,0.3,493.548332681656,0.116710424423218,493.666710128784,1,left,0.0961601734161377,493.665043106079,604.473032464981,607.233032464981,1634863470.73094,1634863470.73235,1634863475.76615,1634863475.76835,1634863477.86693,1634863485.40308,1634863485.40455,1634863485.52146,1634863485.51979,1634863596.32778,0
77,4,1,3,27,7,3,c3_HowFace,1,looking at camera?,61,F_774.jpg,1634862989.09474,1634862989.1072,478.8761951828,5.02279591560364,483.911406269073,486.012188901901,0.3,493.981827964783,1.7173068523407,495.870079030991,1,left,1.86614294052124,495.699134817123,604.473032464981,607.233032464981,1634863470.73094,1634863470.73235,1634863475.76615,1634863475.76835,1634863477.86693,1634863485.83657,1634863485.83804,1634863487.72482,1634863487.55388,1634863596.32778,1
77,4,1,3,27,8,3,c3_HowFace,2,looking at camera?,63,F_743.jpg,1634862989.09474,1634862989.1072,478.8761951828,5.02279591560364,483.911406269073,486.012188901901,0.3,496.015919914246,0.0166716575622559,496.034234991074,1,left,0.000213146209716797,496.032591571808,604.473032464981,607.233032464981,1634863470.73094,1634863470.73235,1634863475.76615,1634863475.76835,1634863477.86693,1634863487.87066,1634863487.87235,1634863487.88898,1634863487.88734,1634863596.32778,0
