src_subject_id,session_id,run_id,param_counterbalance_ver,param_block_num,param_trial_num,param_cond_type_num,param_cond_type_string,param_normative_response,param_ques_type_string,param_image_num,param_image_filename,param_trigger_onset,param_start_biopac,event01_fixation,event01_fixation_dur,event01_blockquestion_onset,event01_block_isi_blacksreen,event01_blockquestion_dur,event02_image_onset,event02_image_dur,event03_response_onset,event03_response_key,event03_response_keyname,event03_RT,event04_shortquestion_onset,param_end_instruct_onset,param_experiment_duration,RAW_e1_fixation,RAW_e1_fixation_biopac,RAW_e1_blockquestion_onset,RAW_e1_blockquestion_onset_biopac,RAW_e1_block_isi_blacksreen,RAW_e2_image_onset,RAW_e2_image_onset_biopac,RAW_e3_response_onset,RAW_e4_shortquestion_onset,RAW_param_end_instruct_onset,accuracy
107,4,1,3,1,1,4,c4_HowHand,1,reaching?,107,H_007.jpg,1652819545.06085,1652819545.07379,0.0345845127105711,0.0350184440612793,0.0846040153503416,2.11869596481323,2.03409194946289,2.26875185012817,1.35050272941589,3.62140392303467,1,left,1.31273007392883,3.61925457954407,604.476662149429,607.236662149429,1652819547.85544,1652819547.86174,1652819547.90546,1652819547.91062,1652819549.93955,1652819550.08961,1652819550.09431,1652819551.44226,1652819551.44011,1652820152.29752,1
107,4,1,3,1,2,4,c4_HowHand,2,reaching?,108,H_532.jpg,1652819545.06085,1652819545.07379,0.0345845127105711,0.0350184440612793,0.0846040153503416,2.11869596481323,0.3,3.93603967666626,1.28381109237671,5.22366093635559,1,left,1.26317381858826,5.21985076904297,604.476662149429,607.236662149429,1652819547.85544,1652819547.86174,1652819547.90546,1652819547.91062,1652819549.93955,1652819551.75689,1652819551.7604,1652819553.04451,1652819553.0407,1652820152.29752,0
107,4,1,3,1,3,4,c4_HowHand,1,reaching?,109,H_474.jpg,1652819545.06085,1652819545.07379,0.0345845127105711,0.0350184440612793,0.0846040153503416,2.11869596481323,0.3,5.53663705825806,0.850316762924194,6.3892440700531,1,left,0.839995861053467,6.38695382118225,604.476662149429,607.236662149429,1652819547.85544,1652819547.86174,1652819547.90546,1652819547.91062,1652819549.93955,1652819553.35749,1652819553.36041,1652819554.2101,1652819554.20781,1652820152.29752,1
107,4,1,3,1,4,4,c4_HowHand,2,reaching?,105,H_438.jpg,1652819545.06085,1652819545.07379,0.0345845127105711,0.0350184440612793,0.0846040153503416,2.11869596481323,0.3,6.70373915672302,1.1170825958252,7.82340215682983,3,right,1.10866904258728,7.82082175254822,604.476662149429,607.236662149429,1652819547.85544,1652819547.86174,1652819547.90546,1652819547.91062,1652819549.93955,1652819554.52459,1652819554.52711,1652819555.64426,1652819555.64168,1652820152.29752,0
107,4,1,3,1,5,4,c4_HowHand,1,reaching?,110,H_364.jpg,1652819545.06085,1652819545.07379,0.0345845127105711,0.0350184440612793,0.0846040153503416,2.11869596481323,0.3,8.13760684967041,1.16710209846497,9.30748008728027,1,left,1.14456582069397,9.30470894813538,604.476662149429,607.236662149429,1652819547.85544,1652819547.86174,1652819547.90546,1652819547.91062,1652819549.93955,1652819555.95846,1652819555.9614,1652819557.12833,1652819557.12556,1652820152.29752,1
107,4,1,3,1,6,4,c4_HowHand,1,reaching?,106,H_006.jpg,1652819545.06085,1652819545.07379,0.0345845127105711,0.0350184440612793,0.0846040153503416,2.11869596481323,0.3,9.62149404525757,1.10040950775146,10.7234070205688,1,left,1.07939600944519,10.721903553009,604.476662149429,607.236662149429,1652819547.85544,1652819547.86174,1652819547.90546,1652819547.91062,1652819549.93955,1652819557.44235,1652819557.44407,1652819558.54426,1652819558.54276,1652820152.29752,1
107,4,1,3,1,7,4,c4_HowHand,1,reaching?,111,H_003.jpg,1652819545.06085,1652819545.07379,0.0345845127105711,0.0350184440612793,0.0846040153503416,2.11869596481323,0.3,11.0386884117126,1.06706357002258,12.1071979904175,1,left,1.05005598068237,12.1057519817352,604.476662149429,607.236662149429,1652819547.85544,1652819547.86174,1652819547.90546,1652819547.91062,1652819549.93955,1652819558.85954,1652819558.86135,1652819559.92805,1652819559.92661,1652820152.29752,1
107,4,1,3,1,8,4,c4_HowHand,2,reaching?,112,H_132.jpg,1652819545.06085,1652819545.07379,0.0345845127105711,0.0350184440612793,0.0846040153503416,2.11869596481323,0.3,12.4225375556946,0.866990566253662,13.2910430335999,3,right,0.844630002975464,13.2895281219482,604.476662149429,607.236662149429,1652819547.85544,1652819547.86174,1652819547.90546,1652819547.91062,1652819549.93955,1652819560.24339,1652819560.24528,1652819561.1119,1652819561.11038,1652820152.29752,0
107,4,1,3,2,1,2,c2_WhyHand,1,healthy?,21,H_627.jpg,1652819545.06085,1652819545.07379,13.5229477787018,4.00837135314941,17.541114320755,19.6418964767456,2.1007821559906,19.7919530773163,0.800297498703003,20.6061699295044,1,left,0.790940046310425,20.5922505760193,604.476662149429,607.236662149429,1652819561.3438,1652819561.34593,1652819565.36197,1652819565.36433,1652819567.46275,1652819567.61281,1652819567.61462,1652819568.42702,1652819568.4131,1652820152.29752,1
107,4,1,3,2,2,2,c2_WhyHand,1,healthy?,18,H_438.jpg,1652819545.06085,1652819545.07379,13.5229477787018,4.00837135314941,17.541114320755,19.6418964767456,0.3,20.9090363883972,1.28381109237671,22.1939680480957,1,left,1.26729702949524,22.1928474807739,604.476662149429,607.236662149429,1652819561.3438,1652819561.34593,1652819565.36197,1652819565.36433,1652819567.46275,1652819568.72989,1652819568.73132,1652819570.01482,1652819570.0137,1652820152.29752,1
107,4,1,3,2,3,2,c2_WhyHand,1,healthy?,23,H_364.jpg,1652819545.06085,1652819545.07379,13.5229477787018,4.00837135314941,17.541114320755,19.6418964767456,0.3,22.5096325778961,1.71730756759644,24.2622821235657,1,left,1.73005313873291,24.2269401454926,604.476662149429,607.236662149429,1652819561.3438,1652819561.34593,1652819565.36197,1652819565.36433,1652819567.46275,1652819570.33049,1652819570.33254,1652819572.08314,1652819572.04779,1652820152.29752,1
107,4,1,3,2,4,2,c2_WhyHand,2,healthy?,22,H_130.jpg,1652819545.06085,1652819545.07379,13.5229477787018,4.00837135314941,17.541114320755,19.6418964767456,0.3,24.543724527359,0.933682203292847,25.4788710975647,3,right,0.911131143569946,25.4774067306519,604.476662149429,607.236662149429,1652819561.3438,1652819561.34593,1652819565.36197,1652819565.36433,1652819567.46275,1652819572.36458,1652819572.36612,1652819573.29973,1652819573.29826,1652820152.29752,0
107,4,1,3,2,5,2,c2_WhyHand,1,healthy?,17,H_362.jpg,1652819545.06085,1652819545.07379,13.5229477787018,4.00837135314941,17.541114320755,19.6418964767456,0.3,25.7941911125183,0.98370099067688,26.7795550727844,1,left,0.962695121765137,26.7778921031952,604.476662149429,607.236662149429,1652819561.3438,1652819561.34593,1652819565.36197,1652819565.36433,1652819567.46275,1652819573.61505,1652819573.61681,1652819574.60041,1652819574.59875,1652820152.29752,1
107,4,1,3,2,6,2,c2_WhyHand,2,healthy?,20,H_007.jpg,1652819545.06085,1652819545.07379,13.5229477787018,4.00837135314941,17.541114320755,19.6418964767456,0.3,27.0946764850616,1.11708331108093,28.2231740856171,3,right,1.10434198379517,28.2117597961426,604.476662149429,607.236662149429,1652819561.3438,1652819561.34593,1652819565.36197,1652819565.36433,1652819567.46275,1652819574.91553,1652819574.91718,1652819576.04403,1652819576.03261,1652820152.29752,0
107,4,1,3,2,7,2,c2_WhyHand,1,healthy?,19,H_167.jpg,1652819545.06085,1652819545.07379,13.5229477787018,4.00837135314941,17.541114320755,19.6418964767456,0.3,28.5285446548462,0.866989374160767,29.3966729545593,1,left,0.852348804473877,29.395534029007,604.476662149429,607.236662149429,1652819561.3438,1652819561.34593,1652819565.36197,1652819565.36433,1652819567.46275,1652819576.3494,1652819576.35119,1652819577.21753,1652819577.21639,1652820152.29752,1
107,4,1,3,2,8,2,c2_WhyHand,2,healthy?,24,H_019.jpg,1652819545.06085,1652819545.07379,13.5229477787018,4.00837135314941,17.541114320755,19.6418964767456,0.3,29.712318649292,1.58392405509949,31.3062031173706,3,right,1.57319617271423,31.2962427043915,604.476662149429,607.236662149429,1652819561.3438,1652819561.34593,1652819565.36197,1652819565.36433,1652819567.46275,1652819577.53317,1652819577.53425,1652819579.12706,1652819579.1171,1652820152.29752,0
107,4,1,3,3,1,1,c1_WhyFace,1,admiring?,4,F_779.jpg,1652819545.06085,1652819545.07379,31.4129528903961,5.22615122795105,36.6482391262054,38.7490222358704,2.10078310966492,38.899078836441,0.833643436431885,39.739055147171,1,left,0.810715913772583,39.7327222728729,604.476662149429,607.236662149429,1652819579.23381,1652819579.24411,1652819584.46909,1652819584.47759,1652819586.56988,1652819586.71993,1652819586.72793,1652819587.55991,1652819587.55358,1652820152.29752,1
107,4,1,3,3,2,1,c1_WhyFace,1,admiring?,1,F_593.jpg,1652819545.06085,1652819545.07379,31.4129528903961,5.22615122795105,36.6482391262054,38.7490222358704,0.3,40.0495078468323,1.11708331108093,41.1724040412903,1,left,1.1031711101532,41.1665911579132,604.476662149429,607.236662149429,1652819579.23381,1652819579.24411,1652819584.46909,1652819584.47759,1652819586.56988,1652819587.87036,1652819587.87127,1652819588.99326,1652819588.98745,1652820152.29752,1
107,4,1,3,3,3,1,c1_WhyFace,2,admiring?,3,F_110.jpg,1652819545.06085,1652819545.07379,31.4129528903961,5.22615122795105,36.6482391262054,38.7490222358704,0.3,41.4833755397797,1.35050392150879,42.8357341194153,3,right,1.32786297798157,42.8338794612885,604.476662149429,607.236662149429,1652819579.23381,1652819579.24411,1652819584.46909,1652819584.47759,1652819586.56988,1652819589.30423,1652819589.30606,1652819590.65659,1652819590.65473,1652820152.29752,0
107,4,1,3,3,4,1,c1_WhyFace,1,admiring?,8,F_590.jpg,1652819545.06085,1652819545.07379,31.4129528903961,5.22615122795105,36.6482391262054,38.7490222358704,0.3,43.1506633663178,0.800297975540161,43.95568608284,1,left,0.793442010879517,43.9509613418579,604.476662149429,607.236662149429,1652819579.23381,1652819579.24411,1652819584.46909,1652819584.47759,1652819586.56988,1652819590.97152,1652819590.97286,1652819591.77654,1652819591.77182,1652820152.29752,1
107,4,1,3,3,5,1,c1_WhyFace,2,admiring?,6,F_692.jpg,1652819545.06085,1652819545.07379,31.4129528903961,5.22615122795105,36.6482391262054,38.7490222358704,0.3,44.2677466773987,1.50056004524231,45.7723951244354,3,right,1.48597002029419,45.768306722641,604.476662149429,607.236662149429,1652819579.23381,1652819579.24411,1652819584.46909,1652819584.47759,1652819586.56988,1652819592.0886,1652819592.09016,1652819593.59325,1652819593.58916,1652820152.29752,0
107,4,1,3,3,6,1,c1_WhyFace,1,admiring?,5,F_759.jpg,1652819545.06085,1652819545.07379,31.4129528903961,5.22615122795105,36.6482391262054,38.7490222358704,0.3,46.0850915813446,1.23379325866699,47.3231570625305,1,left,1.22431707382202,47.3188848400116,604.476662149429,607.236662149429,1652819579.23381,1652819579.24411,1652819584.46909,1652819584.47759,1652819586.56988,1652819593.90595,1652819593.90768,1652819595.14401,1652819595.13974,1652820152.29752,1
107,4,1,3,3,7,1,c1_WhyFace,1,admiring?,7,F_648.jpg,1652819545.06085,1652819545.07379,31.4129528903961,5.22615122795105,36.6482391262054,38.7490222358704,0.3,47.6356694602966,0.9170081615448,48.5564720535278,1,left,0.898285865783691,48.5526776218414,604.476662149429,607.236662149429,1652819579.23381,1652819579.24411,1652819584.46909,1652819584.47759,1652819586.56988,1652819595.45652,1652819595.4611,1652819596.37733,1652819596.37353,1652820152.29752,1
107,4,1,3,3,8,1,c1_WhyFace,2,admiring?,2,F_129.jpg,1652819545.06085,1652819545.07379,31.4129528903961,5.22615122795105,36.6482391262054,38.7490222358704,0.3,48.8694627189636,1.03371906280518,49.9058561229706,3,right,1.01854515075684,49.9031817817688,604.476662149429,607.236662149429,1652819579.23381,1652819579.24411,1652819584.46909,1652819584.47759,1652819586.56988,1652819596.69032,1652819596.69378,1652819597.72671,1652819597.72404,1652820152.29752,0
107,4,1,3,4,1,3,c3_HowFace,1,smiling?,119,F_139.jpg,1652819545.06085,1652819545.07379,49.9865465068817,5.61674451828003,55.6219818496704,57.7060921096802,2.08411026000977,57.8561479949951,1.1337559223175,58.9916219615936,1,left,1.09783005714417,58.9899039173126,604.476662149429,607.236662149429,1652819597.8074,1652819597.81089,1652819603.44284,1652819603.44526,1652819605.52695,1652819605.677,1652819605.6942,1652819606.81248,1652819606.81076,1652820152.29752,1
107,4,1,3,4,2,3,c3_HowFace,2,smiling?,113,F_712.jpg,1652819545.06085,1652819545.07379,49.9865465068817,5.61674451828003,55.6219818496704,57.7060921096802,0.3,59.3066882991791,0.967028141021729,60.2755739593506,3,right,0.951292991638184,60.2737164402008,604.476662149429,607.236662149429,1652819597.8074,1652819597.81089,1652819603.44284,1652819603.44526,1652819605.52695,1652819607.12754,1652819607.12918,1652819608.09643,1652819608.09457,1652820152.29752,0
107,4,1,3,4,3,3,c3_HowFace,1,smiling?,115,F_695.jpg,1652819545.06085,1652819545.07379,49.9865465068817,5.61674451828003,55.6219818496704,57.7060921096802,0.3,60.5905012989044,0.750279426574707,61.3560831451416,1,left,0.743110179901123,61.3407807254791,604.476662149429,607.236662149429,1652819597.8074,1652819597.81089,1652819603.44284,1652819603.44526,1652819605.52695,1652819608.41136,1652819608.41308,1652819609.17694,1652819609.16163,1652820152.29752,1
107,4,1,3,4,4,3,c3_HowFace,2,smiling?,120,F_758.jpg,1652819545.06085,1652819545.07379,49.9865465068817,5.61674451828003,55.6219818496704,57.7060921096802,0.3,61.6575655841827,0.816971302032471,62.4759700202942,3,right,0.803305864334106,62.4745368862152,604.476662149429,607.236662149429,1652819597.8074,1652819597.81089,1652819603.44284,1652819603.44526,1652819605.52695,1652819609.47842,1652819609.48065,1652819610.29682,1652819610.29539,1652820152.29752,0
107,4,1,3,4,5,3,c3_HowFace,1,smiling?,116,F_083.jpg,1652819545.06085,1652819545.07379,49.9865465068817,5.61674451828003,55.6219818496704,57.7060921096802,0.3,62.791322221756,0.883662939071655,63.6890921497345,1,left,0.873898983001709,63.6749851608276,604.476662149429,607.236662149429,1652819597.8074,1652819597.81089,1652819603.44284,1652819603.44526,1652819605.52695,1652819610.61218,1652819610.61381,1652819611.50995,1652819611.49584,1652820152.29752,1
107,4,1,3,4,6,3,c3_HowFace,1,smiling?,118,F_759.jpg,1652819545.06085,1652819545.07379,49.9865465068817,5.61674451828003,55.6219818496704,57.7060921096802,0.3,63.9917685890198,0.733606815338135,64.739037027359,1,left,0.724103927612305,64.7253754043579,604.476662149429,607.236662149429,1652819597.8074,1652819597.81089,1652819603.44284,1652819603.44526,1652819605.52695,1652819611.81262,1652819611.81418,1652819612.55989,1652819612.54623,1652820152.29752,1
107,4,1,3,4,7,3,c3_HowFace,2,smiling?,114,F_412.jpg,1652819545.06085,1652819545.07379,49.9865465068817,5.61674451828003,55.6219818496704,57.7060921096802,0.3,65.0421607398987,0.733607053756714,65.7892069721222,3,right,0.722946882247925,65.7757677936554,604.476662149429,607.236662149429,1652819597.8074,1652819597.81089,1652819603.44284,1652819603.44526,1652819605.52695,1652819612.86301,1652819612.86485,1652819613.61006,1652819613.59662,1652820152.29752,0
107,4,1,3,4,8,3,c3_HowFace,1,smiling?,117,F_593.jpg,1652819545.06085,1652819545.07379,49.9865465068817,5.61674451828003,55.6219818496704,57.7060921096802,0.3,66.092552652359,0.783625364303589,66.8779950046539,1,left,0.769976139068604,66.8761780166626,604.476662149429,607.236662149429,1652819597.8074,1652819597.81089,1652819603.44284,1652819603.44526,1652819605.52695,1652819613.91341,1652819613.91524,1652819614.69885,1652819614.69703,1652820152.29752,1
107,4,1,3,5,1,4,c4_HowHand,1,lifting?,56,H_136.jpg,1652819545.06085,1652819545.07379,66.9428701305389,6.19092798233032,73.1451823616028,75.2459666633606,2.10078430175781,75.3960218334198,1.18377447128296,76.5895481014252,1,left,1.16867995262146,76.5797963047028,604.476662149429,607.236662149429,1652819614.76372,1652819614.77835,1652819620.96604,1652819620.97926,1652819623.06682,1652819623.21688,1652819623.21878,1652819624.4104,1652819624.40065,1652820152.29752,1
107,4,1,3,5,2,4,c4_HowHand,2,lifting?,51,H_038.jpg,1652819545.06085,1652819545.07379,66.9428701305389,6.19092798233032,73.1451823616028,75.2459666633606,0.3,76.8965816402435,1.15042948722839,78.0557291412353,3,right,1.13520002365112,78.0470111274719,604.476662149429,607.236662149429,1652819614.76372,1652819614.77835,1652819620.96604,1652819620.97926,1652819623.06682,1652819624.71744,1652819624.71958,1652819625.87658,1652819625.86787,1652820152.29752,0
107,4,1,3,5,3,4,c4_HowHand,1,lifting?,52,H_189.jpg,1652819545.06085,1652819545.07379,66.9428701305389,6.19092798233032,73.1451823616028,75.2459666633606,0.3,78.363795747757,1.18377375602722,79.5486080551147,1,left,1.16615700721741,79.5475695037842,604.476662149429,607.236662149429,1652819614.76372,1652819614.77835,1652819620.96604,1652819620.97926,1652819623.06682,1652819626.18465,1652819626.1862,1652819627.36946,1652819627.36842,1652820152.29752,1
107,4,1,3,5,4,4,c4_HowHand,2,lifting?,53,H_077.jpg,1652819545.06085,1652819545.07379,66.9428701305389,6.19092798233032,73.1451823616028,75.2459666633606,0.3,79.8643557929993,1.38384914398193,81.2563440704346,3,right,1.37492489814758,81.2482049369812,604.476662149429,607.236662149429,1652819614.76372,1652819614.77835,1652819620.96604,1652819620.97926,1652819623.06682,1652819627.68521,1652819627.68707,1652819629.0772,1652819629.06906,1652820152.29752,0
107,4,1,3,5,5,4,c4_HowHand,1,lifting?,50,H_443.jpg,1652819545.06085,1652819545.07379,66.9428701305389,6.19092798233032,73.1451823616028,75.2459666633606,0.3,81.5649888420105,1.33383059501648,82.9062600040436,1,left,1.32729506492615,82.898819437027,604.476662149429,607.236662149429,1652819614.76372,1652819614.77835,1652819620.96604,1652819620.97926,1652819623.06682,1652819629.38584,1652819629.38706,1652819630.72711,1652819630.71967,1652820152.29752,1
107,4,1,3,5,6,4,c4_HowHand,2,lifting?,55,H_012.jpg,1652819545.06085,1652819545.07379,66.9428701305389,6.19092798233032,73.1451823616028,75.2459666633606,0.3,83.2156047725677,0.967026710510254,84.1838390731811,3,right,0.947285890579224,84.182631483078,604.476662149429,607.236662149429,1652819614.76372,1652819614.77835,1652819620.96604,1652819620.97926,1652819623.06682,1652819631.03646,1652819631.03841,1652819632.00469,1652819632.00349,1652820152.29752,0
107,4,1,3,5,7,4,c4_HowHand,1,lifting?,49,H_362.jpg,1652819545.06085,1652819545.07379,66.9428701305389,6.19092798233032,73.1451823616028,75.2459666633606,0.3,84.4994175338745,0.783625364303589,85.2841119670868,1,left,0.762037992477417,85.2830428981781,604.476662149429,607.236662149429,1652819614.76372,1652819614.77835,1652819620.96604,1652819620.97926,1652819623.06682,1652819632.32027,1652819632.32176,1652819633.10497,1652819633.1039,1652820152.29752,1
107,4,1,3,5,8,4,c4_HowHand,1,lifting?,54,H_170.jpg,1652819545.06085,1652819545.07379,66.9428701305389,6.19092798233032,73.1451823616028,75.2459666633606,0.3,85.5998272800446,1.26713967323303,86.8723940753937,1,left,1.2544322013855,86.8669669532776,604.476662149429,607.236662149429,1652819614.76372,1652819614.77835,1652819620.96604,1652819620.97926,1652819623.06682,1652819633.42068,1652819633.42227,1652819634.69325,1652819634.68782,1652820152.29752,1
107,4,1,3,6,1,2,c2_WhyHand,1,helping?,38,H_077.jpg,1652819545.06085,1652819545.07379,86.950330247879,8.66473078727722,95.6202311420441,97.7210147285461,2.10078358650208,97.8710706138611,1.31715726852417,99.1892521286011,1,left,1.30739498138428,99.1882278823852,604.476662149429,607.236662149429,1652819634.77118,1652819634.77742,1652819643.44109,1652819643.44406,1652819645.54187,1652819645.69192,1652819645.69389,1652819647.01011,1652819647.00908,1652820152.29752,1
107,4,1,3,6,2,2,c2_WhyHand,1,helping?,36,H_349.jpg,1652819545.06085,1652819545.07379,86.950330247879,8.66473078727722,95.6202311420441,97.7210147285461,0.3,99.5050127410889,0.900336503982544,100.422434082031,1,left,0.893922090530396,100.405349245071,604.476662149429,607.236662149429,1652819634.77118,1652819634.77742,1652819643.44109,1652819643.44406,1652819645.54187,1652819647.32587,1652819647.32721,1652819648.24329,1652819648.2262,1652820152.29752,1
107,4,1,3,6,3,2,c2_WhyHand,1,helping?,37,H_474.jpg,1652819545.06085,1652819545.07379,86.950330247879,8.66473078727722,95.6202311420441,97.7210147285461,0.3,100.722133865356,1.26713871955872,101.990940084457,1,left,1.24811196327209,101.989272584915,604.476662149429,607.236662149429,1652819634.77118,1652819634.77742,1652819643.44109,1652819643.44406,1652819645.54187,1652819648.54299,1652819648.54482,1652819649.81179,1652819649.81013,1652820152.29752,1
107,4,1,3,6,4,2,c2_WhyHand,1,helping?,39,H_024.jpg,1652819545.06085,1652819545.07379,86.950330247879,8.66473078727722,95.6202311420441,97.7210147285461,0.3,102.306058158875,1.7173068523407,104.076511135101,3,right,1.7500271320343,104.023365011215,604.476662149429,607.236662149429,1652819634.77118,1652819634.77742,1652819643.44109,1652819643.44406,1652819645.54187,1652819650.12691,1652819650.12832,1652819651.89737,1652819651.84422,1652820152.29752,0
107,4,1,3,6,5,2,c2_WhyHand,2,helping?,40,H_012.jpg,1652819545.06085,1652819545.07379,86.950330247879,8.66473078727722,95.6202311420441,97.7210147285461,0.3,104.340149393082,0.0166730880737305,104.358520975113,3,right,0.00025486946105957,104.356822481155,604.476662149429,607.236662149429,1652819634.77118,1652819634.77742,1652819643.44109,1652819643.44406,1652819645.54187,1652819652.161,1652819652.16266,1652819652.17937,1652819652.17768,1652820152.29752,0
107,4,1,3,6,6,2,c2_WhyHand,2,helping?,35,H_159.jpg,1652819545.06085,1652819545.07379,86.950330247879,8.66473078727722,95.6202311420441,97.7210147285461,0.3,104.673607578278,1.33383011817932,106.008859148026,3,right,1.31925010681152,106.007437696457,604.476662149429,607.236662149429,1652819634.77118,1652819634.77742,1652819643.44109,1652819643.44406,1652819645.54187,1652819652.49446,1652819652.49668,1652819653.82971,1652819653.82829,1652820152.29752,0
107,4,1,3,6,7,2,c2_WhyHand,1,helping?,34,H_111.jpg,1652819545.06085,1652819545.07379,86.950330247879,8.66473078727722,95.6202311420441,97.7210147285461,0.3,106.324223031998,0.900335311889648,107.225610961914,1,left,0.87800407409668,107.224558343887,604.476662149429,607.236662149429,1652819634.77118,1652819634.77742,1652819643.44109,1652819643.44406,1652819645.54187,1652819654.14508,1652819654.14693,1652819655.04646,1652819655.04541,1652820152.29752,1
107,4,1,3,6,8,2,c2_WhyHand,2,helping?,33,H_091.jpg,1652819545.06085,1652819545.07379,86.950330247879,8.66473078727722,95.6202311420441,97.7210147285461,0.3,107.541343679428,1.50055885314941,109.056376924515,3,right,1.49402403831482,109.041902532578,604.476662149429,607.236662149429,1652819634.77118,1652819634.77742,1652819643.44109,1652819643.44406,1652819645.54187,1652819655.3622,1652819655.36415,1652819656.87723,1652819656.86276,1652820152.29752,0
107,4,1,3,7,1,1,c1_WhyFace,1,proud?,104,F_598.jpg,1652819545.06085,1652819545.07379,109.125266780853,4.36470031738281,113.493563165665,115.594346752167,2.10078358650208,115.7444028759,1.15042757987976,116.89656709671,1,left,1.11733388900757,116.89483045578,604.476662149429,607.236662149429,1652819656.94612,1652819656.94789,1652819661.31442,1652819661.32776,1652819663.4152,1652819663.56526,1652819663.57756,1652819664.71742,1652819664.71568,1652820152.29752,1
107,4,1,3,7,2,1,c1_WhyFace,2,proud?,102,F_760.jpg,1652819545.06085,1652819545.07379,109.125266780853,4.36470031738281,113.493563165665,115.594346752167,0.3,117.211615791321,1.68396210670471,118.897210111618,3,right,1.66858291625977,118.895577898026,604.476662149429,607.236662149429,1652819656.94612,1652819656.94789,1652819661.31442,1652819661.32776,1652819663.4152,1652819665.03247,1652819665.03402,1652819666.71806,1652819666.71643,1652820152.29752,0
107,4,1,3,7,3,1,c1_WhyFace,1,proud?,97,F_582.jpg,1652819545.06085,1652819545.07379,109.125266780853,4.36470031738281,113.493563165665,115.594346752167,0.3,119.212362041473,0.950355052947998,120.164629926682,1,left,0.931579113006592,120.162717094421,604.476662149429,607.236662149429,1652819656.94612,1652819656.94789,1652819661.31442,1652819661.32776,1652819663.4152,1652819667.03322,1652819667.03481,1652819667.98548,1652819667.98357,1652820152.29752,1
107,4,1,3,7,4,1,c1_WhyFace,2,proud?,98,F_412.jpg,1652819545.06085,1652819545.07379,109.125266780853,4.36470031738281,113.493563165665,115.594346752167,0.3,120.479501237869,1.15042877197266,121.631035079956,3,right,1.13286781311035,121.629930009842,604.476662149429,607.236662149429,1652819656.94612,1652819656.94789,1652819661.31442,1652819661.32776,1652819663.4152,1652819668.30036,1652819668.3021,1652819669.45189,1652819669.45078,1652820152.29752,0
107,4,1,3,7,5,1,c1_WhyFace,1,proud?,101,F_083.jpg,1652819545.06085,1652819545.07379,109.125266780853,4.36470031738281,113.493563165665,115.594346752167,0.3,121.946715106964,1.00037264823914,122.95568107605,1,left,0.990287065505981,122.947087755203,604.476662149429,607.236662149429,1652819656.94612,1652819656.94789,1652819661.31442,1652819661.32776,1652819663.4152,1652819669.76757,1652819669.7694,1652819670.77654,1652819670.76794,1652820152.29752,1
107,4,1,3,7,6,1,c1_WhyFace,2,proud?,100,F_776.jpg,1652819545.06085,1652819545.07379,109.125266780853,4.36470031738281,113.493563165665,115.594346752167,0.3,123.263872852325,1.28381204605103,124.556398143768,3,right,1.27549695968628,124.547684898376,604.476662149429,607.236662149429,1652819656.94612,1652819656.94789,1652819661.31442,1652819661.32776,1652819663.4152,1652819671.08473,1652819671.08635,1652819672.37725,1652819672.36854,1652820152.29752,0
107,4,1,3,7,7,1,c1_WhyFace,1,proud?,103,F_618.jpg,1652819545.06085,1652819545.07379,109.125266780853,4.36470031738281,113.493563165665,115.594346752167,0.3,124.864469280243,1.71730780601501,126.591927042007,1,left,1.70467705726624,126.581777086258,604.476662149429,607.236662149429,1652819656.94612,1652819656.94789,1652819661.31442,1652819661.32776,1652819663.4152,1652819672.68532,1652819672.68746,1652819674.41278,1652819674.40263,1652820152.29752,1
107,4,1,3,7,8,1,c1_WhyFace,1,proud?,99,F_695.jpg,1652819545.06085,1652819545.07379,109.125266780853,4.36470031738281,113.493563165665,115.594346752167,0.3,126.898561468124,1.60059762001038,128.50084113121,1,left,1.5794689655304,128.499159088135,604.476662149429,607.236662149429,1652819656.94612,1652819656.94789,1652819661.31442,1652819661.32776,1652819663.4152,1652819674.71942,1652819674.72091,1652819676.3217,1652819676.32001,1652820152.29752,1
107,4,1,3,8,1,3,c3_HowFace,1,looking to side?,72,F_590.jpg,1652819545.06085,1652819545.07379,128.565850963593,2.4541130065918,131.033438196182,133.13422082901,2.10078263282776,133.284276952744,1.31715774536133,134.603144159317,1,left,1.28985285758972,134.601434698105,604.476662149429,607.236662149429,1652819676.3867,1652819676.39388,1652819678.85429,1652819678.86095,1652819680.95507,1652819681.10513,1652819681.11083,1652819682.424,1652819682.42229,1652820152.29752,1
107,4,1,3,8,2,3,c3_HowFace,1,looking to side?,71,F_433.jpg,1652819545.06085,1652819545.07379,128.565850963593,2.4541130065918,131.033438196182,133.13422082901,0.3,134.918218841553,0.866990804672241,135.789082040787,1,left,0.856432199478149,135.785209646225,604.476662149429,607.236662149429,1652819676.3867,1652819676.39388,1652819678.85429,1652819678.86095,1652819680.95507,1652819682.73907,1652819682.74433,1652819683.60994,1652819683.60606,1652820152.29752,1
107,4,1,3,8,3,3,c3_HowFace,1,looking to side?,67,F_716.jpg,1652819545.06085,1652819545.07379,128.565850963593,2.4541130065918,131.033438196182,133.13422082901,0.3,136.101994028091,0.800298452377319,136.906204929352,1,left,0.782046794891357,136.902292480469,604.476662149429,607.236662149429,1652819676.3867,1652819676.39388,1652819678.85429,1652819678.86095,1652819680.95507,1652819683.92285,1652819683.92696,1652819684.72706,1652819684.72315,1652820152.29752,1
107,4,1,3,8,4,3,c3_HowFace,2,looking to side?,70,F_779.jpg,1652819545.06085,1652819545.07379,128.565850963593,2.4541130065918,131.033438196182,133.13422082901,0.3,137.219078292847,1.067063331604,138.289740076065,3,right,1.0498640537262,138.286141624451,604.476662149429,607.236662149429,1652819676.3867,1652819676.39388,1652819678.85429,1652819678.86095,1652819680.95507,1652819685.03993,1652819685.04402,1652819686.11059,1652819686.107,1652820152.29752,0
107,4,1,3,8,5,3,c3_HowFace,1,looking to side?,68,F_760.jpg,1652819545.06085,1652819545.07379,128.565850963593,2.4541130065918,131.033438196182,133.13422082901,0.3,138.602926959991,1.3004846572876,139.906079044342,1,left,1.28746104240417,139.903411617279,604.476662149429,607.236662149429,1652819676.3867,1652819676.39388,1652819678.85429,1652819678.86095,1652819680.95507,1652819686.42378,1652819686.42728,1652819687.72693,1652819687.72427,1652820152.29752,1
107,4,1,3,8,6,3,c3_HowFace,2,looking to side?,66,F_111.jpg,1652819545.06085,1652819545.07379,128.565850963593,2.4541130065918,131.033438196182,133.13422082901,0.3,140.220197191238,1.35050368309021,141.572412004471,3,right,1.33390116691589,141.570700874329,604.476662149429,607.236662149429,1652819676.3867,1652819676.39388,1652819678.85429,1652819678.86095,1652819680.95507,1652819688.04105,1652819688.04392,1652819689.39327,1652819689.39155,1652820152.29752,0
107,4,1,3,8,7,3,c3_HowFace,1,looking to side?,69,F_110.jpg,1652819545.06085,1652819545.07379,128.565850963593,2.4541130065918,131.033438196182,133.13422082901,0.3,141.887484779358,1.50056004524231,143.389727106094,3,right,1.4782600402832,143.3880448246,604.476662149429,607.236662149429,1652819676.3867,1652819676.39388,1652819678.85429,1652819678.86095,1652819680.95507,1652819689.70834,1652819689.71074,1652819691.21058,1652819691.2089,1652820152.29752,0
107,4,1,3,8,8,3,c3_HowFace,2,looking to side?,65,F_798.jpg,1652819545.06085,1652819545.07379,128.565850963593,2.4541130065918,131.033438196182,133.13422082901,0.3,143.704829683304,1.71730709075928,145.42315410614,3,right,1.69482612609863,145.422136774063,604.476662149429,607.236662149429,1652819676.3867,1652819676.39388,1652819678.85429,1652819678.86095,1652819680.95507,1652819691.52568,1652819691.52742,1652819693.24401,1652819693.24299,1652820152.29752,0
107,4,1,3,9,1,1,c1_WhyFace,1,argument?,43,F_716.jpg,1652819545.06085,1652819545.07379,145.488826980591,4.63913297653198,150.140562524796,152.241347303391,2.10078477859497,152.391402235031,1.48388695716858,153.876664152145,1,left,1.4676730632782,153.8752891922,604.476662149429,607.236662149429,1652819693.30968,1652819693.3114,1652819697.96142,1652819697.96335,1652819700.0622,1652819700.21226,1652819700.21407,1652819701.69752,1652819701.69614,1652820152.29752,1
107,4,1,3,9,2,1,c1_WhyFace,2,argument?,44,F_139.jpg,1652819545.06085,1652819545.07379,145.488826980591,4.63913297653198,150.140562524796,152.241347303391,0.3,154.192074050903,1.01704621315002,155.210992088318,3,right,0.995885848999023,155.209120264053,604.476662149429,607.236662149429,1652819693.30968,1652819693.3114,1652819697.96142,1652819697.96335,1652819700.0622,1652819702.01293,1652819702.0149,1652819703.03185,1652819703.02997,1652820152.29752,0
107,4,1,3,9,3,1,c1_WhyFace,1,argument?,41,F_712.jpg,1652819545.06085,1652819545.07379,145.488826980591,4.63913297653198,150.140562524796,152.241347303391,0.3,155.525905122757,0.950353145599365,156.47775601387,1,left,0.931306838989258,156.476258268356,604.476662149429,607.236662149429,1652819693.30968,1652819693.3114,1652819697.96142,1652819697.96335,1652819700.0622,1652819703.34676,1652819703.34864,1652819704.29861,1652819704.29711,1652820152.29752,1
107,4,1,3,9,4,1,c1_WhyFace,2,argument?,45,F_433.jpg,1652819545.06085,1652819545.07379,145.488826980591,4.63913297653198,150.140562524796,152.241347303391,0.3,156.793043365479,0.983700275421143,157.778347959518,3,right,0.968673944473267,157.7767436409,604.476662149429,607.236662149429,1652819693.30968,1652819693.3114,1652819697.96142,1652819697.96335,1652819700.0622,1652819704.6139,1652819704.61565,1652819705.5992,1652819705.5976,1652820152.29752,0
107,4,1,3,9,5,1,c1_WhyFace,1,argument?,42,F_403.jpg,1652819545.06085,1652819545.07379,145.488826980591,4.63913297653198,150.140562524796,152.241347303391,0.3,158.093528738022,0.800297498703003,158.905749073029,1,left,0.789645910263062,158.893826236725,604.476662149429,607.236662149429,1652819693.30968,1652819693.3114,1652819697.96142,1652819697.96335,1652819700.0622,1652819705.91438,1652819705.91597,1652819706.7266,1652819706.71468,1652820152.29752,1
107,4,1,3,9,6,1,c1_WhyFace,2,argument?,46,F_844.jpg,1652819545.06085,1652819545.07379,145.488826980591,4.63913297653198,150.140562524796,152.241347303391,0.3,159.210611333847,1.21712017059326,160.429171075821,3,right,1.19895505905151,160.42773150444,604.476662149429,607.236662149429,1652819693.30968,1652819693.3114,1652819697.96142,1652819697.96335,1652819700.0622,1652819707.03147,1652819707.03311,1652819708.25003,1652819708.24859,1652820152.29752,0
107,4,1,3,9,7,1,c1_WhyFace,1,argument?,47,F_743.jpg,1652819545.06085,1652819545.07379,145.488826980591,4.63913297653198,150.140562524796,152.241347303391,0.3,160.7445170784,1.01704597473145,161.763260116577,1,left,0.998709201812744,161.761563053131,604.476662149429,607.236662149429,1652819693.30968,1652819693.3114,1652819697.96142,1652819697.96335,1652819700.0622,1652819708.56537,1652819708.56727,1652819709.58411,1652819709.58242,1652820152.29752,1
107,4,1,3,9,8,1,c1_WhyFace,1,argument?,48,F_758.jpg,1652819545.06085,1652819545.07379,145.488826980591,4.63913297653198,150.140562524796,152.241347303391,0.3,162.078348388672,1.00037264823914,163.080418100357,1,left,0.980646848678589,163.078721036911,604.476662149429,607.236662149429,1652819693.30968,1652819693.3114,1652819697.96142,1652819697.96335,1652819700.0622,1652819709.8992,1652819709.90078,1652819710.90127,1652819710.89957,1652820152.29752,1
107,4,1,3,10,1,3,c3_HowFace,1,open mouth?,80,F_844.jpg,1652819545.06085,1652819545.07379,163.14541267395,4.82253241539001,167.980548849106,170.081332912445,2.10078406333923,170.231389036179,0.750278949737549,170.989088048935,1,left,0.733585119247437,170.981667985916,604.476662149429,607.236662149429,1652819710.96627,1652819710.97733,1652819715.8014,1652819715.80384,1652819717.90219,1652819718.05224,1652819718.05376,1652819718.80994,1652819718.80252,1652820152.29752,1
107,4,1,3,10,2,3,c3_HowFace,1,open mouth?,74,F_776.jpg,1652819545.06085,1652819545.07379,163.14541267395,4.82253241539001,167.980548849106,170.081332912445,0.3,171.298453083038,0.616896629333496,171.922429075241,1,left,0.605783939361572,171.915349712372,604.476662149429,607.236662149429,1652819710.96627,1652819710.97733,1652819715.8014,1652819715.80384,1652819717.90219,1652819719.11931,1652819719.12086,1652819719.74328,1652819719.7362,1652820152.29752,1
107,4,1,3,10,3,3,c3_HowFace,2,open mouth?,76,F_544.jpg,1652819545.06085,1652819545.07379,163.14541267395,4.82253241539001,167.980548849106,170.081332912445,0.3,172.232135047913,0.766951322555542,173.00086306572,3,right,0.742792844772339,172.999086370468,604.476662149429,607.236662149429,1652819710.96627,1652819710.97733,1652819715.8014,1652819715.80384,1652819717.90219,1652819720.05299,1652819720.05508,1652819720.82172,1652819720.81994,1652820152.29752,0
107,4,1,3,10,4,3,c3_HowFace,1,open mouth?,78,F_692.jpg,1652819545.06085,1652819545.07379,163.14541267395,4.82253241539001,167.980548849106,170.081332912445,0.3,173.315870752335,0.58355188369751,173.90116809845,1,left,0.562325954437256,173.899422636032,604.476662149429,607.236662149429,1652819710.96627,1652819710.97733,1652819715.8014,1652819715.80384,1652819717.90219,1652819721.13672,1652819721.13837,1652819721.72202,1652819721.72028,1652820152.29752,1
107,4,1,3,10,5,3,c3_HowFace,2,open mouth?,77,F_584.jpg,1652819545.06085,1652819545.07379,163.14541267395,4.82253241539001,167.980548849106,170.081332912445,0.3,174.216207256317,0.716934204101562,174.939067115784,3,right,0.706943035125732,174.933141460419,604.476662149429,607.236662149429,1652819710.96627,1652819710.97733,1652819715.8014,1652819715.80384,1652819717.90219,1652819722.03706,1652819722.03854,1652819722.75992,1652819722.754,1652820152.29752,0
107,4,1,3,10,6,3,c3_HowFace,1,open mouth?,73,F_403.jpg,1652819545.06085,1652819545.07379,163.14541267395,4.82253241539001,167.980548849106,170.081332912445,0.3,175.249926557541,0.600223064422607,175.85609005928,1,left,0.582062005996704,175.850149621964,604.476662149429,607.236662149429,1652819710.96627,1652819710.97733,1652819715.8014,1652819715.80384,1652819717.90219,1652819723.07078,1652819723.07221,1652819723.67694,1652819723.671,1652820152.29752,1
107,4,1,3,10,7,3,c3_HowFace,1,open mouth?,75,F_086.jpg,1652819545.06085,1652819545.07379,163.14541267395,4.82253241539001,167.980548849106,170.081332912445,0.3,176.166934480667,0.666916370391846,176.839107980728,1,left,0.651160001754761,176.833850851059,604.476662149429,607.236662149429,1652819710.96627,1652819710.97733,1652819715.8014,1652819715.80384,1652819717.90219,1652819723.98779,1652819723.98949,1652819724.65996,1652819724.6547,1652820152.29752,1
107,4,1,3,10,8,3,c3_HowFace,2,open mouth?,79,F_648.jpg,1652819545.06085,1652819545.07379,163.14541267395,4.82253241539001,167.980548849106,170.081332912445,0.3,177.15063451767,0.666916131973267,177.822781076431,3,right,0.656690120697021,177.817550649643,604.476662149429,607.236662149429,1652819710.96627,1652819710.97733,1652819715.8014,1652819715.80384,1652819717.90219,1652819724.97149,1652819724.97309,1652819725.64364,1652819725.6384,1652820152.29752,0
107,4,1,3,11,1,4,c4_HowHand,1,pressing button?,88,H_019.jpg,1652819545.06085,1652819545.07379,177.900915851593,7.95709919929504,185.8705539608,187.971337070465,2.10078310966492,188.121394147873,0.917007684707642,189.039529075623,1,left,0.894259929656982,189.038401832581,604.476662149429,607.236662149429,1652819725.72177,1652819725.72731,1652819733.69141,1652819733.69425,1652819735.79219,1652819735.94225,1652819735.94413,1652819736.86038,1652819736.85926,1652820152.29752,1
107,4,1,3,11,2,4,c4_HowHand,2,pressing button?,87,H_024.jpg,1652819545.06085,1652819545.07379,177.900915851593,7.95709919929504,185.8705539608,187.971337070465,0.3,189.355186452866,0.917009115219116,190.273903121948,3,right,0.897117853164673,190.272195568085,604.476662149429,607.236662149429,1652819725.72177,1652819725.72731,1652819733.69141,1652819733.69425,1652819735.79219,1652819737.17604,1652819737.17778,1652819738.09476,1652819738.09305,1652820152.29752,0
107,4,1,3,11,3,4,c4_HowHand,2,pressing button?,85,H_130.jpg,1652819545.06085,1652819545.07379,177.900915851593,7.95709919929504,185.8705539608,187.971337070465,0.3,190.588979473114,0.866990804672241,191.457740058899,3,right,0.849103927612305,191.455970277786,604.476662149429,607.236662149429,1652819725.72177,1652819725.72731,1652819733.69141,1652819733.69425,1652819735.79219,1652819738.40983,1652819738.41171,1652819739.27859,1652819739.27682,1652820152.29752,0
107,4,1,3,11,4,4,c4_HowHand,1,pressing button?,83,H_502.jpg,1652819545.06085,1652819545.07379,177.900915851593,7.95709919929504,185.8705539608,187.971337070465,0.3,191.772755374908,0.933681726455688,192.722600927353,1,left,0.926407098770142,192.706437101364,604.476662149429,607.236662149429,1652819725.72177,1652819725.72731,1652819733.69141,1652819733.69425,1652819735.79219,1652819739.59361,1652819739.59538,1652819740.54345,1652819740.52729,1652820152.29752,1
107,4,1,3,11,5,4,c4_HowHand,2,pressing button?,81,H_261.jpg,1652819545.06085,1652819545.07379,177.900915851593,7.95709919929504,185.8705539608,187.971337070465,0.3,193.023220291138,0.783626079559326,193.808372964859,3,right,0.760726928710938,193.806846370697,604.476662149429,607.236662149429,1652819725.72177,1652819725.72731,1652819733.69141,1652819733.69425,1652819735.79219,1652819740.84407,1652819740.8458,1652819741.62923,1652819741.6277,1652820152.29752,0
107,4,1,3,11,6,4,c4_HowHand,1,pressing button?,86,H_332.jpg,1652819545.06085,1652819545.07379,177.900915851593,7.95709919929504,185.8705539608,187.971337070465,0.3,194.123631467819,0.766953229904175,194.891538133621,1,left,0.755880117416382,194.890584697723,604.476662149429,607.236662149429,1652819725.72177,1652819725.72731,1652819733.69141,1652819733.69425,1652819735.79219,1652819741.94449,1652819741.94617,1652819742.71239,1652819742.71144,1652820152.29752,1
107,4,1,3,11,7,4,c4_HowHand,1,pressing button?,82,H_126.jpg,1652819545.06085,1652819545.07379,177.900915851593,7.95709919929504,185.8705539608,187.971337070465,0.3,195.207370510101,0.683587551116943,195.892043104172,1,left,0.671571016311646,195.890958061218,604.476662149429,607.236662149429,1652819725.72177,1652819725.72731,1652819733.69141,1652819733.69425,1652819735.79219,1652819743.02822,1652819743.02988,1652819743.7129,1652819743.71181,1652820152.29752,1
107,4,1,3,11,8,4,c4_HowHand,1,pressing button?,84,H_483.jpg,1652819545.06085,1652819545.07379,177.900915851593,7.95709919929504,185.8705539608,187.971337070465,0.3,196.20774315834,1.61726880073547,197.826758136749,3,right,1.60333704948425,197.825011959076,604.476662149429,607.236662149429,1652819725.72177,1652819725.72731,1652819733.69141,1652819733.69425,1652819735.79219,1652819744.0286,1652819744.03011,1652819745.64761,1652819745.64587,1652820152.29752,0
107,4,1,3,12,1,2,c2_WhyHand,1,competing?,9,H_261.jpg,1652819545.06085,1652819545.07379,197.891703834534,5.75626111030579,203.660522212982,205.76130484581,2.10078263282776,205.911359777451,1.55057907104492,207.463080158234,3,right,1.5274920463562,207.461938848495,604.476662149429,607.236662149429,1652819745.71256,1652819745.72729,1652819751.48138,1652819751.48335,1652819753.58216,1652819753.73221,1652819753.73393,1652819755.28393,1652819755.28279,1652820152.29752,0
107,4,1,3,12,2,2,c2_WhyHand,2,competing?,12,H_483.jpg,1652819545.06085,1652819545.07379,197.891703834534,5.75626111030579,203.660522212982,205.76130484581,0.3,207.778723230362,1.65061688423157,209.431050052643,3,right,1.63522887229919,209.429340114594,604.476662149429,607.236662149429,1652819745.71256,1652819745.72729,1652819751.48138,1652819751.48335,1652819753.58216,1652819755.59958,1652819755.60127,1652819757.2519,1652819757.25019,1652820152.29752,0
107,4,1,3,12,3,2,c2_WhyHand,1,competing?,14,H_132.jpg,1652819545.06085,1652819545.07379,197.891703834534,5.75626111030579,203.660522212982,205.76130484581,0.3,209.746124973297,0.733605861663818,210.480846157074,1,left,0.714088916778564,210.479730834961,604.476662149429,607.236662149429,1652819745.71256,1652819745.72729,1652819751.48138,1652819751.48335,1652819753.58216,1652819757.56698,1652819757.56869,1652819758.3017,1652819758.30058,1652820152.29752,1
107,4,1,3,12,4,2,c2_WhyHand,2,competing?,10,H_126.jpg,1652819545.06085,1652819545.07379,197.891703834534,5.75626111030579,203.660522212982,205.76130484581,0.3,210.796515216827,0.917009592056274,211.722419013977,3,right,0.906897068023682,211.713524808884,604.476662149429,607.236662149429,1652819745.71256,1652819745.72729,1652819751.48138,1652819751.48335,1652819753.58216,1652819758.61737,1652819758.61894,1652819759.54327,1652819759.53438,1652820152.29752,0
107,4,1,3,12,5,2,c2_WhyHand,1,competing?,16,H_136.jpg,1652819545.06085,1652819545.07379,197.891703834534,5.75626111030579,203.660522212982,205.76130484581,0.3,212.030309906006,1.08373737335205,213.115105142593,1,left,1.0609610080719,213.114047279358,604.476662149429,607.236662149429,1652819745.71256,1652819745.72729,1652819751.48138,1652819751.48335,1652819753.58216,1652819759.85116,1652819759.85281,1652819760.93596,1652819760.9349,1652820152.29752,1
107,4,1,3,12,6,2,c2_WhyHand,2,competing?,11,H_502.jpg,1652819545.06085,1652819545.07379,197.891703834534,5.75626111030579,203.660522212982,205.76130484581,0.3,213.430832138062,0.933680772781372,214.366393079758,3,right,0.914855003356934,214.364512910843,604.476662149429,607.236662149429,1652819745.71256,1652819745.72729,1652819751.48138,1652819751.48335,1652819753.58216,1652819761.25169,1652819761.25313,1652819762.18725,1652819762.18537,1652820152.29752,0
107,4,1,3,12,7,2,c2_WhyHand,1,competing?,13,H_003.jpg,1652819545.06085,1652819545.07379,197.891703834534,5.75626111030579,203.660522212982,205.76130484581,0.3,214.681297769547,0.616896629333496,215.305712928772,1,left,0.609337091445923,215.29819439888,604.476662149429,607.236662149429,1652819745.71256,1652819745.72729,1652819751.48138,1652819751.48335,1652819753.58216,1652819762.50215,1652819762.50436,1652819763.12657,1652819763.11905,1652820152.29752,1
107,4,1,3,12,8,2,c2_WhyHand,1,competing?,15,H_170.jpg,1652819545.06085,1652819545.07379,197.891703834534,5.75626111030579,203.660522212982,205.76130484581,0.3,215.614979734421,0.70026159286499,216.31714509964,1,left,0.681934833526611,216.315241327286,604.476662149429,607.236662149429,1652819745.71256,1652819745.72729,1652819751.48138,1652819751.48335,1652819753.58216,1652819763.43583,1652819763.43754,1652819764.138,1652819764.1361,1652820152.29752,1
107,4,1,3,13,1,1,c1_WhyFace,1,self-doubt?,29,F_544.jpg,1652819545.06085,1652819545.07379,216.381931772232,5.33604335784912,221.733927717209,223.834711303711,2.10078358650208,223.984767904282,1.25046563148499,225.239704122543,1,left,1.23641109466553,225.235233535767,604.476662149429,607.236662149429,1652819764.20279,1652819764.2099,1652819769.55478,1652819769.55686,1652819771.65557,1652819771.80562,1652819771.80726,1652819773.06056,1652819773.05609,1652820152.29752,1
107,4,1,3,13,2,1,c1_WhyFace,2,self-doubt?,27,F_086.jpg,1652819545.06085,1652819545.07379,216.381931772232,5.33604335784912,221.733927717209,223.834711303711,0.3,225.552018632889,1.11708283424377,226.673027982712,3,right,1.09919619560242,226.669101467133,604.476662149429,607.236662149429,1652819764.20279,1652819764.2099,1652819769.55478,1652819769.55686,1652819771.65557,1652819773.37287,1652819773.37717,1652819774.49388,1652819774.48996,1652820152.29752,0
107,4,1,3,13,3,1,c1_WhyFace,1,self-doubt?,25,F_798.jpg,1652819545.06085,1652819545.07379,216.381931772232,5.33604335784912,221.733927717209,223.834711303711,0.3,226.985886564255,0.0166738033294678,227.005812158585,3,right,0.000235080718994141,227.002560367584,604.476662149429,607.236662149429,1652819764.20279,1652819764.2099,1652819769.55478,1652819769.55686,1652819771.65557,1652819774.80674,1652819774.81047,1652819774.82667,1652819774.82341,1652820152.29752,0
107,4,1,3,13,4,1,c1_WhyFace,1,self-doubt?,26,F_111.jpg,1652819545.06085,1652819545.07379,216.381931772232,5.33604335784912,221.733927717209,223.834711303711,0.3,227.319345226288,1.61726856231689,228.939065923691,1,left,1.60129308700562,228.936613788605,604.476662149429,607.236662149429,1652819764.20279,1652819764.2099,1652819769.55478,1652819769.55686,1652819771.65557,1652819775.1402,1652819775.14454,1652819776.75992,1652819776.75747,1652820152.29752,1
107,4,1,3,13,5,1,c1_WhyFace,2,self-doubt?,31,F_774.jpg,1652819545.06085,1652819545.07379,216.381931772232,5.33604335784912,221.733927717209,223.834711303711,0.3,229.253398885727,0.850316762924194,230.105587949753,3,right,0.840512990951538,230.103715648651,604.476662149429,607.236662149429,1652819764.20279,1652819764.2099,1652819769.55478,1652819769.55686,1652819771.65557,1652819777.07425,1652819777.07711,1652819777.92644,1652819777.92457,1652820152.29752,0
107,4,1,3,13,6,1,c1_WhyFace,1,self-doubt?,28,F_754.jpg,1652819545.06085,1652819545.07379,216.381931772232,5.33604335784912,221.733927717209,223.834711303711,0.3,230.420500507355,0.0166733264923096,230.439195146561,3,right,0.000399112701416016,230.437173833847,604.476662149429,607.236662149429,1652819764.20279,1652819764.2099,1652819769.55478,1652819769.55686,1652819771.65557,1652819778.24135,1652819778.24422,1652819778.26005,1652819778.25803,1652820152.29752,0
107,4,1,3,13,7,1,c1_WhyFace,2,self-doubt?,32,F_128.jpg,1652819545.06085,1652819545.07379,216.381931772232,5.33604335784912,221.733927717209,223.834711303711,0.3,230.753958454132,1.41719532012939,232.173234930038,3,right,1.39978313446045,232.171153774261,604.476662149429,607.236662149429,1652819764.20279,1652819764.2099,1652819769.55478,1652819769.55686,1652819771.65557,1652819778.57481,1652819778.57704,1652819779.99409,1652819779.99201,1652820152.29752,0
107,4,1,3,13,8,1,c1_WhyFace,1,self-doubt?,30,F_584.jpg,1652819545.06085,1652819545.07379,216.381931772232,5.33604335784912,221.733927717209,223.834711303711,0.3,232.487939348221,1.46721363067627,233.956686964035,1,left,1.4451060295105,233.955152978897,604.476662149429,607.236662149429,1652819764.20279,1652819764.2099,1652819769.55478,1652819769.55686,1652819771.65557,1652819780.30879,1652819780.31041,1652819781.77754,1652819781.77601,1652820152.29752,1
107,4,1,3,14,1,3,c3_HowFace,1,looking at camera?,64,F_128.jpg,1652819545.06085,1652819545.07379,234.021843900681,6.75012612342834,240.791035165787,242.875146141052,2.0841109752655,243.025201311111,0.850317478179932,243.889860143662,1,left,0.828128099441528,243.875518789291,604.476662149429,607.236662149429,1652819781.8427,1652819781.84359,1652819788.61189,1652819788.61389,1652819790.696,1652819790.84606,1652819790.86099,1652819791.71071,1652819791.69637,1652820152.29752,1
107,4,1,3,14,2,3,c3_HowFace,1,looking at camera?,60,F_618.jpg,1652819545.06085,1652819545.07379,234.021843900681,6.75012612342834,240.791035165787,242.875146141052,0.3,244.192303886414,0.750278949737549,244.943956127167,1,left,0.733778953552246,244.942582836151,604.476662149429,607.236662149429,1652819781.8427,1652819781.84359,1652819788.61189,1652819788.61389,1652819790.696,1652819792.01316,1652819792.01501,1652819792.76481,1652819792.76344,1652820152.29752,1
107,4,1,3,14,3,3,c3_HowFace,1,looking at camera?,62,F_598.jpg,1652819545.06085,1652819545.07379,234.021843900681,6.75012612342834,240.791035165787,242.875146141052,0.3,245.259367694855,0.600224494934082,245.861295928955,1,left,0.583252906799316,245.859592189789,604.476662149429,607.236662149429,1652819781.8427,1652819781.84359,1652819788.61189,1652819788.61389,1652819790.696,1652819793.08022,1652819793.08198,1652819793.68215,1652819793.68045,1652820152.29752,1
107,4,1,3,14,4,3,c3_HowFace,2,looking at camera?,63,F_743.jpg,1652819545.06085,1652819545.07379,234.021843900681,6.75012612342834,240.791035165787,242.875146141052,0.3,246.176377048492,0.583550453186035,246.760925998688,3,right,0.570175170898438,246.759927501678,604.476662149429,607.236662149429,1652819781.8427,1652819781.84359,1652819788.61189,1652819788.61389,1652819790.696,1652819793.99723,1652819793.99883,1652819794.58178,1652819794.58078,1652820152.29752,0
107,4,1,3,14,5,3,c3_HowFace,1,looking at camera?,61,F_774.jpg,1652819545.06085,1652819545.07379,234.021843900681,6.75012612342834,240.791035165787,242.875146141052,0.3,247.076713075638,0.583549499511719,247.661982049942,1,left,0.567347049713135,247.66026257515,604.476662149429,607.236662149429,1652819781.8427,1652819781.84359,1652819788.61189,1652819788.61389,1652819790.696,1652819794.89757,1652819794.89915,1652819795.48284,1652819795.48112,1652820152.29752,1
107,4,1,3,14,6,3,c3_HowFace,2,looking at camera?,57,F_582.jpg,1652819545.06085,1652819545.07379,234.021843900681,6.75012612342834,240.791035165787,242.875146141052,0.3,247.977048625946,0.933681011199951,248.912425031662,3,right,0.910402059555054,248.910729637146,604.476662149429,607.236662149429,1652819781.8427,1652819781.84359,1652819788.61189,1652819788.61389,1652819790.696,1652819795.7979,1652819795.79987,1652819796.73328,1652819796.73158,1652820152.29752,0
107,4,1,3,14,7,3,c3_HowFace,2,looking at camera?,58,F_754.jpg,1652819545.06085,1652819545.07379,234.021843900681,6.75012612342834,240.791035165787,242.875146141052,0.3,249.227514257431,1.06706476211548,250.296406974792,3,right,1.0476667881012,250.294579019547,604.476662149429,607.236662149429,1652819781.8427,1652819781.84359,1652819788.61189,1652819788.61389,1652819790.696,1652819797.04837,1652819797.05054,1652819798.11726,1652819798.11543,1652820152.29752,0
107,4,1,3,14,8,3,c3_HowFace,1,looking at camera?,59,F_129.jpg,1652819545.06085,1652819545.07379,234.021843900681,6.75012612342834,240.791035165787,242.875146141052,0.3,250.611364116669,0.683588027954102,251.306550016403,1,left,0.670299053192139,251.294952144623,604.476662149429,607.236662149429,1652819781.8427,1652819781.84359,1652819788.61189,1652819788.61389,1652819790.696,1652819798.43222,1652819798.43391,1652819799.1274,1652819799.11581,1652820152.29752,1
107,4,1,3,15,1,4,c4_HowHand,1,both hands?,123,H_167.jpg,1652819545.06085,1652819545.07379,251.378316631317,8.18374848365784,259.581375827789,261.665486087799,2.08411026000977,261.815541734695,1.08373761177063,262.900984039307,1,left,1.05743503570557,262.899279346466,604.476662149429,607.236662149429,1652819799.19917,1652819799.20051,1652819807.40223,1652819807.40481,1652819809.48634,1652819809.6364,1652819809.64406,1652819810.72184,1652819810.72013,1652820152.29752,1
107,4,1,3,15,2,4,c4_HowHand,2,both hands?,121,H_091.jpg,1652819545.06085,1652819545.07379,251.378316631317,8.18374848365784,259.581375827789,261.665486087799,0.3,263.216064920425,1.23379278182983,264.451565971375,3,right,1.21270394325256,264.449857702255,604.476662149429,607.236662149429,1652819799.19917,1652819799.20051,1652819807.40223,1652819807.40481,1652819809.48634,1652819811.03692,1652819811.0389,1652819812.27242,1652819812.27071,1652820152.29752,0
107,4,1,3,15,3,4,c4_HowHand,2,both hands?,125,H_627.jpg,1652819545.06085,1652819545.07379,251.378316631317,8.18374848365784,259.581375827789,261.665486087799,0.3,264.766643276215,1.1170825958252,265.889863958359,3,right,1.10577893257141,265.88372587204,604.476662149429,607.236662149429,1652819799.19917,1652819799.20051,1652819807.40223,1652819807.40481,1652819809.48634,1652819812.5875,1652819812.58968,1652819813.71072,1652819813.70458,1652820152.29752,0
107,4,1,3,15,4,4,c4_HowHand,1,both hands?,128,H_027.jpg,1652819545.06085,1652819545.07379,251.378316631317,8.18374848365784,259.581375827789,261.665486087799,0.3,266.200510492325,0.850316762924194,267.05632900238,1,left,0.835419893264771,267.050827255249,604.476662149429,607.236662149429,1652819799.19917,1652819799.20051,1652819807.40223,1652819807.40481,1652819809.48634,1652819814.02136,1652819814.02339,1652819814.87718,1652819814.87168,1652820152.29752,1
107,4,1,3,15,5,4,c4_HowHand,1,both hands?,122,H_111.jpg,1652819545.06085,1652819545.07379,251.378316631317,8.18374848365784,259.581375827789,261.665486087799,0.3,267.36761259079,0.900335550308228,268.269371023178,1,left,0.87924599647522,268.267948141098,604.476662149429,607.236662149429,1652819799.19917,1652819799.20051,1652819807.40223,1652819807.40481,1652819809.48634,1652819815.18847,1652819815.19016,1652819816.09022,1652819816.0888,1652820152.29752,1
107,4,1,3,15,6,4,c4_HowHand,2,both hands?,126,H_159.jpg,1652819545.06085,1652819545.07379,251.378316631317,8.18374848365784,259.581375827789,261.665486087799,0.3,268.584733715057,0.933680772781372,269.523164024353,3,right,0.912714004516602,269.518414487839,604.476662149429,607.236662149429,1652819799.19917,1652819799.20051,1652819807.40223,1652819807.40481,1652819809.48634,1652819816.40559,1652819816.40794,1652819817.34402,1652819817.33927,1652820152.29752,0
107,4,1,3,15,7,4,c4_HowHand,1,both hands?,124,H_581.jpg,1652819545.06085,1652819545.07379,251.378316631317,8.18374848365784,259.581375827789,261.665486087799,0.3,269.835200300217,0.983698606491089,270.822926988602,1,left,0.971158027648926,270.818898906708,604.476662149429,607.236662149429,1652819799.19917,1652819799.20051,1652819807.40223,1652819807.40481,1652819809.48634,1652819817.65605,1652819817.66055,1652819818.64378,1652819818.63975,1652820152.29752,1
107,4,1,3,15,8,4,c4_HowHand,1,both hands?,127,H_349.jpg,1652819545.06085,1652819545.07379,251.378316631317,8.18374848365784,259.581375827789,261.665486087799,0.3,271.135684242249,0.900336742401123,272.037888994217,1,left,0.875000953674316,272.03602098465,604.476662149429,607.236662149429,1652819799.19917,1652819799.20051,1652819807.40223,1652819807.40481,1652819809.48634,1652819818.95654,1652819818.96066,1652819819.85874,1652819819.85687,1652820152.29752,1
107,4,1,3,16,1,2,c2_WhyHand,1,self-protection?,89,H_443.jpg,1652819545.06085,1652819545.07379,272.11938451767,6.2325804233551,278.355043640137,280.455826272964,2.10078263282776,280.605882873535,1.43386745452881,282.040827980042,3,right,1.41717386245728,282.039750328064,604.476662149429,607.236662149429,1652819819.94024,1652819819.94397,1652819826.1759,1652819826.19423,1652819828.27668,1652819828.42674,1652819828.42867,1652819829.86168,1652819829.8606,1652820152.29752,0
107,4,1,3,16,2,2,c2_WhyHand,2,self-protection?,90,H_006.jpg,1652819545.06085,1652819545.07379,272.11938451767,6.2325804233551,278.355043640137,280.455826272964,0.3,282.356535902023,1.65061473846436,284.008099069595,3,right,1.63925504684448,284.007150640488,604.476662149429,607.236662149429,1652819819.94024,1652819819.94397,1652819826.1759,1652819826.19423,1652819828.27668,1652819830.17739,1652819830.17946,1652819831.82895,1652819831.828,1652820152.29752,0
107,4,1,3,16,3,2,c2_WhyHand,1,self-protection?,91,H_581.jpg,1652819545.06085,1652819545.07379,272.11938451767,6.2325804233551,278.355043640137,280.455826272964,0.3,284.32393573761,1.03371930122375,285.359379043579,3,right,1.02005314826965,285.357655038834,604.476662149429,607.236662149429,1652819819.94024,1652819819.94397,1652819826.1759,1652819826.19423,1652819828.27668,1652819832.14479,1652819832.14648,1652819833.18023,1652819833.17851,1652820152.29752,0
107,4,1,3,16,4,2,c2_WhyHand,2,self-protection?,92,H_532.jpg,1652819545.06085,1652819545.07379,272.11938451767,6.2325804233551,278.355043640137,280.455826272964,0.3,285.674439897537,1.43386745452881,287.109760990143,3,right,1.41452312469482,287.108307352066,604.476662149429,607.236662149429,1652819819.94024,1652819819.94397,1652819826.1759,1652819826.19423,1652819828.27668,1652819833.49529,1652819833.49714,1652819834.93061,1652819834.92916,1652820152.29752,0
107,4,1,3,16,5,2,c2_WhyHand,1,self-protection?,96,H_027.jpg,1652819545.06085,1652819545.07379,272.11938451767,6.2325804233551,278.355043640137,280.455826272964,0.3,287.425092926025,0.933681011199951,288.360491981506,1,left,0.912637948989868,288.358773937225,604.476662149429,607.236662149429,1652819819.94024,1652819819.94397,1652819826.1759,1652819826.19423,1652819828.27668,1652819835.24595,1652819835.24749,1652819836.18135,1652819836.17963,1652820152.29752,1
107,4,1,3,16,6,2,c2_WhyHand,1,self-protection?,93,H_038.jpg,1652819545.06085,1652819545.07379,272.11938451767,6.2325804233551,278.355043640137,280.455826272964,0.3,288.675559272766,1.23379349708557,289.910979976654,1,left,1.21459698677063,289.909352769852,604.476662149429,607.236662149429,1652819819.94024,1652819819.94397,1652819826.1759,1652819826.19423,1652819828.27668,1652819836.49641,1652819836.49796,1652819837.73183,1652819837.73021,1652820152.29752,1
107,4,1,3,16,7,2,c2_WhyHand,2,self-protection?,95,H_332.jpg,1652819545.06085,1652819545.07379,272.11938451767,6.2325804233551,278.355043640137,280.455826272964,0.3,290.226136674881,0.833645343780518,291.061365118027,3,right,0.816070079803467,291.059782018662,604.476662149429,607.236662149429,1652819819.94024,1652819819.94397,1652819826.1759,1652819826.19423,1652819828.27668,1652819838.04699,1652819838.04886,1652819838.88222,1652819838.88064,1652820152.29752,0
107,4,1,3,16,8,2,c2_WhyHand,1,self-protection?,94,H_189.jpg,1652819545.06085,1652819545.07379,272.11938451767,6.2325804233551,278.355043640137,280.455826272964,0.3,291.376565446854,0.900336503982544,292.277951946259,1,left,0.880990982055664,292.276901950836,604.476662149429,607.236662149429,1652819819.94024,1652819819.94397,1652819826.1759,1652819826.19423,1652819828.27668,1652819839.19742,1652819839.199,1652819840.09881,1652819840.09776,1652820152.29752,1
107,4,1,3,17,1,3,c3_HowFace,1,smiling?,118,F_759.jpg,1652819545.06085,1652819545.07379,292.343594064713,7.48840308189392,299.846391191483,301.947174301147,2.10078310966492,302.097231140137,0.933680534362793,303.039140930176,1,left,0.925501108169556,303.0309116745,604.476662149429,607.236662149429,1652819840.16445,1652819840.17718,1652819847.66725,1652819847.66938,1652819849.76803,1652819849.91809,1652819849.92051,1652819850.85999,1652819850.85177,1652820152.29752,1
107,4,1,3,17,2,3,c3_HowFace,2,smiling?,114,F_412.jpg,1652819545.06085,1652819545.07379,292.343594064713,7.48840308189392,299.846391191483,301.947174301147,0.3,303.347696771622,0.750280618667603,304.105723133087,3,right,0.743508100509644,304.097977390289,604.476662149429,607.236662149429,1652819840.16445,1652819840.17718,1652819847.66725,1652819847.66938,1652819849.76803,1652819851.16855,1652819851.17005,1652819851.92658,1652819851.91883,1652820152.29752,0
107,4,1,3,17,3,3,c3_HowFace,1,smiling?,117,F_593.jpg,1652819545.06085,1652819545.07379,292.343594064713,7.48840308189392,299.846391191483,301.947174301147,0.3,304.414761772156,0.950354337692261,305.372490158081,1,left,0.941665887832642,305.365116109848,604.476662149429,607.236662149429,1652819840.16445,1652819840.17718,1652819847.66725,1652819847.66938,1652819849.76803,1652819852.23562,1652819852.2373,1652819853.19334,1652819853.18597,1652820152.29752,1
107,4,1,3,17,4,3,c3_HowFace,2,smiling?,113,F_712.jpg,1652819545.06085,1652819545.07379,292.343594064713,7.48840308189392,299.846391191483,301.947174301147,0.3,305.681900730133,0.716933965682983,306.39999007225,3,right,0.697908878326416,306.398834695816,604.476662149429,607.236662149429,1652819840.16445,1652819840.17718,1652819847.66725,1652819847.66938,1652819849.76803,1652819853.50275,1652819853.50435,1652819854.22084,1652819854.21969,1652820152.29752,0
107,4,1,3,17,5,3,c3_HowFace,1,smiling?,115,F_695.jpg,1652819545.06085,1652819545.07379,292.343594064713,7.48840308189392,299.846391191483,301.947174301147,0.3,306.715619792938,0.616896390914917,307.3395221138,1,left,0.607669115066528,307.332516183853,604.476662149429,607.236662149429,1652819840.16445,1652819840.17718,1652819847.66725,1652819847.66938,1652819849.76803,1652819854.53647,1652819854.53802,1652819855.16038,1652819855.15337,1652820152.29752,1
107,4,1,3,17,6,3,c3_HowFace,1,smiling?,119,F_139.jpg,1652819545.06085,1652819545.07379,292.343594064713,7.48840308189392,299.846391191483,301.947174301147,0.3,307.649300327301,0.850317716598511,308.506200065613,1,left,0.843353986740112,308.4996180439,604.476662149429,607.236662149429,1652819840.16445,1652819840.17718,1652819847.66725,1652819847.66938,1652819849.76803,1652819855.47015,1652819855.47231,1652819856.32705,1652819856.32047,1652820152.29752,1
107,4,1,3,17,7,3,c3_HowFace,1,smiling?,116,F_083.jpg,1652819545.06085,1652819545.07379,292.343594064713,7.48840308189392,299.846391191483,301.947174301147,0.3,308.816403856277,0.683588743209839,309.505923023224,1,left,0.666450977325439,309.499992599487,604.476662149429,607.236662149429,1652819840.16445,1652819840.17718,1652819847.66725,1652819847.66938,1652819849.76803,1652819856.63726,1652819856.63916,1652819857.32678,1652819857.32085,1652820152.29752,1
107,4,1,3,17,8,3,c3_HowFace,2,smiling?,120,F_758.jpg,1652819545.06085,1652819545.07379,292.343594064713,7.48840308189392,299.846391191483,301.947174301147,0.3,309.816775789261,0.683587789535522,310.501474132538,3,right,0.66430401802063,310.500363578796,604.476662149429,607.236662149429,1652819840.16445,1652819840.17718,1652819847.66725,1652819847.66938,1652819849.76803,1652819857.63763,1652819857.63915,1652819858.32233,1652819858.32122,1652820152.29752,0
107,4,1,3,18,1,1,c1_WhyFace,1,admiring?,1,F_593.jpg,1652819545.06085,1652819545.07379,310.567055454254,7.05497360229492,317.636358966827,319.737143030167,2.10078406333923,319.8871991539,0.983700275421143,320.872277011871,1,left,0.975841045379639,320.870899429321,604.476662149429,607.236662149429,1652819858.38791,1652819858.39389,1652819865.45721,1652819865.46081,1652819867.558,1652819867.70805,1652819867.71064,1652819868.69313,1652819868.69175,1652820152.29752,1
107,4,1,3,18,2,1,c1_WhyFace,2,admiring?,2,F_129.jpg,1652819545.06085,1652819545.07379,310.567055454254,7.05497360229492,317.636358966827,319.737143030167,0.3,321.187684049606,1.25046610832214,322.439360132217,3,right,1.23347902297974,322.438150157928,604.476662149429,607.236662149429,1652819858.38791,1652819858.39389,1652819865.45721,1652819865.46081,1652819867.558,1652819869.00854,1652819869.01044,1652819870.26021,1652819870.259,1652820152.29752,0
107,4,1,3,18,3,1,c1_WhyFace,1,admiring?,5,F_759.jpg,1652819545.06085,1652819545.07379,310.567055454254,7.05497360229492,317.636358966827,319.737143030167,0.3,322.754934062958,1.35050368309021,324.106388082504,1,left,1.33979797363281,324.105437746048,604.476662149429,607.236662149429,1652819858.38791,1652819858.39389,1652819865.45721,1652819865.46081,1652819867.558,1652819870.57579,1652819870.57732,1652819871.92724,1652819871.92629,1652820152.29752,1
107,4,1,3,18,4,1,c1_WhyFace,2,admiring?,6,F_692.jpg,1652819545.06085,1652819545.07379,310.567055454254,7.05497360229492,317.636358966827,319.737143030167,0.3,324.422223081589,1.0003719329834,325.424241056442,3,right,0.984611988067627,325.422595014572,604.476662149429,607.236662149429,1652819858.38791,1652819858.39389,1652819865.45721,1652819865.46081,1652819867.558,1652819872.24308,1652819872.24481,1652819873.2451,1652819873.24345,1652820152.29752,0
107,4,1,3,18,5,1,c1_WhyFace,1,admiring?,4,F_779.jpg,1652819545.06085,1652819545.07379,310.567055454254,7.05497360229492,317.636358966827,319.737143030167,0.3,325.73938082695,1.03371906280518,326.789608945847,1,left,1.02577090263367,326.773099889755,604.476662149429,607.236662149429,1652819858.38791,1652819858.39389,1652819865.45721,1652819865.46081,1652819867.558,1652819873.56023,1652819873.56185,1652819874.61046,1652819874.59395,1652820152.29752,1
107,4,1,3,18,6,1,c1_WhyFace,1,admiring?,8,F_590.jpg,1652819545.06085,1652819545.07379,310.567055454254,7.05497360229492,317.636358966827,319.737143030167,0.3,327.089885463715,1.20044636726379,328.306705942154,1,left,1.19160485267639,328.290331830978,604.476662149429,607.236662149429,1652819858.38791,1652819858.39389,1652819865.45721,1652819865.46081,1652819867.558,1652819874.91074,1652819874.91225,1652819876.12756,1652819876.11119,1652820152.29752,1
107,4,1,3,18,7,1,c1_WhyFace,1,admiring?,7,F_648.jpg,1652819545.06085,1652819545.07379,310.567055454254,7.05497360229492,317.636358966827,319.737143030167,0.3,328.607116689682,0.950354814529419,329.558547010422,1,left,0.932147979736328,329.557471504211,604.476662149429,607.236662149429,1652819858.38791,1652819858.39389,1652819865.45721,1652819865.46081,1652819867.558,1652819876.42797,1652819876.42954,1652819877.3794,1652819877.37833,1652820152.29752,1
107,4,1,3,18,8,1,c1_WhyFace,2,admiring?,3,F_110.jpg,1652819545.06085,1652819545.07379,310.567055454254,7.05497360229492,317.636358966827,319.737143030167,0.3,329.874255886078,1.01704621315002,330.893018951416,3,right,0.999016046524048,330.891302099228,604.476662149429,607.236662149429,1652819858.38791,1652819858.39389,1652819865.45721,1652819865.46081,1652819867.558,1652819877.69511,1652819877.69681,1652819878.71387,1652819878.71216,1652820152.29752,0
107,4,1,3,19,1,2,c2_WhyHand,1,competing?,9,H_261.jpg,1652819545.06085,1652819545.07379,330.974667062759,4.53731608390808,335.526363840103,337.627147188187,2.1007833480835,337.777204027176,0.633568286895752,338.42318104744,1,left,0.623906135559082,338.410772314072,604.476662149429,607.236662149429,1652819878.79552,1652819878.79712,1652819883.34722,1652819883.3489,1652819885.448,1652819885.59806,1652819885.60002,1652819886.24404,1652819886.23163,1652820152.29752,1
107,4,1,3,19,2,2,c2_WhyHand,1,competing?,15,H_170.jpg,1652819545.06085,1652819545.07379,330.974667062759,4.53731608390808,335.526363840103,337.627147188187,0.3,338.727558364868,0.650241851806641,339.38980006218,1,left,0.637044906616211,339.377800216675,604.476662149429,607.236662149429,1652819878.79552,1652819878.79712,1652819883.34722,1652819883.3489,1652819885.448,1652819886.54841,1652819886.54993,1652819887.21065,1652819887.19865,1652820152.29752,1
107,4,1,3,19,3,2,c2_WhyHand,2,competing?,12,H_483.jpg,1652819545.06085,1652819545.07379,330.974667062759,4.53731608390808,335.526363840103,337.627147188187,0.3,339.694584598541,1.05039143562317,340.746870985031,3,right,1.03530097007751,340.744976034164,604.476662149429,607.236662149429,1652819878.79552,1652819878.79712,1652819883.34722,1652819883.3489,1652819885.448,1652819887.51544,1652819887.51741,1652819888.56772,1652819888.56583,1652820152.29752,0
107,4,1,3,19,4,2,c2_WhyHand,1,competing?,14,H_132.jpg,1652819545.06085,1652819545.07379,330.974667062759,4.53731608390808,335.526363840103,337.627147188187,0.3,341.061760892868,0.616897106170654,341.680086126328,1,left,0.598029136657715,341.678657999039,604.476662149429,607.236662149429,1652819878.79552,1652819878.79712,1652819883.34722,1652819883.3489,1652819885.448,1652819888.88261,1652819888.88427,1652819889.50094,1652819889.49951,1652820152.29752,1
107,4,1,3,19,5,2,c2_WhyHand,1,competing?,16,H_136.jpg,1652819545.06085,1652819545.07379,330.974667062759,4.53731608390808,335.526363840103,337.627147188187,0.3,341.995443096161,0.933681726455688,342.930850019455,1,left,0.916666984558105,342.929124822617,604.476662149429,607.236662149429,1652819878.79552,1652819878.79712,1652819883.34722,1652819883.3489,1652819885.448,1652819889.8163,1652819889.81818,1652819890.7517,1652819890.74998,1652820152.29752,1
107,4,1,3,19,6,2,c2_WhyHand,1,competing?,13,H_003.jpg,1652819545.06085,1652819545.07379,330.974667062759,4.53731608390808,335.526363840103,337.627147188187,0.3,343.24590968132,0.616895437240601,343.873074045181,1,left,0.60545802116394,343.862805118561,604.476662149429,607.236662149429,1652819878.79552,1652819878.79712,1652819883.34722,1652819883.3489,1652819885.448,1652819891.06676,1652819891.06834,1652819891.69393,1652819891.68366,1652820152.29752,1
107,4,1,3,19,7,2,c2_WhyHand,2,competing?,10,H_126.jpg,1652819545.06085,1652819545.07379,330.974667062759,4.53731608390808,335.526363840103,337.627147188187,0.3,344.17959069252,0.716933965682983,344.905776014328,3,right,0.710109949111938,344.896524658203,604.476662149429,607.236662149429,1652819878.79552,1652819878.79712,1652819883.34722,1652819883.3489,1652819885.448,1652819892.00044,1652819892.00179,1652819892.72663,1652819892.71738,1652820152.29752,0
107,4,1,3,19,8,2,c2_WhyHand,2,competing?,11,H_502.jpg,1652819545.06085,1652819545.07379,330.974667062759,4.53731608390808,335.526363840103,337.627147188187,0.3,345.213309516907,0.650243759155273,345.873166074753,3,right,0.641478061676025,345.863553276062,604.476662149429,607.236662149429,1652819878.79552,1652819878.79712,1652819883.34722,1652819883.3489,1652819885.448,1652819893.03416,1652819893.03598,1652819893.69402,1652819893.68441,1652820152.29752,0
107,4,1,3,20,1,4,c4_HowHand,1,reaching?,111,H_003.jpg,1652819545.06085,1652819545.07379,345.946917047501,11.0452139377594,357.00103925705,359.101822843552,2.10078358650208,359.251879205704,0.917007923126221,360.172927131653,1,left,0.893203973770142,360.16888712883,604.476662149429,607.236662149429,1652819893.76777,1652819893.77719,1652819904.82189,1652819904.82772,1652819906.92268,1652819907.07273,1652819907.07742,1652819907.99378,1652819907.98974,1652820152.29752,1
107,4,1,3,20,2,4,c4_HowHand,1,reaching?,110,H_364.jpg,1652819545.06085,1652819545.07379,345.946917047501,11.0452139377594,357.00103925705,359.101822843552,0.3,360.485671749115,0.766953229904175,361.256397953033,1,left,0.753793954849243,361.252624979019,604.476662149429,607.236662149429,1652819893.76777,1652819893.77719,1652819904.82189,1652819904.82772,1652819906.92268,1652819908.30653,1652819908.31058,1652819909.07725,1652819909.07348,1652820152.29752,1
107,4,1,3,20,3,4,c4_HowHand,2,reaching?,108,H_532.jpg,1652819545.06085,1652819545.07379,345.946917047501,11.0452139377594,357.00103925705,359.101822843552,0.3,361.569409599304,0.917007684707642,362.488132944107,3,right,0.890602827072144,362.486417284012,604.476662149429,607.236662149429,1652819893.76777,1652819893.77719,1652819904.82189,1652819904.82772,1652819906.92268,1652819909.39026,1652819909.39367,1652819910.30899,1652819910.30727,1652820152.29752,0
107,4,1,3,20,4,4,c4_HowHand,1,reaching?,106,H_006.jpg,1652819545.06085,1652819545.07379,345.946917047501,11.0452139377594,357.00103925705,359.101822843552,0.3,362.80320309639,0.816970586776733,363.623222103119,1,left,0.797250032424927,363.620173683167,604.476662149429,607.236662149429,1652819893.76777,1652819893.77719,1652819904.82189,1652819904.82772,1652819906.92268,1652819910.62406,1652819910.62745,1652819911.44408,1652819911.44103,1652820152.29752,1
107,4,1,3,20,5,4,c4_HowHand,2,reaching?,105,H_438.jpg,1652819545.06085,1652819545.07379,345.946917047501,11.0452139377594,357.00103925705,359.101822843552,0.3,363.93695854187,0.883663177490234,364.822442045212,3,right,0.864259958267212,364.82062171936,604.476662149429,607.236662149429,1652819893.76777,1652819893.77719,1652819904.82189,1652819904.82772,1652819906.92268,1652819911.75781,1652819911.76063,1652819912.6433,1652819912.64148,1652820152.29752,0
107,4,1,3,20,6,4,c4_HowHand,1,reaching?,107,H_007.jpg,1652819545.06085,1652819545.07379,345.946917047501,11.0452139377594,357.00103925705,359.101822843552,0.3,365.137406578064,0.650242328643799,365.789082040787,1,left,0.633342027664185,365.787648906708,604.476662149429,607.236662149429,1652819893.76777,1652819893.77719,1652819904.82189,1652819904.82772,1652819906.92268,1652819912.95826,1652819912.96041,1652819913.60994,1652819913.6085,1652820152.29752,1
107,4,1,3,20,7,4,c4_HowHand,1,reaching?,109,H_474.jpg,1652819545.06085,1652819545.07379,345.946917047501,11.0452139377594,357.00103925705,359.101822843552,0.3,366.104432096481,1.03372073173523,367.139558067322,1,left,1.02056193351746,367.138152828217,604.476662149429,607.236662149429,1652819893.76777,1652819893.77719,1652819904.82189,1652819904.82772,1652819906.92268,1652819913.92529,1652819913.92738,1652819914.96041,1652819914.95901,1652820152.29752,1
107,4,1,3,20,8,4,c4_HowHand,2,reaching?,112,H_132.jpg,1652819545.06085,1652819545.07379,345.946917047501,11.0452139377594,357.00103925705,359.101822843552,0.3,367.454937925339,1.16710138320923,368.623567094803,3,right,1.14675807952881,368.622039308548,604.476662149429,607.236662149429,1652819893.76777,1652819893.77719,1652819904.82189,1652819904.82772,1652819906.92268,1652819915.27579,1652819915.27746,1652819916.44442,1652819916.44289,1652820152.29752,0
107,4,1,3,21,1,3,c3_HowFace,1,open mouth?,73,F_403.jpg,1652819545.06085,1652819545.07379,368.705404033661,6.12658405303955,374.841024627686,376.941808214188,2.10078358650208,377.091864814758,0.850316762924194,377.955798139572,1,left,0.841980934143066,377.942181577683,604.476662149429,607.236662149429,1652819916.52626,1652819916.52795,1652819922.66188,1652819922.66428,1652819924.76266,1652819924.91272,1652819924.91445,1652819925.77665,1652819925.76304,1652820152.29752,1
107,4,1,3,21,2,3,c3_HowFace,2,open mouth?,79,F_648.jpg,1652819545.06085,1652819545.07379,368.705404033661,6.12658405303955,374.841024627686,376.941808214188,0.3,378.258966197968,0.917008876800537,379.177036991119,3,right,0.899610996246338,379.175975074768,604.476662149429,607.236662149429,1652819916.52626,1652819916.52795,1652819922.66188,1652819922.66428,1652819924.76266,1652819926.07982,1652819926.08184,1652819926.99789,1652819926.99683,1652820152.29752,0
107,4,1,3,21,3,3,c3_HowFace,1,open mouth?,74,F_776.jpg,1652819545.06085,1652819545.07379,368.705404033661,6.12658405303955,374.841024627686,376.941808214188,0.3,379.492759695053,0.616897106170654,380.110767116547,1,left,0.593926906585693,380.109656801224,604.476662149429,607.236662149429,1652819916.52626,1652819916.52795,1652819922.66188,1652819922.66428,1652819924.76266,1652819927.31361,1652819927.31584,1652819927.93162,1652819927.93051,1652820152.29752,1
107,4,1,3,21,4,3,c3_HowFace,2,open mouth?,77,F_584.jpg,1652819545.06085,1652819545.07379,368.705404033661,6.12658405303955,374.841024627686,376.941808214188,0.3,380.426441898346,0.61689567565918,381.056369056702,3,right,0.605213165283203,381.043337574005,604.476662149429,607.236662149429,1652819916.52626,1652819916.52795,1652819922.66188,1652819922.66428,1652819924.76266,1652819928.2473,1652819928.24896,1652819928.87722,1652819928.86419,1652820152.29752,0
107,4,1,3,21,5,3,c3_HowFace,1,open mouth?,80,F_844.jpg,1652819545.06085,1652819545.07379,368.705404033661,6.12658405303955,374.841024627686,376.941808214188,0.3,381.360122432709,0.583551168441772,381.945278158188,1,left,0.565773010253906,381.943673601151,604.476662149429,607.236662149429,1652819916.52626,1652819916.52795,1652819922.66188,1652819922.66428,1652819924.76266,1652819929.18098,1652819929.18265,1652819929.76613,1652819929.76453,1652820152.29752,1
107,4,1,3,21,6,3,c3_HowFace,1,open mouth?,78,F_692.jpg,1652819545.06085,1652819545.07379,368.705404033661,6.12658405303955,374.841024627686,376.941808214188,0.3,382.260458936691,0.766952991485596,383.028419008255,1,left,0.747586011886597,383.027411928177,604.476662149429,607.236662149429,1652819916.52626,1652819916.52795,1652819922.66188,1652819922.66428,1652819924.76266,1652819930.08131,1652819930.08283,1652819930.84927,1652819930.84827,1652820152.29752,1
107,4,1,3,21,7,3,c3_HowFace,1,open mouth?,75,F_086.jpg,1652819545.06085,1652819545.07379,368.705404033661,6.12658405303955,374.841024627686,376.941808214188,0.3,383.344196071625,0.650242805480957,384.005748023987,1,left,0.643051147460938,383.994438877106,604.476662149429,607.236662149429,1652819916.52626,1652819916.52795,1652819922.66188,1652819922.66428,1652819924.76266,1652819931.16505,1652819931.16697,1652819931.8266,1652819931.81529,1652820152.29752,1
107,4,1,3,21,8,3,c3_HowFace,2,open mouth?,76,F_544.jpg,1652819545.06085,1652819545.07379,368.705404033661,6.12658405303955,374.841024627686,376.941808214188,0.3,384.311223974228,1.06706500053406,385.379857053757,3,right,1.04671096801758,385.378288974762,604.476662149429,607.236662149429,1652819916.52626,1652819916.52795,1652819922.66188,1652819922.66428,1652819924.76266,1652819932.13208,1652819932.13383,1652819933.20071,1652819933.19914,1652820152.29752,0
107,4,1,3,22,1,1,c1_WhyFace,1,argument?,42,F_403.jpg,1652819545.06085,1652819545.07379,385.461652746201,8.04632520675659,393.514655818939,395.615439167023,2.1007833480835,395.765494813919,0.666916131973267,396.439763059616,1,left,0.650914907455444,396.432410945892,604.476662149429,607.236662149429,1652819933.28251,1652819933.28399,1652819941.33551,1652819941.34406,1652819943.43629,1652819943.58635,1652819943.59398,1652819944.26062,1652819944.25326,1652820152.29752,1
107,4,1,3,22,2,1,c1_WhyFace,2,argument?,46,F_844.jpg,1652819545.06085,1652819545.07379,385.461652746201,8.04632520675659,393.514655818939,395.615439167023,0.3,396.749195566177,0.866988897323608,397.622477045059,3,right,0.856360912322998,397.616184463501,604.476662149429,607.236662149429,1652819933.28251,1652819933.28399,1652819941.33551,1652819941.34406,1652819943.43629,1652819944.57005,1652819944.57194,1652819945.44333,1652819945.43704,1652820152.29752,0
107,4,1,3,22,3,1,c1_WhyFace,1,argument?,41,F_712.jpg,1652819545.06085,1652819545.07379,385.461652746201,8.04632520675659,393.514655818939,395.615439167023,0.3,397.932969799042,1.217120885849,399.156707038879,1,left,1.20636892318726,399.150090684891,604.476662149429,607.236662149429,1652819933.28251,1652819933.28399,1652819941.33551,1652819941.34406,1652819943.43629,1652819945.75382,1652819945.75581,1652819946.97756,1652819946.97094,1652820152.29752,1
107,4,1,3,22,4,1,c1_WhyFace,1,argument?,48,F_758.jpg,1652819545.06085,1652819545.07379,385.461652746201,8.04632520675659,393.514655818939,395.615439167023,0.3,399.466876020432,0.933680057525635,400.406458129883,1,left,0.922721862792969,400.400556077957,604.476662149429,607.236662149429,1652819933.28251,1652819933.28399,1652819941.33551,1652819941.34406,1652819943.43629,1652819947.28773,1652819947.28939,1652819948.22731,1652819948.22141,1652820152.29752,1
107,4,1,3,22,5,1,c1_WhyFace,2,argument?,45,F_433.jpg,1652819545.06085,1652819545.07379,385.461652746201,8.04632520675659,393.514655818939,395.615439167023,0.3,400.717342128754,1.06706476211548,401.789116134644,3,right,1.05486917495728,401.784406890869,604.476662149429,607.236662149429,1652819933.28251,1652819933.28399,1652819941.33551,1652819941.34406,1652819943.43629,1652819948.5382,1652819948.54003,1652819949.60997,1652819949.60526,1652820152.29752,0
107,4,1,3,22,6,1,c1_WhyFace,1,argument?,43,F_716.jpg,1652819545.06085,1652819545.07379,385.461652746201,8.04632520675659,393.514655818939,395.615439167023,0.3,402.101190795898,1.23379445075989,403.339117994308,1,left,1.2195520401001,403.334985246658,604.476662149429,607.236662149429,1652819933.28251,1652819933.28399,1652819941.33551,1652819941.34406,1652819943.43629,1652819949.92204,1652819949.92392,1652819951.15997,1652819951.15584,1652820152.29752,1
107,4,1,3,22,7,1,c1_WhyFace,2,argument?,44,F_139.jpg,1652819545.06085,1652819545.07379,385.461652746201,8.04632520675659,393.514655818939,395.615439167023,0.3,403.651769866943,1.16710090637207,404.822498073578,3,right,1.14979076385498,404.818870773315,604.476662149429,607.236662149429,1652819933.28251,1652819933.28399,1652819941.33551,1652819941.34406,1652819943.43629,1652819951.47262,1652819951.47714,1652819952.64335,1652819952.63972,1652820152.29752,0
107,4,1,3,22,8,1,c1_WhyFace,1,argument?,47,F_743.jpg,1652819545.06085,1652819545.07379,385.461652746201,8.04632520675659,393.514655818939,395.615439167023,0.3,405.135656347275,0.666915416717529,405.806153049469,1,left,0.657566070556641,405.802571763992,604.476662149429,607.236662149429,1652819933.28251,1652819933.28399,1652819941.33551,1652819941.34406,1652819943.43629,1652819952.95651,1652819952.96019,1652819953.62701,1652819953.62343,1652820152.29752,1
107,4,1,3,23,1,2,c2_WhyHand,1,helping?,39,H_024.jpg,1652819545.06085,1652819545.07379,405.902609100342,5.82540488243103,411.738118400574,413.838899841309,2.10078144073486,413.988957395554,1.71730709075928,NaN,0,NA,0,415.706264486313,604.476662149429,607.236662149429,1652819953.72346,1652819953.72518,1652819959.55897,1652819959.56126,1652819961.65975,1652819961.80981,1652819961.81151,NaN,1652819963.52712,1652820152.29752,0
107,4,1,3,23,2,2,c2_WhyHand,1,helping?,36,H_349.jpg,1652819545.06085,1652819545.07379,405.902609100342,5.82540488243103,411.738118400574,413.838899841309,0.3,416.023049583435,0.800297975540161,416.824962129593,1,left,0.788719892501831,416.823347558975,604.476662149429,607.236662149429,1652819953.72346,1652819953.72518,1652819959.55897,1652819959.56126,1652819961.65975,1652819963.8439,1652819963.84582,1652819964.64582,1652819964.6442,1652820152.29752,1
107,4,1,3,23,3,2,c2_WhyHand,1,helping?,38,H_077.jpg,1652819545.06085,1652819545.07379,405.902609100342,5.82540488243103,411.738118400574,413.838899841309,0.3,417.140133132935,0.950353622436523,418.091560115814,1,left,0.928270101547241,418.090486755371,604.476662149429,607.236662149429,1652819953.72346,1652819953.72518,1652819959.55897,1652819959.56126,1652819961.65975,1652819964.96099,1652819964.96291,1652819965.91241,1652819965.91134,1652820152.29752,1
107,4,1,3,23,4,2,c2_WhyHand,1,helping?,37,H_474.jpg,1652819545.06085,1652819545.07379,405.902609100342,5.82540488243103,411.738118400574,413.838899841309,0.3,418.407271137238,0.716934442520142,419.139585962296,1,left,0.710012912750244,419.124205579758,604.476662149429,607.236662149429,1652819953.72346,1652819953.72518,1652819959.55897,1652819959.56126,1652819961.65975,1652819966.22813,1652819966.22986,1652819966.96044,1652819966.94506,1652820152.29752,1
107,4,1,3,23,5,2,c2_WhyHand,2,helping?,33,H_091.jpg,1652819545.06085,1652819545.07379,405.902609100342,5.82540488243103,411.738118400574,413.838899841309,0.3,419.44099067688,1.03371906280518,420.489850988388,3,right,1.02548408508301,420.474709739685,604.476662149429,607.236662149429,1652819953.72346,1652819953.72518,1652819959.55897,1652819959.56126,1652819961.65975,1652819967.26184,1652819967.26382,1652819968.3107,1652819968.29556,1652820152.29752,0
107,4,1,3,23,6,2,c2_WhyHand,2,helping?,35,H_159.jpg,1652819545.06085,1652819545.07379,405.902609100342,5.82540488243103,411.738118400574,413.838899841309,0.3,420.791494836807,0.766952037811279,421.560265054703,3,right,0.744168996810913,421.558446874619,604.476662149429,607.236662149429,1652819953.72346,1652819953.72518,1652819959.55897,1652819959.56126,1652819961.65975,1652819968.61235,1652819968.61407,1652819969.38112,1652819969.3793,1652820152.29752,0
107,4,1,3,23,7,2,c2_WhyHand,1,helping?,34,H_111.jpg,1652819545.06085,1652819545.07379,405.902609100342,5.82540488243103,411.738118400574,413.838899841309,0.3,421.875231971741,0.833643913269043,422.709921112061,1,left,0.820872068405151,422.70887588501,604.476662149429,607.236662149429,1652819953.72346,1652819953.72518,1652819959.55897,1652819959.56126,1652819961.65975,1652819969.69609,1652819969.69783,1652819970.53078,1652819970.52973,1652820152.29752,1
107,4,1,3,23,8,2,c2_WhyHand,2,helping?,40,H_012.jpg,1652819545.06085,1652819545.07379,405.902609100342,5.82540488243103,411.738118400574,413.838899841309,0.3,423.025660505295,0.900335073471069,423.939115037918,3,right,0.891933917999268,423.925995578766,604.476662149429,607.236662149429,1652819953.72346,1652819953.72518,1652819959.55897,1652819959.56126,1652819961.65975,1652819970.84651,1652819970.84799,1652819971.75997,1652819971.74685,1652820152.29752,0
107,4,1,3,24,1,4,c4_HowHand,1,both hands?,122,H_111.jpg,1652819545.06085,1652819545.07379,424.009360542297,5.78867053985596,429.811524620056,431.91230796814,2.1007833480835,432.062363615036,1.20044803619385,433.273045053482,1,left,1.19215703010559,433.26281165123,604.476662149429,607.236662149429,1652819971.83021,1652819971.83121,1652819977.63238,1652819977.63404,1652819979.73316,1652819979.88322,1652819979.8851,1652819981.0939,1652819981.08367,1652820152.29752,1
107,4,1,3,24,2,4,c4_HowHand,1,both hands?,128,H_027.jpg,1652819545.06085,1652819545.07379,424.009360542297,5.78867053985596,429.811524620056,431.91230796814,0.3,433.579596748352,0.633569955825806,434.214411010742,1,left,0.614782810211182,434.213166704178,604.476662149429,607.236662149429,1652819971.83021,1652819971.83121,1652819977.63238,1652819977.63404,1652819979.73316,1652819981.40045,1652819981.40223,1652819982.03526,1652819982.03402,1652820152.29752,1
107,4,1,3,24,3,4,c4_HowHand,2,both hands?,121,H_091.jpg,1652819545.06085,1652819545.07379,424.009360542297,5.78867053985596,429.811524620056,431.91230796814,0.3,434.529950609207,0.600224018096924,435.139435997009,3,right,0.592670917510986,435.130174627304,604.476662149429,607.236662149429,1652819971.83021,1652819971.83121,1652819977.63238,1652819977.63404,1652819979.73316,1652819982.3508,1652819982.35262,1652819982.96029,1652819982.95103,1652820152.29752,0
107,4,1,3,24,4,4,c4_HowHand,1,both hands?,123,H_167.jpg,1652819545.06085,1652819545.07379,424.009360542297,5.78867053985596,429.811524620056,431.91230796814,0.3,435.446959724426,0.750280141830444,436.206284036636,1,left,0.739076137542725,436.197239866257,604.476662149429,607.236662149429,1652819971.83021,1652819971.83121,1652819977.63238,1652819977.63404,1652819979.73316,1652819983.26781,1652819983.26952,1652819984.02714,1652819984.01809,1652820152.29752,1
107,4,1,3,24,5,4,c4_HowHand,1,both hands?,124,H_581.jpg,1652819545.06085,1652819545.07379,424.009360542297,5.78867053985596,429.811524620056,431.91230796814,0.3,436.514024963379,1.26713943481445,437.782595148087,1,left,1.24566411972046,437.781164398193,604.476662149429,607.236662149429,1652819971.83021,1652819971.83121,1652819977.63238,1652819977.63404,1652819979.73316,1652819984.33488,1652819984.3368,1652819985.60345,1652819985.60202,1652820152.29752,1
107,4,1,3,24,6,4,c4_HowHand,2,both hands?,126,H_159.jpg,1652819545.06085,1652819545.07379,424.009360542297,5.78867053985596,429.811524620056,431.91230796814,0.3,438.097949018478,0.816970586776733,438.916818132401,3,right,0.794871091842651,438.914919605255,604.476662149429,607.236662149429,1652819971.83021,1652819971.83121,1652819977.63238,1652819977.63404,1652819979.73316,1652819985.9188,1652819985.92084,1652819986.73767,1652819986.73577,1652820152.29752,0
107,4,1,3,24,7,4,c4_HowHand,1,both hands?,127,H_349.jpg,1652819545.06085,1652819545.07379,424.009360542297,5.78867053985596,429.811524620056,431.91230796814,0.3,439.231704940796,0.733606815338135,439.966727962494,1,left,0.713748931884766,439.965311756134,604.476662149429,607.236662149429,1652819971.83021,1652819971.83121,1652819977.63238,1652819977.63404,1652819979.73316,1652819987.05256,1652819987.05433,1652819987.78758,1652819987.78617,1652820152.29752,1
107,4,1,3,24,8,4,c4_HowHand,2,both hands?,125,H_627.jpg,1652819545.06085,1652819545.07379,424.009360542297,5.78867053985596,429.811524620056,431.91230796814,0.3,440.282096614838,0.800297737121582,441.089764108658,3,right,0.791708946228027,441.082394351959,604.476662149429,607.236662149429,1652819971.83021,1652819971.83121,1652819977.63238,1652819977.63404,1652819979.73316,1652819988.10295,1652819988.10434,1652819988.91062,1652819988.90325,1652820152.29752,0
107,4,1,3,25,1,2,c2_WhyHand,1,healthy?,18,H_438.jpg,1652819545.06085,1652819545.07379,441.165759077072,6.14935898780823,447.334726800919,449.41883682251,2.08411002159119,449.568891277313,1.38385152816772,450.956290950775,1,left,1.3691508769989,450.952742805481,604.476662149429,607.236662149429,1652819988.98661,1652819988.99383,1652819995.15558,1652819995.15759,1652819997.23969,1652819997.38975,1652819997.39407,1652819998.77714,1652819998.7736,1652820152.29752,1
107,4,1,3,25,2,2,c2_WhyHand,1,healthy?,23,H_364.jpg,1652819545.06085,1652819545.07379,441.165759077072,6.14935898780823,447.334726800919,449.41883682251,0.3,451.269526472092,1.26714062690735,452.539090147018,1,left,1.24280977249146,452.536667098999,604.476662149429,607.236662149429,1652819988.98661,1652819988.99383,1652819995.15558,1652819995.15759,1652819997.23969,1652819999.09038,1652819999.09398,1652820000.35994,1652820000.35752,1652820152.29752,1
107,4,1,3,25,3,2,c2_WhyHand,1,healthy?,17,H_362.jpg,1652819545.06085,1652819545.07379,441.165759077072,6.14935898780823,447.334726800919,449.41883682251,0.3,452.853452196121,1.15042734146118,454.005798091888,1,left,1.14131498336792,454.003879537582,604.476662149429,607.236662149429,1652819988.98661,1652819988.99383,1652819995.15558,1652819995.15759,1652819997.23969,1652820000.67431,1652820000.67715,1652820001.82665,1652820001.82473,1652820152.29752,1
107,4,1,3,25,4,2,c2_WhyHand,2,healthy?,24,H_019.jpg,1652819545.06085,1652819545.07379,441.165759077072,6.14935898780823,447.334726800919,449.41883682251,0.3,454.320665111542,1.35050368309021,455.672877063751,3,right,1.32707786560059,455.671168794632,604.476662149429,607.236662149429,1652819988.98661,1652819988.99383,1652819995.15558,1652819995.15759,1652819997.23969,1652820002.14152,1652820002.14397,1652820003.49373,1652820003.49202,1652820152.29752,0
107,4,1,3,25,5,2,c2_WhyHand,1,healthy?,19,H_167.jpg,1652819545.06085,1652819545.07379,441.165759077072,6.14935898780823,447.334726800919,449.41883682251,0.3,455.987953176498,1.60059642791748,457.589967956543,1,left,1.58946299552917,457.588549604416,604.476662149429,607.236662149429,1652819988.98661,1652819988.99383,1652819995.15558,1652819995.15759,1652819997.23969,1652820003.80881,1652820003.81056,1652820005.41082,1652820005.4094,1652820152.29752,1
107,4,1,3,25,6,2,c2_WhyHand,2,healthy?,20,H_007.jpg,1652819545.06085,1652819545.07379,441.165759077072,6.14935898780823,447.334726800919,449.41883682251,0.3,457.905334939957,0.783626079559326,458.690084924698,3,right,0.768224000930786,458.688961019516,604.476662149429,607.236662149429,1652819988.98661,1652819988.99383,1652819995.15558,1652819995.15759,1652819997.23969,1652820005.72619,1652820005.72821,1652820006.51094,1652820006.50981,1652820152.29752,0
107,4,1,3,25,7,2,c2_WhyHand,1,healthy?,21,H_627.jpg,1652819545.06085,1652819545.07379,441.165759077072,6.14935898780823,447.334726800919,449.41883682251,0.3,459.00574587822,1.71730709075928,460.862211933136,1,left,1.83536500930786,460.723052968979,604.476662149429,607.236662149429,1652819988.98661,1652819988.99383,1652819995.15558,1652819995.15759,1652819997.23969,1652820006.8266,1652820006.828,1652820008.68307,1652820008.54391,1652820152.29752,1
107,4,1,3,25,8,2,c2_WhyHand,2,healthy?,22,H_130.jpg,1652819545.06085,1652819545.07379,441.165759077072,6.14935898780823,447.334726800919,449.41883682251,0.3,461.039837112427,1.00037288665771,462.042084922791,3,right,0.986088037490845,462.040209999084,604.476662149429,607.236662149429,1652819988.98661,1652819988.99383,1652819995.15558,1652819995.15759,1652819997.23969,1652820008.86069,1652820008.86224,1652820009.86294,1652820009.86106,1652820152.29752,0
107,4,1,3,26,1,4,c4_HowHand,1,pressing button?,82,H_126.jpg,1652819545.06085,1652819545.07379,462.123574962616,4.24544501304626,466.375159492493,468.475944032669,2.10078454017639,468.626000156403,0.917008638381958,469.544027080536,1,left,0.88395094871521,469.543008794785,604.476662149429,607.236662149429,1652820009.94443,1652820009.94618,1652820014.19601,1652820014.21086,1652820016.2968,1652820016.44685,1652820016.46124,1652820017.36488,1652820017.36386,1652820152.29752,1
107,4,1,3,26,2,4,c4_HowHand,2,pressing button?,85,H_130.jpg,1652819545.06085,1652819545.07379,462.123574962616,4.24544501304626,466.375159492493,468.475944032669,0.3,469.85979341507,0.816969871520996,470.689541091919,3,right,0.808028936386108,470.676763286591,604.476662149429,607.236662149429,1652820009.94443,1652820009.94618,1652820014.19601,1652820014.21086,1652820016.2968,1652820017.68065,1652820017.68232,1652820018.5104,1652820018.49762,1652820152.29752,0
107,4,1,3,26,3,4,c4_HowHand,1,pressing button?,84,H_483.jpg,1652819545.06085,1652819545.07379,462.123574962616,4.24544501304626,466.375159492493,468.475944032669,0.3,470.99354886055,0.866989612579346,471.861564149857,1,left,0.852720975875854,471.860538473129,604.476662149429,607.236662149429,1652820009.94443,1652820009.94618,1652820014.19601,1652820014.21086,1652820016.2968,1652820018.8144,1652820018.81582,1652820019.68242,1652820019.68139,1652820152.29752,1
107,4,1,3,26,4,4,c4_HowHand,2,pressing button?,87,H_024.jpg,1652819545.06085,1652819545.07379,462.123574962616,4.24544501304626,466.375159492493,468.475944032669,0.3,472.17732380867,0.883662700653076,473.072853078842,3,right,0.871493101119995,473.060986509323,604.476662149429,607.236662149429,1652820009.94443,1652820009.94618,1652820014.19601,1652820014.21086,1652820016.2968,1652820019.99818,1652820020.00011,1652820020.89371,1652820020.88184,1652820152.29752,0
107,4,1,3,26,5,4,c4_HowHand,1,pressing button?,86,H_332.jpg,1652819545.06085,1652819545.07379,462.123574962616,4.24544501304626,466.375159492493,468.475944032669,0.3,473.377772083282,1.21711993217468,474.595965137482,1,left,1.19530391693115,474.594892015457,604.476662149429,607.236662149429,1652820009.94443,1652820009.94618,1652820014.19601,1652820014.21086,1652820016.2968,1652820021.19863,1652820021.2001,1652820022.41682,1652820022.41575,1652820152.29752,1
107,4,1,3,26,6,4,c4_HowHand,1,pressing button?,88,H_019.jpg,1652819545.06085,1652819545.07379,462.123574962616,4.24544501304626,466.375159492493,468.475944032669,0.3,474.911677827835,0.733605623245239,475.646502962112,1,left,0.711463928222656,475.64528345108,604.476662149429,607.236662149429,1652820009.94443,1652820009.94618,1652820014.19601,1652820014.21086,1652820016.2968,1652820022.73253,1652820022.73445,1652820023.46736,1652820023.46614,1652820152.29752,1
107,4,1,3,26,7,4,c4_HowHand,2,pressing button?,81,H_261.jpg,1652819545.06085,1652819545.07379,462.123574962616,4.24544501304626,466.375159492493,468.475944032669,0.3,475.962068786621,1.38384795188904,477.347864141464,3,right,1.36687588691711,477.34591673851,604.476662149429,607.236662149429,1652820009.94443,1652820009.94618,1652820014.19601,1652820014.21086,1652820016.2968,1652820023.78292,1652820023.78438,1652820025.16872,1652820025.16677,1652820152.29752,0
107,4,1,3,26,8,4,c4_HowHand,1,pressing button?,83,H_502.jpg,1652819545.06085,1652819545.07379,462.123574962616,4.24544501304626,466.375159492493,468.475944032669,0.3,477.662702789307,0.950355052947998,478.614186992645,1,left,0.929347038269043,478.613057842255,604.476662149429,607.236662149429,1652820009.94443,1652820009.94618,1652820014.19601,1652820014.21086,1652820016.2968,1652820025.48356,1652820025.48506,1652820026.43504,1652820026.43391,1652820152.29752,1
107,4,1,3,27,1,3,c3_HowFace,1,looking at camera?,60,F_618.jpg,1652819545.06085,1652819545.07379,478.696422805786,5.20246624946594,483.915035238266,486.015818109512,2.10078287124634,486.165873994827,1.53390598297119,487.700830926895,1,left,1.51070404052734,487.699779977798,604.476662149429,607.236662149429,1652820026.51728,1652820026.51842,1652820031.73589,1652820031.7378,1652820033.83667,1652820033.98673,1652820033.98859,1652820035.52168,1652820035.52063,1652820152.29752,1
107,4,1,3,27,2,3,c3_HowFace,2,looking at camera?,58,F_754.jpg,1652819545.06085,1652819545.07379,478.696422805786,5.20246624946594,483.915035238266,486.015818109512,0.3,488.016565074921,0.716933965682983,488.739047040939,3,right,0.709179878234863,488.733499040604,604.476662149429,607.236662149429,1652820026.51728,1652820026.51842,1652820031.73589,1652820031.7378,1652820033.83667,1652820035.83742,1652820035.83919,1652820036.5599,1652820036.55435,1652820152.29752,0
107,4,1,3,27,3,3,c3_HowFace,1,looking at camera?,59,F_129.jpg,1652819545.06085,1652819545.07379,478.696422805786,5.20246624946594,483.915035238266,486.015818109512,0.3,489.050282468796,0.516860246658325,489.568233003616,1,left,0.493704080581665,489.567142715454,604.476662149429,607.236662149429,1652820026.51728,1652820026.51842,1652820031.73589,1652820031.7378,1652820033.83667,1652820036.87114,1652820036.87283,1652820037.38909,1652820037.388,1652820152.29752,1
107,4,1,3,27,4,3,c3_HowFace,1,looking at camera?,62,F_598.jpg,1652819545.06085,1652819545.07379,478.696422805786,5.20246624946594,483.915035238266,486.015818109512,0.3,489.883926382065,0.700262546539307,490.585364093781,1,left,0.679095029830933,490.584188928604,604.476662149429,607.236662149429,1652820026.51728,1652820026.51842,1652820031.73589,1652820031.7378,1652820033.83667,1652820037.70478,1652820037.70652,1652820038.40622,1652820038.40504,1652820152.29752,1
107,4,1,3,27,5,3,c3_HowFace,1,looking at camera?,64,F_128.jpg,1652819545.06085,1652819545.07379,478.696422805786,5.20246624946594,483.915035238266,486.015818109512,0.3,490.900973310471,0.583550691604614,491.489571084976,1,left,0.566128015518188,491.484524002075,604.476662149429,607.236662149429,1652820026.51728,1652820026.51842,1652820031.73589,1652820031.7378,1652820033.83667,1652820038.72183,1652820038.72371,1652820039.31043,1652820039.30538,1652820152.29752,1
107,4,1,3,27,6,3,c3_HowFace,2,looking at camera?,57,F_582.jpg,1652819545.06085,1652819545.07379,478.696422805786,5.20246624946594,483.915035238266,486.015818109512,0.3,491.801308860779,0.783625602722168,492.589085092545,3,right,0.770426988601685,492.584934463501,604.476662149429,607.236662149429,1652820026.51728,1652820026.51842,1652820031.73589,1652820031.7378,1652820033.83667,1652820039.62216,1652820039.62384,1652820040.40994,1652820040.40579,1652820152.29752,0
107,4,1,3,27,7,3,c3_HowFace,1,looking at camera?,61,F_774.jpg,1652819545.06085,1652819545.07379,478.696422805786,5.20246624946594,483.915035238266,486.015818109512,0.3,492.90172003746,0.666914701461792,493.57243894577,1,left,0.65385103225708,493.568634738922,604.476662149429,607.236662149429,1652820026.51728,1652820026.51842,1652820031.73589,1652820031.7378,1652820033.83667,1652820040.72257,1652820040.72739,1652820041.39329,1652820041.38949,1652820152.29752,1
