src_subject_id,session_id,run_id,param_counterbalance_ver,param_block_num,param_trial_num,param_cond_type_num,param_cond_type_string,param_normative_response,param_ques_type_string,param_image_num,param_image_filename,param_trigger_onset,param_start_biopac,event01_fixation,event01_fixation_dur,event01_blockquestion_onset,event01_block_isi_blacksreen,event01_blockquestion_dur,event02_image_onset,event02_image_dur,event03_response_onset,event03_response_key,event03_response_keyname,event03_RT,event04_shortquestion_onset,param_end_instruct_onset,param_experiment_duration,RAW_e1_fixation,RAW_e1_fixation_biopac,RAW_e1_blockquestion_onset,RAW_e1_blockquestion_onset_biopac,RAW_e1_block_isi_blacksreen,RAW_e2_image_onset,RAW_e2_image_onset_biopac,RAW_e3_response_onset,RAW_e4_shortquestion_onset,RAW_param_end_instruct_onset,accuracy
104,4,2,3,1,1,4,c4_HowHand,1,reaching?,107,H_007.jpg,1645459968.18068,1645459968.18301,0.0284819507598875,0.0280671119689941,0.0618262195587156,2.11259149551392,2.0507652759552,2.26264714241028,1.73398065567017,4.08291100502014,1,left,1.78150386810303,3.99662779808044,604.470557441711,607.230557441711,1645459970.96916,1645459970.97281,1645459971.0025,1645459971.01145,1645459973.05327,1645459973.20333,1645459973.21217,1645459975.02359,1645459974.93731,1645460575.41124,1
104,4,2,3,1,2,4,c4_HowHand,2,reaching?,108,H_532.jpg,1645459968.18068,1645459968.18301,0.0284819507598875,0.0280671119689941,0.0618262195587156,2.11259149551392,0.3,4.31341265678406,0.0166728496551514,4.33833407402039,1,left,0.000306129455566406,4.33008550643921,604.470557441711,607.230557441711,1645459970.96916,1645459970.97281,1645459971.0025,1645459971.01145,1645459973.05327,1645459975.25409,1645459975.25574,1645459975.27901,1645459975.27076,1645460575.41124,0
104,4,2,3,1,3,4,c4_HowHand,1,reaching?,109,H_474.jpg,1645459968.18068,1645459968.18301,0.0284819507598875,0.0280671119689941,0.0618262195587156,2.11259149551392,0.3,4.64686988830566,1.50055932998657,6.15453409194946,3,right,1.48638391494751,6.14742921829224,604.470557441711,607.230557441711,1645459970.96916,1645459970.97281,1645459971.0025,1645459971.01145,1645459973.05327,1645459975.58755,1645459975.58964,1645459977.09521,1645459977.08811,1645460575.41124,0
104,4,2,3,1,4,4,c4_HowHand,2,reaching?,105,H_438.jpg,1645459968.18068,1645459968.18301,0.0284819507598875,0.0280671119689941,0.0618262195587156,2.11259149551392,0.3,6.46421431541443,1.0170464515686,7.48255299568176,3,right,0.994020938873291,7.48126076698303,604.470557441711,607.230557441711,1645459970.96916,1645459970.97281,1645459971.0025,1645459971.01145,1645459973.05327,1645459977.40489,1645459977.40688,1645459978.42323,1645459978.42194,1645460575.41124,0
104,4,2,3,1,5,4,c4_HowHand,1,reaching?,110,H_364.jpg,1645459968.18068,1645459968.18301,0.0284819507598875,0.0280671119689941,0.0618262195587156,2.11259149551392,0.3,7.79804347991943,0.950356245040894,8.75524209976196,1,left,0.927670001983643,8.74839972496033,604.470557441711,607.230557441711,1645459970.96916,1645459970.97281,1645459971.0025,1645459971.01145,1645459973.05327,1645459978.73872,1645459978.74631,1645459979.69592,1645459979.68908,1645460575.41124,1
104,4,2,3,1,6,4,c4_HowHand,1,reaching?,106,H_006.jpg,1645459968.18068,1645459968.18301,0.0284819507598875,0.0280671119689941,0.0618262195587156,2.11259149551392,0.3,9.06518458366394,0.917008876800537,9.98816513061523,1,left,0.908362150192261,9.98219346046448,604.470557441711,607.230557441711,1645459970.96916,1645459970.97281,1645459971.0025,1645459971.01145,1645459973.05327,1645459980.00586,1645459980.00762,1645459980.92884,1645459980.92287,1645460575.41124,1
104,4,2,3,1,7,4,c4_HowHand,1,reaching?,111,H_003.jpg,1645459968.18068,1645459968.18301,0.0284819507598875,0.0280671119689941,0.0618262195587156,2.11259149551392,0.3,10.2989773654938,1.00037264823914,11.3042170906067,1,left,0.991533994674683,11.2993500137329,604.470557441711,607.230557441711,1645459970.96916,1645459970.97281,1645459971.0025,1645459971.01145,1645459973.05327,1645459981.23966,1645459981.24137,1645459982.24489,1645459982.24003,1645460575.41124,1
104,4,2,3,1,8,4,c4_HowHand,2,reaching?,112,H_132.jpg,1645459968.18068,1645459968.18301,0.0284819507598875,0.0280671119689941,0.0618262195587156,2.11259149551392,0.3,11.6161360645294,1.03371834754944,12.653773059845,3,right,1.02107286453247,12.6498544120789,604.470557441711,607.230557441711,1645459970.96916,1645459970.97281,1645459971.0025,1645459971.01145,1645459973.05327,1645459982.55681,1645459982.56174,1645459983.59445,1645459983.59053,1645460575.41124,0
104,4,2,3,2,1,2,c2_WhyHand,1,healthy?,21,H_627.jpg,1645459968.18068,1645459968.18301,12.7832374477386,4.74800372123718,17.5350096130371,19.6357936763763,2.10078406333923,19.7858495616913,1.50055861473083,21.2874121570587,1,left,1.49182391166687,21.2864081764221,604.470557441711,607.230557441711,1645459983.72392,1645459983.7279,1645459988.47569,1645459988.47876,1645459990.57647,1645459990.72653,1645459990.7291,1645459992.22809,1645459992.22709,1645460575.41124,1
104,4,2,3,2,2,2,c2_WhyHand,1,healthy?,18,H_438.jpg,1645459968.18068,1645459968.18301,12.7832374477386,4.74800372123718,17.5350096130371,19.6357936763763,0.3,21.6031935119629,1.20044779777527,22.805220117569,1,left,1.17880392074585,22.8036413097382,604.470557441711,607.230557441711,1645459983.72392,1645459983.7279,1645459988.47569,1645459988.47876,1645459990.57647,1645459992.54387,1645459992.54524,1645459993.7459,1645459993.74432,1645460575.41124,1
104,4,2,3,2,3,2,c2_WhyHand,1,healthy?,23,H_364.jpg,1645459968.18068,1645459968.18301,12.7832374477386,4.74800372123718,17.5350096130371,19.6357936763763,0.3,23.120425453186,1.21712112426758,24.3390161895752,1,left,1.20745396614075,24.3375465774536,604.470557441711,607.230557441711,1645459983.72392,1645459983.7279,1645459988.47569,1645459988.47876,1645459990.57647,1645459994.0611,1645459994.06273,1645459995.27969,1645459995.27822,1645460575.41124,1
104,4,2,3,2,4,2,c2_WhyHand,2,healthy?,22,H_130.jpg,1645459968.18068,1645459968.18301,12.7832374477386,4.74800372123718,17.5350096130371,19.6357936763763,0.3,24.6543311977386,1.1170825958252,25.7724251651764,3,right,1.10639309883118,25.7714137935638,604.470557441711,607.230557441711,1645459983.72392,1645459983.7279,1645459988.47569,1645459988.47876,1645459990.57647,1645459995.59501,1645459995.59675,1645459996.7131,1645459996.71209,1645460575.41124,0
104,4,2,3,2,5,2,c2_WhyHand,1,healthy?,17,H_362.jpg,1645459968.18068,1645459968.18301,12.7832374477386,4.74800372123718,17.5350096130371,19.6357936763763,0.3,26.0881996059418,0.900335550308228,26.9899611377716,1,left,0.886017084121704,26.98853515625,604.470557441711,607.230557441711,1645459983.72392,1645459983.7279,1645459988.47569,1645459988.47876,1645459990.57647,1645459997.02888,1645459997.03051,1645459997.93064,1645459997.92921,1645460575.41124,1
104,4,2,3,2,6,2,c2_WhyHand,2,healthy?,20,H_007.jpg,1645459968.18068,1645459968.18301,12.7832374477386,4.74800372123718,17.5350096130371,19.6357936763763,0.3,27.3053209686279,0.917007446289062,28.2240130805969,3,right,0.893448829650879,28.222328414917,604.470557441711,607.230557441711,1645459983.72392,1645459983.7279,1645459988.47569,1645459988.47876,1645459990.57647,1645459998.246,1645459998.24775,1645459999.16469,1645459999.16301,1645460575.41124,0
104,4,2,3,2,7,2,c2_WhyHand,1,healthy?,19,H_167.jpg,1645459968.18068,1645459968.18301,12.7832374477386,4.74800372123718,17.5350096130371,19.6357936763763,0.3,28.5391135120392,0.733607053756714,29.2878901863098,1,left,0.725199937820435,29.2727205657959,604.470557441711,607.230557441711,1645459983.72392,1645459983.7279,1645459988.47569,1645459988.47876,1645459990.57647,1645459999.47979,1645459999.48201,1645460000.22857,1645460000.2134,1645460575.41124,1
104,4,2,3,2,8,2,c2_WhyHand,2,healthy?,24,H_019.jpg,1645459968.18068,1645459968.18301,12.7832374477386,4.74800372123718,17.5350096130371,19.6357936763763,0.3,29.5895044708252,1.21712160110474,30.8081982040405,3,right,1.19979596138,30.8066260719299,604.470557441711,607.230557441711,1645459983.72392,1645459983.7279,1645459988.47569,1645459988.47876,1645459990.57647,1645460000.53018,1645460000.53181,1645460001.74888,1645460001.7473,1645460575.41124,0
104,4,2,3,3,1,1,c1_WhyFace,1,admiring?,4,F_779.jpg,1645459968.18068,1645459968.18301,30.8899910354614,5.74917697906494,36.658808221817,38.7429187202454,2.08411049842834,38.8929743671417,1.10041046142578,40.0044891738892,1,left,1.0769510269165,39.9933848285675,604.470557441711,607.230557441711,1645460001.83067,1645460001.83247,1645460007.59949,1645460007.60177,1645460009.6836,1645460009.83365,1645460009.84527,1645460010.94517,1645460010.93406,1645460575.41124,1
104,4,2,3,3,2,1,c1_WhyFace,1,admiring?,1,F_593.jpg,1645459968.18068,1645459968.18301,30.8899910354614,5.74917697906494,36.658808221817,38.7429187202454,0.3,40.3101694488525,1.03371930122375,41.3543071651459,1,left,1.02291011810303,41.3438887500763,604.470557441711,607.230557441711,1645460001.83067,1645460001.83247,1645460007.59949,1645460007.60177,1645460009.6836,1645460011.25085,1645460011.25286,1645460012.29499,1645460012.28457,1645460575.41124,1
104,4,2,3,3,3,1,c1_WhyFace,2,admiring?,3,F_110.jpg,1645459968.18068,1645459968.18301,30.8899910354614,5.74917697906494,36.658808221817,38.7429187202454,0.3,41.6606733703613,0.950353384017944,42.6128010654449,3,right,0.927250146865845,42.6110267543793,604.470557441711,607.230557441711,1645460001.83067,1645460001.83247,1645460007.59949,1645460007.60177,1645460009.6836,1645460012.60135,1645460012.60287,1645460013.55348,1645460013.5517,1645460575.41124,0
104,4,2,3,3,4,1,c1_WhyFace,1,admiring?,8,F_590.jpg,1645459968.18068,1645459968.18301,30.8899910354614,5.74917697906494,36.658808221817,38.7429187202454,0.3,42.9278128051758,0.633569717407227,43.5705370807648,1,left,0.621796131134033,43.561382522583,604.470557441711,607.230557441711,1645460001.83067,1645460001.83247,1645460007.59949,1645460007.60177,1645460009.6836,1645460013.86849,1645460013.87039,1645460014.51121,1645460014.50206,1645460575.41124,1
104,4,2,3,3,5,1,c1_WhyFace,2,admiring?,6,F_692.jpg,1645459968.18068,1645459968.18301,30.8899910354614,5.74917697906494,36.658808221817,38.7429187202454,0.3,43.878167142868,1.71730780601501,NaN,0,NA,0,45.5954749488831,604.470557441711,607.230557441711,1645460001.83067,1645460001.83247,1645460007.59949,1645460007.60177,1645460009.6836,1645460014.81885,1645460014.82024,NaN,1645460016.53615,1645460575.41124,0
104,4,2,3,3,6,1,c1_WhyFace,1,admiring?,5,F_759.jpg,1645459968.18068,1645459968.18301,30.8899910354614,5.74917697906494,36.658808221817,38.7429187202454,0.3,45.9122598075867,0.650241374969482,46.5705070400238,1,left,0.636174917221069,46.5625011825562,604.470557441711,607.230557441711,1645460001.83067,1645460001.83247,1645460007.59949,1645460007.60177,1645460009.6836,1645460016.85294,1645460016.85405,1645460017.51118,1645460017.50318,1645460575.41124,1
104,4,2,3,3,7,1,c1_WhyFace,1,admiring?,7,F_648.jpg,1645459968.18068,1645459968.18301,30.8899910354614,5.74917697906494,36.658808221817,38.7429187202454,0.3,46.8792865180969,0.733605623245239,47.6205480003357,1,left,0.718246936798096,47.6128921413422,604.470557441711,607.230557441711,1645460001.83067,1645460001.83247,1645460007.59949,1645460007.60177,1645460009.6836,1645460017.81996,1645460017.82193,1645460018.56123,1645460018.55357,1645460575.41124,1
104,4,2,3,3,8,1,c1_WhyFace,2,admiring?,2,F_129.jpg,1645459968.18068,1645459968.18301,30.8899910354614,5.74917697906494,36.658808221817,38.7429187202454,0.3,47.9296774768829,1.43386769294739,49.3705570602417,3,right,1.42516493797302,49.3635451698303,604.470557441711,607.230557441711,1645460001.83067,1645460001.83247,1645460007.59949,1645460007.60177,1645460009.6836,1645460018.87036,1645460018.87196,1645460020.31123,1645460020.30422,1645460575.41124,0
104,4,2,3,4,1,3,c3_HowFace,1,smiling?,119,F_139.jpg,1645459968.18068,1645459968.18301,49.4302377605438,6.17289543151855,55.6158792877197,57.7166602516174,2.10078096389771,57.8667173290253,0.583548545837402,58.4537651443481,1,left,0.572611093521118,58.4502658748627,604.470557441711,607.230557441711,1645460020.37092,1645460020.37825,1645460026.55656,1645460026.56234,1645460028.65734,1645460028.8074,1645460028.81206,1645460029.39444,1645460029.39094,1645460575.41124,1
104,4,2,3,4,2,3,c3_HowFace,2,smiling?,113,F_712.jpg,1645459968.18068,1645459968.18301,49.4302377605438,6.17289543151855,55.6158792877197,57.7166602516174,0.3,58.7670521640778,0.933681964874268,59.7042581939697,3,right,0.917294979095459,59.700734128952,604.470557441711,607.230557441711,1645460020.37092,1645460020.37825,1645460026.55656,1645460026.56234,1645460028.65734,1645460029.70773,1645460029.71247,1645460030.64494,1645460030.64141,1645460575.41124,0
104,4,2,3,4,3,3,c3_HowFace,1,smiling?,115,F_695.jpg,1645459968.18068,1645459968.18301,49.4302377605438,6.17289543151855,55.6158792877197,57.7166602516174,0.3,60.0175185108185,0.683588981628418,60.7038350009918,1,left,0.661988019943237,60.7011074924469,604.470557441711,607.230557441711,1645460020.37092,1645460020.37825,1645460026.55656,1645460026.56234,1645460028.65734,1645460030.9582,1645460030.9619,1645460031.64451,1645460031.64179,1645460575.41124,1
104,4,2,3,4,4,3,c3_HowFace,2,smiling?,120,F_758.jpg,1645459968.18068,1645459968.18301,49.4302377605438,6.17289543151855,55.6158792877197,57.7166602516174,0.3,61.0178925895691,0.816970825195312,61.8360052013397,3,right,0.792709827423096,61.8348634147644,604.470557441711,607.230557441711,1645460020.37092,1645460020.37825,1645460026.55656,1645460026.56234,1645460028.65734,1645460031.95857,1645460031.96183,1645460032.77668,1645460032.77554,1645460575.41124,0
104,4,2,3,4,5,3,c3_HowFace,1,smiling?,116,F_083.jpg,1645459968.18068,1645459968.18301,49.4302377605438,6.17289543151855,55.6158792877197,57.7166602516174,0.3,62.1516489887238,0.616895437240601,62.7709932231903,1,left,0.599030017852783,62.7685444259644,604.470557441711,607.230557441711,1645460020.37092,1645460020.37825,1645460026.55656,1645460026.56234,1645460028.65734,1645460033.09233,1645460033.09513,1645460033.71167,1645460033.70922,1645460575.41124,1
104,4,2,3,4,6,3,c3_HowFace,1,smiling?,118,F_759.jpg,1645459968.18068,1645459968.18301,49.4302377605438,6.17289543151855,55.6158792877197,57.7166602516174,0.3,63.0853290462494,0.633570194244385,63.7204480075836,1,left,0.62538480758667,63.7188992404938,604.470557441711,607.230557441711,1645460020.37092,1645460020.37825,1645460026.55656,1645460026.56234,1645460028.65734,1645460034.02601,1645460034.02832,1645460034.66113,1645460034.65958,1645460575.41124,1
104,4,2,3,4,7,3,c3_HowFace,2,smiling?,114,F_412.jpg,1645459968.18068,1645459968.18301,49.4302377605438,6.17289543151855,55.6158792877197,57.7166602516174,0.3,64.035684337616,0.766952276229858,64.8037400150299,3,right,0.759073972702026,64.8026366138458,604.470557441711,607.230557441711,1645460020.37092,1645460020.37825,1645460026.55656,1645460026.56234,1645460028.65734,1645460034.97636,1645460034.97871,1645460035.74442,1645460035.74331,1645460575.41124,0
104,4,2,3,4,8,3,c3_HowFace,1,smiling?,117,F_593.jpg,1645459968.18068,1645459968.18301,49.4302377605438,6.17289543151855,55.6158792877197,57.7166602516174,0.3,65.1194212341309,0.850316762924194,65.9713981056213,1,left,0.829984903335571,65.969737997055,604.470557441711,607.230557441711,1645460020.37092,1645460020.37825,1645460026.55656,1645460026.56234,1645460028.65734,1645460036.0601,1645460036.06175,1645460036.91208,1645460036.91042,1645460575.41124,1
104,4,2,3,5,1,4,c4_HowHand,1,lifting?,56,H_136.jpg,1645459968.18068,1645459968.18301,66.0364301109314,7.09731698036194,73.1390793228149,75.2398624324799,2.10078310966492,75.389918794632,1.10040998458862,76.4919052028656,1,left,1.07561898231506,76.4903287792206,604.470557441711,607.230557441711,1645460036.97711,1645460036.97962,1645460044.07976,1645460044.09649,1645460046.18054,1645460046.3306,1645460046.3455,1645460047.43258,1645460047.43101,1645460575.41124,1
104,4,2,3,5,2,4,c4_HowHand,2,lifting?,51,H_038.jpg,1645459968.18068,1645459968.18301,66.0364301109314,7.09731698036194,73.1390793228149,75.2398624324799,0.3,76.8071136379242,1.01704335212708,77.8379402065277,3,right,1.00821495056152,77.8241569900513,604.470557441711,607.230557441711,1645460036.97711,1645460036.97962,1645460044.07976,1645460044.09649,1645460046.18054,1645460047.74779,1645460047.74984,1645460048.77862,1645460048.76483,1645460575.41124,0
104,4,2,3,5,3,4,c4_HowHand,1,lifting?,52,H_189.jpg,1645459968.18068,1645459968.18301,66.0364301109314,7.09731698036194,73.1390793228149,75.2398624324799,0.3,78.1409449481964,1.03371906280518,79.1871580982208,1,left,1.02308201789856,79.1746640110016,604.470557441711,607.230557441711,1645460036.97711,1645460036.97962,1645460044.07976,1645460044.09649,1645460046.18054,1645460049.08162,1645460049.08334,1645460050.12784,1645460050.11534,1645460575.41124,1
104,4,2,3,5,4,4,c4_HowHand,2,lifting?,53,H_077.jpg,1645459968.18068,1645459968.18301,66.0364301109314,7.09731698036194,73.1390793228149,75.2398624324799,0.3,79.4914476776123,0.967028379440308,80.4602591896057,3,right,0.948911905288696,80.4584760570526,604.470557441711,607.230557441711,1645460036.97711,1645460036.97962,1645460044.07976,1645460044.09649,1645460046.18054,1645460050.43213,1645460050.43327,1645460051.40094,1645460051.39915,1645460575.41124,0
104,4,2,3,5,5,4,c4_HowHand,1,lifting?,50,H_443.jpg,1645459968.18068,1645459968.18301,66.0364301109314,7.09731698036194,73.1390793228149,75.2398624324799,0.3,80.7752602005005,0.81697154045105,81.6038460636139,1,left,0.805860042572021,81.5922317409515,604.470557441711,607.230557441711,1645460036.97711,1645460036.97962,1645460044.07976,1645460044.09649,1645460046.18054,1645460051.71594,1645460051.71779,1645460052.54452,1645460052.53291,1645460575.41124,1
104,4,2,3,5,6,4,c4_HowHand,2,lifting?,55,H_012.jpg,1645459968.18068,1645459968.18301,66.0364301109314,7.09731698036194,73.1390793228149,75.2398624324799,0.3,81.909016122818,0.783625364303589,82.7041740322113,3,right,0.774578809738159,82.6926414871216,604.470557441711,607.230557441711,1645460036.97711,1645460036.97962,1645460044.07976,1645460044.09649,1645460046.18054,1645460052.84969,1645460052.85123,1645460053.64485,1645460053.63332,1645460575.41124,0
104,4,2,3,5,7,4,c4_HowHand,1,lifting?,49,H_362.jpg,1645459968.18068,1645459968.18301,66.0364301109314,7.09731698036194,73.1390793228149,75.2398624324799,0.3,83.0094261074066,0.60022497177124,83.6110060119629,1,left,0.585755109786987,83.6096510791779,604.470557441711,607.230557441711,1645460036.97711,1645460036.97962,1645460044.07976,1645460044.09649,1645460046.18054,1645460053.9501,1645460053.95163,1645460054.55168,1645460054.55033,1645460575.41124,1
104,4,2,3,5,8,4,c4_HowHand,1,lifting?,54,H_170.jpg,1645459968.18068,1645459968.18301,66.0364301109314,7.09731698036194,73.1390793228149,75.2398624324799,0.3,83.9264354610443,0.900335788726807,84.8283111953735,1,left,0.885747909545898,84.8267712497711,604.470557441711,607.230557441711,1645460036.97711,1645460036.97962,1645460044.07976,1645460044.09649,1645460046.18054,1645460054.86711,1645460054.86862,1645460055.76899,1645460055.76745,1645460575.41124,1
104,4,2,3,6,1,2,c2_WhyHand,1,helping?,38,H_077.jpg,1645459968.18068,1645459968.18301,84.893461933136,10.7215261459351,95.6307997608185,97.7315835857391,2.10078382492065,97.8816394710541,1.30048513412476,99.1871671581268,1,left,1.28203511238098,99.1821246051788,604.470557441711,607.230557441711,1645460055.83414,1645460055.84509,1645460066.57148,1645460066.57347,1645460068.67226,1645460068.82232,1645460068.82431,1645460070.12785,1645460070.1228,1645460575.41124,1
104,4,2,3,6,2,2,c2_WhyHand,1,helping?,36,H_349.jpg,1645459968.18068,1645459968.18301,84.893461933136,10.7215261459351,95.6307997608185,97.7315835857391,0.3,99.4989094638824,0.766952514648438,100.270779123306,1,left,0.752791166305542,100.265861978531,604.470557441711,607.230557441711,1645460055.83414,1645460055.84509,1645460066.57148,1645460066.57347,1645460068.67226,1645460070.43959,1645460070.44104,1645460071.21146,1645460071.20654,1645460575.41124,1
104,4,2,3,6,3,2,c2_WhyHand,1,helping?,37,H_474.jpg,1645459968.18068,1645459968.18301,84.893461933136,10.7215261459351,95.6307997608185,97.7315835857391,0.3,100.582646121979,0.783626079559326,101.36735414505,1,left,0.762684106826782,101.366272201538,604.470557441711,607.230557441711,1645460055.83414,1645460055.84509,1645460066.57148,1645460066.57347,1645460068.67226,1645460071.52332,1645460071.52504,1645460072.30803,1645460072.30695,1645460575.41124,1
104,4,2,3,6,4,2,c2_WhyHand,1,helping?,39,H_024.jpg,1645459968.18068,1645459968.18301,84.893461933136,10.7215261459351,95.6307997608185,97.7315835857391,0.3,101.683057060242,1.217120885849,102.903741111755,3,right,1.20659804344177,102.900177946091,604.470557441711,607.230557441711,1645460055.83414,1645460055.84509,1645460066.57148,1645460066.57347,1645460068.67226,1645460072.62373,1645460072.62865,1645460073.84442,1645460073.84086,1645460575.41124,0
104,4,2,3,6,5,2,c2_WhyHand,2,helping?,40,H_012.jpg,1645459968.18068,1645459968.18301,84.893461933136,10.7215261459351,95.6307997608185,97.7315835857391,0.3,103.216962566376,0.900336265563965,104.120930185318,1,left,0.889693021774292,104.11729883194,604.470557441711,607.230557441711,1645460055.83414,1645460055.84509,1645460066.57148,1645460066.57347,1645460068.67226,1645460074.15764,1645460074.16178,1645460075.06161,1645460075.05798,1645460575.41124,0
104,4,2,3,6,6,2,c2_WhyHand,2,helping?,35,H_159.jpg,1645459968.18068,1645459968.18301,84.893461933136,10.7215261459351,95.6307997608185,97.7315835857391,0.3,104.434082260132,1.41719603538513,105.854358186722,3,right,1.40352010726929,105.851278295517,604.470557441711,607.230557441711,1645460055.83414,1645460055.84509,1645460066.57148,1645460066.57347,1645460068.67226,1645460075.37476,1645460075.37842,1645460076.79504,1645460076.79196,1645460575.41124,0
104,4,2,3,6,7,2,c2_WhyHand,1,helping?,34,H_111.jpg,1645459968.18068,1645459968.18301,84.893461933136,10.7215261459351,95.6307997608185,97.7315835857391,0.3,106.168062438965,1.00037288665771,107.170997133255,1,left,0.981902122497559,107.168435325623,604.470557441711,607.230557441711,1645460055.83414,1645460055.84509,1645460066.57148,1645460066.57347,1645460068.67226,1645460077.10874,1645460077.11161,1645460078.11168,1645460078.10911,1645460575.41124,1
104,4,2,3,6,8,2,c2_WhyHand,2,helping?,33,H_091.jpg,1645459968.18068,1645459968.18301,84.893461933136,10.7215261459351,95.6307997608185,97.7315835857391,0.3,107.485220422745,1.1004114151001,108.587052097321,3,right,1.09189081192017,108.585631837845,604.470557441711,607.230557441711,1645460055.83414,1645460055.84509,1645460066.57148,1645460066.57347,1645460068.67226,1645460078.4259,1645460078.42864,1645460079.52773,1645460079.52631,1645460575.41124,0
104,4,2,3,7,1,1,c1_WhyFace,1,proud?,104,F_598.jpg,1645459968.18068,1645459968.18301,108.652321805954,4.83767819404602,113.504131546021,115.604915370941,2.10078382492065,115.754971017838,1.40052223205566,117.157184114456,1,left,1.38556885719299,117.155493249893,604.470557441711,607.230557441711,1645460079.593,1645460079.59512,1645460084.44481,1645460084.44665,1645460086.54559,1645460086.69565,1645460086.69709,1645460088.09786,1645460088.09617,1645460575.41124,1
104,4,2,3,7,2,1,c1_WhyFace,2,proud?,102,F_760.jpg,1645459968.18068,1645459968.18301,108.652321805954,4.83767819404602,113.504131546021,115.604915370941,0.3,117.472278585434,1.13375639915466,118.620491018295,3,right,1.12649297714233,118.606034984589,604.470557441711,607.230557441711,1645460079.593,1645460079.59512,1645460084.44481,1645460084.44665,1645460086.54559,1645460088.41296,1645460088.41448,1645460089.56117,1645460089.54671,1645460575.41124,0
104,4,2,3,7,3,1,c1_WhyFace,1,proud?,97,F_582.jpg,1645459968.18068,1645459968.18301,108.652321805954,4.83767819404602,113.504131546021,115.604915370941,0.3,118.922819604874,0.900335788726807,119.824946155548,1,left,0.878605127334595,119.8231553936,604.470557441711,607.230557441711,1645460079.593,1645460079.59512,1645460084.44481,1645460084.44665,1645460086.54559,1645460089.8635,1645460089.86537,1645460090.76562,1645460090.76383,1645460575.41124,1
104,4,2,3,7,4,1,c1_WhyFace,2,proud?,98,F_412.jpg,1645459968.18068,1645459968.18301,108.652321805954,4.83767819404602,113.504131546021,115.604915370941,0.3,120.139940490723,0.816972732543945,120.970580091476,3,right,0.807347059249878,120.956913223267,604.470557441711,607.230557441711,1645460079.593,1645460079.59512,1645460084.44481,1645460084.44665,1645460086.54559,1645460091.08062,1645460091.08237,1645460091.91126,1645460091.89759,1645460575.41124,0
104,4,2,3,7,5,1,c1_WhyFace,1,proud?,101,F_083.jpg,1645459968.18068,1645459968.18301,108.652321805954,4.83767819404602,113.504131546021,115.604915370941,0.3,121.273695936203,1.26713967323303,122.541846027374,1,left,1.25134992599487,122.540835609436,604.470557441711,607.230557441711,1645460079.593,1645460079.59512,1645460084.44481,1645460084.44665,1645460086.54559,1645460092.21437,1645460092.2159,1645460093.48252,1645460093.48151,1645460575.41124,1
104,4,2,3,7,6,1,c1_WhyFace,2,proud?,100,F_776.jpg,1645459968.18068,1645459968.18301,108.652321805954,4.83767819404602,113.504131546021,115.604915370941,0.3,122.857619991302,1.71730589866638,124.83838104248,1,left,1.96009297370911,124.574925889969,604.470557441711,607.230557441711,1645460079.593,1645460079.59512,1645460084.44481,1645460084.44665,1645460086.54559,1645460093.7983,1645460093.79981,1645460095.77906,1645460095.5156,1645460575.41124,0
104,4,2,3,7,7,1,c1_WhyFace,1,proud?,103,F_618.jpg,1645459968.18068,1645459968.18301,108.652321805954,4.83767819404602,113.504131546021,115.604915370941,0.3,124.891712417603,0.016671895980835,124.910146226883,1,left,0.000232934951782227,124.908384313583,604.470557441711,607.230557441711,1645460079.593,1645460079.59512,1645460084.44481,1645460084.44665,1645460086.54559,1645460095.83239,1645460095.83387,1645460095.85082,1645460095.84906,1645460575.41124,1
104,4,2,3,7,8,1,c1_WhyFace,1,proud?,99,F_695.jpg,1645459968.18068,1645459968.18301,108.652321805954,4.83767819404602,113.504131546021,115.604915370941,0.3,125.225168933868,0.0166735649108887,125.243337144852,1,left,0.000321865081787109,125.241842498779,604.470557441711,607.230557441711,1645460079.593,1645460079.59512,1645460084.44481,1645460084.44665,1645460086.54559,1645460096.16585,1645460096.16744,1645460096.18402,1645460096.18252,1645460575.41124,1
104,4,2,3,8,1,3,c3_HowFace,1,looking to side?,72,F_590.jpg,1645459968.18068,1645459968.18301,125.3085338974,5.71146631240845,131.027333011627,133.128116836548,2.10078382492065,133.278172006607,0.666916131973267,133.946127166748,1,left,0.638787031173706,133.94508813858,604.470557441711,607.230557441711,1645460096.24921,1645460096.25102,1645460101.96801,1645460101.97898,1645460104.06879,1645460104.21885,1645460104.22879,1645460104.88681,1645460104.88577,1645460575.41124,1
104,4,2,3,8,2,3,c3_HowFace,1,looking to side?,71,F_433.jpg,1645459968.18068,1645459968.18301,125.3085338974,5.71146631240845,131.027333011627,133.128116836548,0.3,134.261873950958,0.900334358215332,135.171135177612,1,left,0.886738061904907,135.162208309174,604.470557441711,607.230557441711,1645460096.24921,1645460096.25102,1645460101.96801,1645460101.97898,1645460104.06879,1645460105.20255,1645460105.20419,1645460106.11181,1645460106.10289,1645460575.41124,1
104,4,2,3,8,3,3,c3_HowFace,1,looking to side?,67,F_716.jpg,1645459968.18068,1645459968.18301,125.3085338974,5.71146631240845,131.027333011627,133.128116836548,0.3,135.478993644714,0.650242567062378,136.13793419838,1,left,0.639713048934937,136.129236211777,604.470557441711,607.230557441711,1645460096.24921,1645460096.25102,1645460101.96801,1645460101.97898,1645460104.06879,1645460106.41967,1645460106.42142,1645460107.07861,1645460107.06991,1645460575.41124,1
104,4,2,3,8,4,3,c3_HowFace,2,looking to side?,70,F_779.jpg,1645459968.18068,1645459968.18301,125.3085338974,5.71146631240845,131.027333011627,133.128116836548,0.3,136.446021547318,1.13375473022461,137.587895145416,3,right,1.11715388298035,137.579776277542,604.470557441711,607.230557441711,1645460096.24921,1645460096.25102,1645460101.96801,1645460101.97898,1645460104.06879,1645460107.3867,1645460107.38871,1645460108.52857,1645460108.52045,1645460575.41124,0
104,4,2,3,8,5,3,c3_HowFace,1,looking to side?,68,F_760.jpg,1645459968.18068,1645459968.18301,125.3085338974,5.71146631240845,131.027333011627,133.128116836548,0.3,137.896563043594,1.2171196937561,139.114724149704,1,left,1.19644093513489,139.11368273735,604.470557441711,607.230557441711,1645460096.24921,1645460096.25102,1645460101.96801,1645460101.97898,1645460104.06879,1645460108.83724,1645460108.83878,1645460110.0554,1645460110.05436,1645460575.41124,1
104,4,2,3,8,6,3,c3_HowFace,2,looking to side?,66,F_111.jpg,1645459968.18068,1645459968.18301,125.3085338974,5.71146631240845,131.027333011627,133.128116836548,0.3,139.430467357636,0.917009115219116,140.354528179169,3,right,0.909359931945801,140.347476472855,604.470557441711,607.230557441711,1645460096.24921,1645460096.25102,1645460101.96801,1645460101.97898,1645460104.06879,1645460110.37115,1645460110.37247,1645460111.29521,1645460111.28815,1645460575.41124,0
104,4,2,3,8,7,3,c3_HowFace,1,looking to side?,69,F_110.jpg,1645459968.18068,1645459968.18301,125.3085338974,5.71146631240845,131.027333011627,133.128116836548,0.3,140.664260139465,1.48388862609863,142.153925170898,3,right,1.46588182449341,142.148148765564,604.470557441711,607.230557441711,1645460096.24921,1645460096.25102,1645460101.96801,1645460101.97898,1645460104.06879,1645460111.60494,1645460111.6065,1645460113.0946,1645460113.08883,1645460575.41124,0
104,4,2,3,8,8,3,c3_HowFace,2,looking to side?,65,F_798.jpg,1645459968.18068,1645459968.18301,125.3085338974,5.71146631240845,131.027333011627,133.128116836548,0.3,142.464932193756,1.20044755935669,143.666447153091,3,right,1.17884016036987,143.665379753113,604.470557441711,607.230557441711,1645460096.24921,1645460096.25102,1645460101.96801,1645460101.97898,1645460104.06879,1645460113.40561,1645460113.40737,1645460114.60713,1645460114.60606,1645460575.41124,0
104,4,2,3,9,1,1,c1_WhyFace,1,argument?,43,F_716.jpg,1645459968.18068,1645459968.18301,143.732071628571,6.39594054222107,150.134459486008,152.235242357254,2.10078287124634,152.385298242569,1.48388719558716,153.871147146225,1,left,1.46462893486023,153.869185438156,604.470557441711,607.230557441711,1645460114.67275,1645460114.67443,1645460121.07514,1645460121.07844,1645460123.17592,1645460123.32598,1645460123.32882,1645460124.81183,1645460124.80986,1645460575.41124,1
104,4,2,3,9,2,1,c1_WhyFace,2,argument?,44,F_139.jpg,1645459968.18068,1645459968.18301,143.732071628571,6.39594054222107,150.134459486008,152.235242357254,0.3,154.185970773697,0.783624649047852,154.971029033661,3,right,0.761148929595947,154.969595422745,604.470557441711,607.230557441711,1645460114.67275,1645460114.67443,1645460121.07514,1645460121.07844,1645460123.17592,1645460125.12665,1645460125.12865,1645460125.91171,1645460125.91027,1645460575.41124,0
104,4,2,3,9,3,1,c1_WhyFace,1,argument?,41,F_712.jpg,1645459968.18068,1645459968.18301,143.732071628571,6.39594054222107,150.134459486008,152.235242357254,0.3,155.286380281448,0.88366174697876,156.171347131729,1,left,0.874748945236206,156.170042028427,604.470557441711,607.230557441711,1645460114.67275,1645460114.67443,1645460121.07514,1645460121.07844,1645460123.17592,1645460126.22706,1645460126.22865,1645460127.11203,1645460127.11072,1645460575.41124,1
104,4,2,3,9,4,1,c1_WhyFace,2,argument?,45,F_433.jpg,1645459968.18068,1645459968.18301,143.732071628571,6.39594054222107,150.134459486008,152.235242357254,0.3,156.486828317642,0.866990089416504,157.354847183228,3,right,0.850661039352417,157.353818407059,604.470557441711,607.230557441711,1645460114.67275,1645460114.67443,1645460121.07514,1645460121.07844,1645460123.17592,1645460127.42751,1645460127.42911,1645460128.29553,1645460128.2945,1645460575.41124,0
104,4,2,3,9,5,1,c1_WhyFace,1,argument?,42,F_403.jpg,1645459968.18068,1645459968.18301,143.732071628571,6.39594054222107,150.134459486008,152.235242357254,0.3,157.670602073669,0.666916131973267,158.339119186401,1,left,0.65307092666626,158.337518205643,604.470557441711,607.230557441711,1645460114.67275,1645460114.67443,1645460121.07514,1645460121.07844,1645460123.17592,1645460128.61128,1645460128.61223,1645460129.2798,1645460129.2782,1645460575.41124,1
104,4,2,3,9,6,1,c1_WhyFace,2,argument?,46,F_844.jpg,1645459968.18068,1645459968.18301,143.732071628571,6.39594054222107,150.134459486008,152.235242357254,0.3,158.654302587509,0.900335550308228,159.556370010376,3,right,0.881131172180176,159.554638137817,604.470557441711,607.230557441711,1645460114.67275,1645460114.67443,1645460121.07514,1645460121.07844,1645460123.17592,1645460129.59498,1645460129.59681,1645460130.49705,1645460130.49532,1645460575.41124,0
104,4,2,3,9,7,1,c1_WhyFace,1,argument?,47,F_743.jpg,1645459968.18068,1645459968.18301,143.732071628571,6.39594054222107,150.134459486008,152.235242357254,0.3,159.87142323494,0.7169349193573,160.589900007248,1,left,0.705731153488159,160.588358154297,604.470557441711,607.230557441711,1645460114.67275,1645460114.67443,1645460121.07514,1645460121.07844,1645460123.17592,1645460130.8121,1645460130.81376,1645460131.53058,1645460131.52904,1645460575.41124,1
104,4,2,3,9,8,1,c1_WhyFace,1,argument?,48,F_758.jpg,1645459968.18068,1645459968.18301,143.732071628571,6.39594054222107,150.134459486008,152.235242357254,0.3,160.905142297745,0.983700752258301,161.889779081345,1,left,0.973391056060791,161.888843050003,604.470557441711,607.230557441711,1645460114.67275,1645460114.67443,1645460121.07514,1645460121.07844,1645460123.17592,1645460131.84582,1645460131.84785,1645460132.83046,1645460132.82952,1645460575.41124,1
104,4,2,3,10,1,3,c3_HowFace,1,open mouth?,80,F_844.jpg,1645459968.18068,1645459968.18301,161.955533971787,6.01256108283997,167.974445810318,170.075227966309,2.1007821559906,170.225284090042,0.833644866943359,171.060551156998,1,left,0.806609153747559,171.058928956985,604.470557441711,607.230557441711,1645460132.89621,1645460132.89767,1645460138.91512,1645460138.92891,1645460141.01591,1645460141.16596,1645460141.17973,1645460142.00123,1645460141.99961,1645460575.41124,1
104,4,2,3,10,2,3,c3_HowFace,1,open mouth?,74,F_776.jpg,1645459968.18068,1645459968.18301,161.955533971787,6.01256108283997,167.974445810318,170.075227966309,0.3,171.375713100433,0.666916608810425,172.054521074295,1,left,0.656790971755981,172.042629709244,604.470557441711,607.230557441711,1645460132.89621,1645460132.89767,1645460138.91512,1645460138.92891,1645460141.01591,1645460142.31639,1645460142.31795,1645460142.9952,1645460142.98331,1645460575.41124,1
104,4,2,3,10,3,3,c3_HowFace,2,open mouth?,76,F_544.jpg,1645459968.18068,1645459968.18301,161.955533971787,6.01256108283997,167.974445810318,170.075227966309,0.3,172.359413375855,0.900336027145386,173.260789146423,3,right,0.880203008651733,173.259749403,604.470557441711,607.230557441711,1645460132.89621,1645460132.89767,1645460138.91512,1645460138.92891,1645460141.01591,1645460143.30009,1645460143.30177,1645460144.20147,1645460144.20043,1645460575.41124,0
104,4,2,3,10,4,3,c3_HowFace,1,open mouth?,78,F_692.jpg,1645459968.18068,1645459968.18301,161.955533971787,6.01256108283997,167.974445810318,170.075227966309,0.3,173.576534261704,0.566877841949463,174.145158042908,1,left,0.546226024627686,174.143412103653,604.470557441711,607.230557441711,1645460132.89621,1645460132.89767,1645460138.91512,1645460138.92891,1645460141.01591,1645460144.51721,1645460144.5188,1645460145.08584,1645460145.08409,1645460575.41124,1
104,4,2,3,10,5,3,c3_HowFace,2,open mouth?,77,F_584.jpg,1645459968.18068,1645459968.18301,161.955533971787,6.01256108283997,167.974445810318,170.075227966309,0.3,174.460197916031,0.883661985397339,175.344912996292,3,right,0.861531972885132,175.343859901428,604.470557441711,607.230557441711,1645460132.89621,1645460132.89767,1645460138.91512,1645460138.92891,1645460141.01591,1645460145.40088,1645460145.40289,1645460146.28559,1645460146.28454,1645460575.41124,0
104,4,2,3,10,6,3,c3_HowFace,1,open mouth?,73,F_403.jpg,1645459968.18068,1645459968.18301,161.955533971787,6.01256108283997,167.974445810318,170.075227966309,0.3,175.660645236969,0.816970348358154,176.487497081757,1,left,0.810057163238525,176.477615585327,604.470557441711,607.230557441711,1645460132.89621,1645460132.89767,1645460138.91512,1645460138.92891,1645460141.01591,1645460146.60132,1645460146.60314,1645460147.42817,1645460147.41829,1645460575.41124,1
104,4,2,3,10,7,3,c3_HowFace,1,open mouth?,75,F_086.jpg,1645459968.18068,1645459968.18301,161.955533971787,6.01256108283997,167.974445810318,170.075227966309,0.3,176.794401636124,0.800297737121582,177.596449127197,1,left,0.781389951705933,177.594699373245,604.470557441711,607.230557441711,1645460132.89621,1645460132.89767,1645460138.91512,1645460138.92891,1645460141.01591,1645460147.73508,1645460147.73634,1645460148.53713,1645460148.53538,1645460575.41124,1
104,4,2,3,10,8,3,c3_HowFace,2,open mouth?,79,F_648.jpg,1645459968.18068,1645459968.18301,161.955533971787,6.01256108283997,167.974445810318,170.075227966309,0.3,177.911484708786,0.833643674850464,178.746135225296,3,right,0.811418056488037,178.745128383636,604.470557441711,607.230557441711,1645460132.89621,1645460132.89767,1645460138.91512,1645460138.92891,1645460141.01591,1645460148.85216,1645460148.8538,1645460149.68681,1645460149.68581,1645460575.41124,0
104,4,2,3,11,1,4,c4_HowHand,1,pressing button?,88,H_019.jpg,1645459968.18068,1645459968.18301,178.811820735931,7.04628229141235,185.864450445175,187.965233793259,2.1007833480835,188.115289440155,1.11708283424377,189.237904062271,1,left,1.09492993354797,189.232372274399,604.470557441711,607.230557441711,1645460149.7525,1645460149.7542,1645460156.80513,1645460156.81204,1645460158.90591,1645460159.05597,1645460159.06233,1645460160.17858,1645460160.17305,1645460575.41124,1
104,4,2,3,11,2,4,c4_HowHand,2,pressing button?,87,H_024.jpg,1645459968.18068,1645459968.18301,178.811820735931,7.04628229141235,185.864450445175,187.965233793259,0.3,189.549157133102,1.05039262771606,190.604258050919,3,right,1.03662109375,190.599549760818,604.470557441711,607.230557441711,1645460149.7525,1645460149.7542,1645460156.80513,1645460156.81204,1645460158.90591,1645460160.48984,1645460160.4918,1645460161.54494,1645460161.54023,1645460575.41124,0
104,4,2,3,11,3,4,c4_HowHand,2,pressing button?,85,H_130.jpg,1645459968.18068,1645459968.18301,178.811820735931,7.04628229141235,185.864450445175,187.965233793259,0.3,190.916334381104,0.967027425765991,191.884911050797,3,right,0.941216945648193,191.88336180687,604.470557441711,607.230557441711,1645460149.7525,1645460149.7542,1645460156.80513,1645460156.81204,1645460158.90591,1645460161.85701,1645460161.86192,1645460162.82559,1645460162.82404,1645460575.41124,0
104,4,2,3,11,4,4,c4_HowHand,1,pressing button?,83,H_502.jpg,1645459968.18068,1645459968.18301,178.811820735931,7.04628229141235,185.864450445175,187.965233793259,0.3,192.200146665573,0.700261116027832,192.903873195648,1,left,0.68825888633728,192.900407781601,604.470557441711,607.230557441711,1645460149.7525,1645460149.7542,1645460156.80513,1645460156.81204,1645460158.90591,1645460163.14082,1645460163.14518,1645460163.84455,1645460163.84109,1645460575.41124,1
104,4,2,3,11,5,4,c4_HowHand,2,pressing button?,81,H_261.jpg,1645459968.18068,1645459968.18301,178.811820735931,7.04628229141235,185.864450445175,187.965233793259,0.3,193.217191925049,0.917008638381958,194.137480010986,3,right,0.894304037094116,194.134200563431,604.470557441711,607.230557441711,1645460149.7525,1645460149.7542,1645460156.80513,1645460156.81204,1645460158.90591,1645460164.15787,1645460164.16179,1645460165.07816,1645460165.07488,1645460575.41124,0
104,4,2,3,11,6,4,c4_HowHand,1,pressing button?,86,H_332.jpg,1645459968.18068,1645459968.18301,178.811820735931,7.04628229141235,185.864450445175,187.965233793259,0.3,194.450984945297,0.683588743209839,195.137418022156,1,left,0.667947053909302,195.134573688507,604.470557441711,607.230557441711,1645460149.7525,1645460149.7542,1645460156.80513,1645460156.81204,1645460158.90591,1645460165.39166,1645460165.39511,1645460166.0781,1645460166.07525,1645460575.41124,1
104,4,2,3,11,7,4,c4_HowHand,1,pressing button?,82,H_126.jpg,1645459968.18068,1645459968.18301,178.811820735931,7.04628229141235,185.864450445175,187.965233793259,0.3,195.451358308792,0.683589935302734,196.137569179535,1,left,0.672966957092285,196.134948244095,604.470557441711,607.230557441711,1645460149.7525,1645460149.7542,1645460156.80513,1645460156.81204,1645460158.90591,1645460166.39204,1645460166.39475,1645460167.07825,1645460167.07563,1645460575.41124,1
104,4,2,3,11,8,4,c4_HowHand,1,pressing button?,84,H_483.jpg,1645459968.18068,1645459968.18301,178.811820735931,7.04628229141235,185.864450445175,187.965233793259,0.3,196.451731433868,0.850316762924194,197.304334154129,1,left,0.840729951858521,197.302048196793,604.470557441711,607.230557441711,1645460149.7525,1645460149.7542,1645460156.80513,1645460156.81204,1645460158.90591,1645460167.39241,1645460167.39526,1645460168.24501,1645460168.24273,1645460575.41124,1
104,4,2,3,12,1,2,c2_WhyHand,1,competing?,9,H_261.jpg,1645459968.18068,1645459968.18301,197.385413160324,6.2627329826355,203.654417266846,205.755201330185,2.10078406333923,205.905257453918,0.816970825195312,206.724082221985,1,left,0.804237127304077,206.722228279114,604.470557441711,607.230557441711,1645460168.32609,1645460168.32841,1645460174.5951,1645460174.59717,1645460176.69588,1645460176.84594,1645460176.84787,1645460177.66476,1645460177.66291,1645460575.41124,1
104,4,2,3,12,2,2,c2_WhyHand,2,competing?,12,H_483.jpg,1645459968.18068,1645459968.18301,197.385413160324,6.2627329826355,203.654417266846,205.755201330185,0.3,207.039013853073,0.917008399963379,207.957711210251,3,right,0.894531965255737,207.956022253037,604.470557441711,607.230557441711,1645460168.32609,1645460168.32841,1645460174.5951,1645460174.59717,1645460176.69588,1645460177.97969,1645460177.98115,1645460178.89839,1645460178.8967,1645460575.41124,0
104,4,2,3,12,3,2,c2_WhyHand,1,competing?,14,H_132.jpg,1645459968.18068,1645459968.18301,197.385413160324,6.2627329826355,203.654417266846,205.755201330185,0.3,208.272806158066,0.683588981628418,208.958178033829,1,left,0.66339111328125,208.956395139694,604.470557441711,607.230557441711,1645460168.32609,1645460168.32841,1645460174.5951,1645460174.59717,1645460176.69588,1645460179.21348,1645460179.21484,1645460179.89886,1645460179.89707,1645460575.41124,1
104,4,2,3,12,4,2,c2_WhyHand,2,competing?,10,H_126.jpg,1645459968.18068,1645459968.18301,197.385413160324,6.2627329826355,203.654417266846,205.755201330185,0.3,209.273179283142,0.883663654327393,210.17058514595,3,right,0.876091003417969,210.156842937469,604.470557441711,607.230557441711,1645460168.32609,1645460168.32841,1645460174.5951,1645460174.59717,1645460176.69588,1645460180.21386,1645460180.21537,1645460181.11126,1645460181.09752,1645460575.41124,0
104,4,2,3,12,5,2,c2_WhyHand,1,competing?,16,H_136.jpg,1645459968.18068,1645459968.18301,197.385413160324,6.2627329826355,203.654417266846,205.755201330185,0.3,210.473627796173,0.90033483505249,211.375661125183,1,left,0.884917974472046,211.373962631226,604.470557441711,607.230557441711,1645460168.32609,1645460168.32841,1645460174.5951,1645460174.59717,1645460176.69588,1645460181.41431,1645460181.41627,1645460182.31634,1645460182.31464,1645460575.41124,1
104,4,2,3,12,6,2,c2_WhyHand,2,competing?,11,H_502.jpg,1645459968.18068,1645459968.18301,197.385413160324,6.2627329826355,203.654417266846,205.755201330185,0.3,211.690747966766,0.866990089416504,212.559348096848,3,right,0.853237867355347,212.557738056183,604.470557441711,607.230557441711,1645460168.32609,1645460168.32841,1645460174.5951,1645460174.59717,1645460176.69588,1645460182.63143,1645460182.63307,1645460183.50003,1645460183.49842,1645460575.41124,0
104,4,2,3,12,7,2,c2_WhyHand,1,competing?,13,H_003.jpg,1645459968.18068,1645459968.18301,197.385413160324,6.2627329826355,203.654417266846,205.755201330185,0.3,212.874522199631,0.933682680130005,213.809703102112,1,left,0.912509918212891,213.808204879761,604.470557441711,607.230557441711,1645460168.32609,1645460168.32841,1645460174.5951,1645460174.59717,1645460176.69588,1645460183.8152,1645460183.8168,1645460184.75038,1645460184.74888,1645460575.41124,1
104,4,2,3,12,8,2,c2_WhyHand,1,competing?,15,H_170.jpg,1645459968.18068,1645459968.18301,197.385413160324,6.2627329826355,203.654417266846,205.755201330185,0.3,214.124989500046,0.633568525314331,214.760079135895,1,left,0.614711999893188,214.75855802536,604.470557441711,607.230557441711,1645460168.32609,1645460168.32841,1645460174.5951,1645460174.59717,1645460176.69588,1645460185.06567,1645460185.06752,1645460185.70076,1645460185.69924,1645460575.41124,1
104,4,2,3,13,1,1,c1_WhyFace,1,self-doubt?,29,F_544.jpg,1645459968.18068,1645459968.18301,214.825250616074,6.89277052879333,221.727824678421,223.828607788086,2.10078310966492,223.978663434982,0.983700037002563,224.971347084045,1,left,0.966922998428345,224.962363471985,604.470557441711,607.230557441711,1645460185.76593,1645460185.77868,1645460192.6685,1645460192.67887,1645460194.76929,1645460194.91934,1645460194.92881,1645460195.91202,1645460195.90304,1645460575.41124,1
104,4,2,3,13,2,1,c1_WhyFace,2,self-doubt?,27,F_086.jpg,1645459968.18068,1645459968.18301,214.825250616074,6.89277052879333,221.727824678421,223.828607788086,0.3,225.279148330688,1.20044779777527,226.487176170349,3,right,1.19111013412476,226.479596128464,604.470557441711,607.230557441711,1645460185.76593,1645460185.77868,1645460192.6685,1645460192.67887,1645460194.76929,1645460196.21983,1645460196.22166,1645460197.42785,1645460197.42027,1645460575.41124,0
104,4,2,3,13,3,1,c1_WhyFace,1,self-doubt?,25,F_798.jpg,1645459968.18068,1645459968.18301,214.825250616074,6.89277052879333,221.727824678421,223.828607788086,0.3,226.796381464005,0.666915416717529,227.470552196503,1,left,0.650866985321045,227.463296880722,604.470557441711,607.230557441711,1645460185.76593,1645460185.77868,1645460192.6685,1645460192.67887,1645460194.76929,1645460197.73706,1645460197.73851,1645460198.41123,1645460198.40397,1645460575.41124,1
104,4,2,3,13,4,1,c1_WhyFace,1,self-doubt?,26,F_111.jpg,1645459968.18068,1645459968.18301,214.825250616074,6.89277052879333,221.727824678421,223.828607788086,0.3,227.780081739426,1.28381204605103,229.070877065659,1,left,1.27555394172668,229.063893785477,604.470557441711,607.230557441711,1645460185.76593,1645460185.77868,1645460192.6685,1645460192.67887,1645460194.76929,1645460198.72076,1645460198.72216,1645460200.01155,1645460200.00457,1645460575.41124,1
104,4,2,3,13,5,1,c1_WhyFace,2,self-doubt?,31,F_774.jpg,1645459968.18068,1645459968.18301,214.825250616074,6.89277052879333,221.727824678421,223.828607788086,0.3,229.380678405762,0.83364462852478,230.220886220932,3,right,0.818497896194458,230.214323034287,604.470557441711,607.230557441711,1645460185.76593,1645460185.77868,1645460192.6685,1645460192.67887,1645460194.76929,1645460200.32136,1645460200.32315,1645460201.16156,1645460201.155,1645460575.41124,0
104,4,2,3,13,6,1,c1_WhyFace,1,self-doubt?,28,F_754.jpg,1645459968.18068,1645459968.18301,214.825250616074,6.89277052879333,221.727824678421,223.828607788086,0.3,230.531107654572,0.800297737121582,231.338064184189,1,left,0.781866073608398,231.331405391693,604.470557441711,607.230557441711,1645460185.76593,1645460185.77868,1645460192.6685,1645460192.67887,1645460194.76929,1645460201.47179,1645460201.47373,1645460202.27874,1645460202.27208,1645460575.41124,1
104,4,2,3,13,7,1,c1_WhyFace,2,self-doubt?,32,F_128.jpg,1645459968.18068,1645459968.18301,214.825250616074,6.89277052879333,221.727824678421,223.828607788086,0.3,231.648190965652,1.25046539306641,232.903961172104,3,right,1.23809695243835,232.898656358719,604.470557441711,607.230557441711,1645460185.76593,1645460185.77868,1645460192.6685,1645460192.67887,1645460194.76929,1645460202.58887,1645460202.59035,1645460203.84464,1645460203.83933,1645460575.41124,0
104,4,2,3,13,8,1,c1_WhyFace,1,self-doubt?,30,F_584.jpg,1645459968.18068,1645459968.18301,214.825250616074,6.89277052879333,221.727824678421,223.828607788086,0.3,233.215441217422,1.51723337173462,234.737862100601,3,right,1.51082491874695,234.732674589157,604.470557441711,607.230557441711,1645460185.76593,1645460185.77868,1645460192.6685,1645460192.67887,1645460194.76929,1645460204.15612,1645460204.15763,1645460205.67854,1645460205.67335,1645460575.41124,0
104,4,2,3,14,1,3,c3_HowFace,1,looking at camera?,64,F_128.jpg,1645459968.18068,1645459968.18301,234.816038360596,5.95598077774048,240.784931411743,242.88571428299,2.10078287124634,243.035770168304,0.816971063613892,243.854257097244,1,left,0.802175998687744,243.852741231918,604.470557441711,607.230557441711,1645460205.75672,1645460205.76144,1645460211.72561,1645460211.72883,1645460213.82639,1645460213.97645,1645460213.97886,1645460214.79493,1645460214.79342,1645460575.41124,1
104,4,2,3,14,2,3,c3_HowFace,1,looking at camera?,60,F_618.jpg,1645459968.18068,1645459968.18301,234.816038360596,5.95598077774048,240.784931411743,242.88571428299,0.3,244.169527044296,0.733605623245239,244.904599180222,1,left,0.717747926712036,244.903132667542,604.470557441711,607.230557441711,1645460205.75672,1645460205.76144,1645460211.72561,1645460211.72883,1645460213.82639,1645460215.1102,1645460215.1119,1645460215.84528,1645460215.84381,1645460575.41124,1
104,4,2,3,14,3,3,c3_HowFace,1,looking at camera?,62,F_598.jpg,1645459968.18068,1645459968.18301,234.816038360596,5.95598077774048,240.784931411743,242.88571428299,0.3,245.219918718338,0.683588027954102,245.904498090744,1,left,0.672324895858765,245.903506746292,604.470557441711,607.230557441711,1645460205.75672,1645460205.76144,1645460211.72561,1645460211.72883,1645460213.82639,1645460216.1606,1645460216.16229,1645460216.84518,1645460216.84418,1645460575.41124,1
104,4,2,3,14,4,3,c3_HowFace,2,looking at camera?,63,F_743.jpg,1645459968.18068,1645459968.18301,234.816038360596,5.95598077774048,240.784931411743,242.88571428299,0.3,246.220291366577,0.833644151687622,247.055626144409,3,right,0.816181898117065,247.053935518265,604.470557441711,607.230557441711,1645460205.75672,1645460205.76144,1645460211.72561,1645460211.72883,1645460213.82639,1645460217.16097,1645460217.16203,1645460217.9963,1645460217.99461,1645460575.41124,0
104,4,2,3,14,5,3,c3_HowFace,1,looking at camera?,61,F_774.jpg,1645459968.18068,1645459968.18301,234.816038360596,5.95598077774048,240.784931411743,242.88571428299,0.3,247.370720615387,0.716933727264404,248.088637104034,1,left,0.705828905105591,248.087654342651,604.470557441711,607.230557441711,1645460205.75672,1645460205.76144,1645460211.72561,1645460211.72883,1645460213.82639,1645460218.3114,1645460218.31317,1645460219.02931,1645460219.02833,1645460575.41124,1
104,4,2,3,14,6,3,c3_HowFace,2,looking at camera?,57,F_582.jpg,1645459968.18068,1645459968.18301,234.816038360596,5.95598077774048,240.784931411743,242.88571428299,0.3,248.404439439774,0.950354099273682,249.355758180618,3,right,0.941496849060059,249.354793539047,604.470557441711,607.230557441711,1645460205.75672,1645460205.76144,1645460211.72561,1645460211.72883,1645460213.82639,1645460219.34512,1645460219.34645,1645460220.29644,1645460220.29547,1645460575.41124,0
104,4,2,3,14,7,3,c3_HowFace,2,looking at camera?,58,F_754.jpg,1645459968.18068,1645459968.18301,234.816038360596,5.95598077774048,240.784931411743,242.88571428299,0.3,249.671578397751,0.733607292175293,250.406231155396,3,right,0.720731973648071,250.405185689926,604.470557441711,607.230557441711,1645460205.75672,1645460205.76144,1645460211.72561,1645460211.72883,1645460213.82639,1645460220.61226,1645460220.61379,1645460221.34691,1645460221.34586,1645460575.41124,0
104,4,2,3,14,8,3,c3_HowFace,1,looking at camera?,59,F_129.jpg,1645459968.18068,1645459968.18301,234.816038360596,5.95598077774048,240.784931411743,242.88571428299,0.3,250.721971025467,0.866989612579346,251.604098072052,1,left,0.858458995819092,251.588960638046,604.470557441711,607.230557441711,1645460205.75672,1645460205.76144,1645460211.72561,1645460211.72883,1645460213.82639,1645460221.66265,1645460221.66471,1645460222.54478,1645460222.52964,1645460575.41124,1
104,4,2,3,15,1,4,c4_HowHand,1,both hands?,123,H_167.jpg,1645459968.18068,1645459968.18301,251.688997735977,7.87306046485901,259.575271596909,261.676055421829,2.10078382492065,261.8261120224,1.10040974617004,262.937911024094,1,left,1.08897018432617,262.92652176857,604.470557441711,607.230557441711,1645460222.62968,1645460222.63139,1645460230.51595,1645460230.51782,1645460232.61673,1645460232.76679,1645460232.76872,1645460233.87859,1645460233.8672,1645460575.41124,1
104,4,2,3,15,2,4,c4_HowHand,2,both hands?,121,H_091.jpg,1645459968.18068,1645459968.18301,251.688997735977,7.87306046485901,259.575271596909,261.676055421829,0.3,263.243306388855,1.23379373550415,264.488336076736,3,right,1.22497296333313,264.477100124359,604.470557441711,607.230557441711,1645460222.62968,1645460222.63139,1645460230.51595,1645460230.51782,1645460232.61673,1645460234.18398,1645460234.18549,1645460235.42901,1645460235.41778,1645460575.41124,0
104,4,2,3,15,3,4,c4_HowHand,2,both hands?,125,H_627.jpg,1645459968.18068,1645459968.18301,251.688997735977,7.87306046485901,259.575271596909,261.676055421829,0.3,264.793884267807,1.00037479400635,265.804512014389,3,right,0.989569902420044,265.794259061813,604.470557441711,607.230557441711,1645460222.62968,1645460222.63139,1645460230.51595,1645460230.51782,1645460232.61673,1645460235.73456,1645460235.7361,1645460236.74519,1645460236.73494,1645460575.41124,0
104,4,2,3,15,4,4,c4_HowHand,1,both hands?,128,H_027.jpg,1645459968.18068,1645459968.18301,251.688997735977,7.87306046485901,259.575271596909,261.676055421829,0.3,266.111042251587,0.850317001342773,266.970554103851,1,left,0.835439920425415,266.96135925293,604.470557441711,607.230557441711,1645460222.62968,1645460222.63139,1645460230.51595,1645460230.51782,1645460232.61673,1645460237.05172,1645460237.0534,1645460237.91123,1645460237.90204,1645460575.41124,1
104,4,2,3,15,5,4,c4_HowHand,1,both hands?,122,H_111.jpg,1645459968.18068,1645459968.18301,251.688997735977,7.87306046485901,259.575271596909,261.676055421829,0.3,267.278144826889,0.900336027145386,268.179633131027,1,left,0.877794981002808,268.178480854034,604.470557441711,607.230557441711,1645460222.62968,1645460222.63139,1645460230.51595,1645460230.51782,1645460232.61673,1645460238.21882,1645460238.22048,1645460239.12031,1645460239.11916,1645460575.41124,1
104,4,2,3,15,6,4,c4_HowHand,2,both hands?,126,H_159.jpg,1645459968.18068,1645459968.18301,251.688997735977,7.87306046485901,259.575271596909,261.676055421829,0.3,268.495264997482,0.93368124961853,269.43806599617,3,right,0.920840978622437,269.428946247101,604.470557441711,607.230557441711,1645460222.62968,1645460222.63139,1645460230.51595,1645460230.51782,1645460232.61673,1645460239.43594,1645460239.43788,1645460240.37874,1645460240.36962,1645460575.41124,0
104,4,2,3,15,7,4,c4_HowHand,1,both hands?,124,H_581.jpg,1645459968.18068,1645459968.18301,251.688997735977,7.87306046485901,259.575271596909,261.676055421829,0.3,269.74573182106,0.933681964874268,270.680464019775,1,left,0.913660049438477,270.679413785934,604.470557441711,607.230557441711,1645460222.62968,1645460222.63139,1645460230.51595,1645460230.51782,1645460232.61673,1645460240.68641,1645460240.68795,1645460241.62114,1645460241.62009,1645460575.41124,1
104,4,2,3,15,8,4,c4_HowHand,1,both hands?,127,H_349.jpg,1645459968.18068,1645459968.18301,251.688997735977,7.87306046485901,259.575271596909,261.676055421829,0.3,270.996197690964,0.750279903411865,271.753966083527,1,left,0.739805936813354,271.746477594376,604.470557441711,607.230557441711,1645460222.62968,1645460222.63139,1645460230.51595,1645460230.51782,1645460232.61673,1645460241.93688,1645460241.93847,1645460242.69464,1645460242.68716,1645460575.41124,1
104,4,2,3,16,1,2,c2_WhyHand,1,self-protection?,89,H_443.jpg,1645459968.18068,1645459968.18301,271.813168992996,6.53893208503723,278.365612020493,280.466396799088,2.10078477859497,280.616452445984,1.71730613708496,NaN,0,NA,0,282.333758583069,604.470557441711,607.230557441711,1645460242.75385,1645460242.76201,1645460249.30629,1645460249.31193,1645460251.40707,1645460251.55713,1645460251.5619,NaN,1645460253.27444,1645460575.41124,0
104,4,2,3,16,2,2,c2_WhyHand,2,self-protection?,90,H_006.jpg,1645459968.18068,1645459968.18301,271.813168992996,6.53893208503723,278.365612020493,280.466396799088,0.3,282.650544157028,1.45054054260254,284.103916158676,3,right,1.43247199058533,284.101084699631,604.470557441711,607.230557441711,1645460242.75385,1645460242.76201,1645460249.30629,1645460249.31193,1645460251.40707,1645460253.59122,1645460253.59514,1645460255.04459,1645460255.04176,1645460575.41124,0
104,4,2,3,16,3,2,c2_WhyHand,1,self-protection?,91,H_581.jpg,1645459968.18068,1645459968.18301,271.813168992996,6.53893208503723,278.365612020493,280.466396799088,0.3,284.417870035172,1.36717510223389,285.78768705368,1,left,1.34455513954163,285.785045137405,604.470557441711,607.230557441711,1645460242.75385,1645460242.76201,1645460249.30629,1645460249.31193,1645460251.40707,1645460255.35855,1645460255.36178,1645460256.72836,1645460256.72572,1645460575.41124,1
104,4,2,3,16,4,2,c2_WhyHand,2,self-protection?,92,H_532.jpg,1645459968.18068,1645459968.18301,271.813168992996,6.53893208503723,278.365612020493,280.466396799088,0.3,286.101830234528,1.71730852127075,287.862006177902,3,right,1.73893208503723,287.819138755798,604.470557441711,607.230557441711,1645460242.75385,1645460242.76201,1645460249.30629,1645460249.31193,1645460251.40707,1645460257.04251,1645460257.0452,1645460258.80268,1645460258.75982,1645460575.41124,0
104,4,2,3,16,5,2,c2_WhyHand,1,self-protection?,96,H_027.jpg,1645459968.18068,1645459968.18301,271.813168992996,6.53893208503723,278.365612020493,280.466396799088,0.3,288.135921945572,0.83364462852478,288.970646133423,1,left,0.81313681602478,288.969566574097,604.470557441711,607.230557441711,1645460242.75385,1645460242.76201,1645460249.30629,1645460249.31193,1645460251.40707,1645460259.0766,1645460259.07853,1645460259.91132,1645460259.91024,1645460575.41124,1
104,4,2,3,16,6,2,c2_WhyHand,1,self-protection?,93,H_038.jpg,1645459968.18068,1645459968.18301,271.813168992996,6.53893208503723,278.365612020493,280.466396799088,0.3,289.286351671219,0.750279664993286,290.038109054565,1,left,0.728382110595703,290.036631336212,604.470557441711,607.230557441711,1645460242.75385,1645460242.76201,1645460249.30629,1645460249.31193,1645460251.40707,1645460260.22703,1645460260.22901,1645460260.97879,1645460260.97731,1645460575.41124,1
104,4,2,3,16,7,2,c2_WhyHand,2,self-protection?,95,H_332.jpg,1645459968.18068,1645459968.18301,271.813168992996,6.53893208503723,278.365612020493,280.466396799088,0.3,290.353416194916,0.833644866943359,291.188670148849,3,right,0.823503971099854,291.187061061859,604.470557441711,607.230557441711,1645460242.75385,1645460242.76201,1645460249.30629,1645460249.31193,1645460251.40707,1645460261.29409,1645460261.29566,1645460262.12935,1645460262.12774,1645460575.41124,0
104,4,2,3,16,8,2,c2_WhyHand,1,self-protection?,94,H_189.jpg,1645459968.18068,1645459968.18301,271.813168992996,6.53893208503723,278.365612020493,280.466396799088,0.3,291.503845443726,1.20044732093811,292.705802192688,3,right,1.19008898735046,292.704292764664,604.470557441711,607.230557441711,1645460242.75385,1645460242.76201,1645460249.30629,1645460249.31193,1645460251.40707,1645460262.44452,1645460262.44621,1645460263.64648,1645460263.64497,1645460575.41124,0
104,4,2,3,17,1,3,c3_HowFace,1,smiling?,118,F_759.jpg,1645459968.18068,1645459968.18301,292.787657728195,7.04423642158508,299.840287914276,301.941071977615,2.10078406333923,302.091127624512,0.733605861663818,302.82655500412,1,left,0.713920116424561,302.824733486176,604.470557441711,607.230557441711,1645460263.72834,1645460263.73,1645460270.78097,1645460270.78264,1645460272.88175,1645460273.03181,1645460273.03401,1645460273.76723,1645460273.76541,1645460575.41124,1
104,4,2,3,17,2,3,c3_HowFace,2,smiling?,114,F_412.jpg,1645459968.18068,1645459968.18301,292.787657728195,7.04423642158508,299.840287914276,301.941071977615,0.3,303.141518583298,0.816970825195312,303.959641208649,3,right,0.796690225601196,303.958489408493,604.470557441711,607.230557441711,1645460263.72834,1645460263.73,1645460270.78097,1645460270.78264,1645460272.88175,1645460274.0822,1645460274.08404,1645460274.90032,1645460274.89917,1645460575.41124,0
104,4,2,3,17,3,3,c3_HowFace,1,smiling?,117,F_593.jpg,1645459968.18068,1645459968.18301,292.787657728195,7.04423642158508,299.840287914276,301.941071977615,0.3,304.275274505615,0.616897583007812,304.903919210434,1,left,0.60763692855835,304.892172088623,604.470557441711,607.230557441711,1645460263.72834,1645460263.73,1645460270.78097,1645460270.78264,1645460272.88175,1645460275.21595,1645460275.21767,1645460275.8446,1645460275.83285,1645460575.41124,1
104,4,2,3,17,4,3,c3_HowFace,2,smiling?,113,F_712.jpg,1645459968.18068,1645459968.18301,292.787657728195,7.04423642158508,299.840287914276,301.941071977615,0.3,305.20895647049,0.866990804672241,306.077846040726,3,right,0.84404993057251,306.075947275162,604.470557441711,607.230557441711,1645460263.72834,1645460263.73,1645460270.78097,1645460270.78264,1645460272.88175,1645460276.14963,1645460276.15092,1645460277.01852,1645460277.01663,1645460575.41124,0
104,4,2,3,17,5,3,c3_HowFace,1,smiling?,115,F_695.jpg,1645459968.18068,1645459968.18301,292.787657728195,7.04423642158508,299.840287914276,301.941071977615,0.3,306.39273141861,0.716933965682983,307.120605220795,1,left,0.709569931030273,307.109665384293,604.470557441711,607.230557441711,1645460263.72834,1645460263.73,1645460270.78097,1645460270.78264,1645460272.88175,1645460277.33341,1645460277.33491,1645460278.06128,1645460278.05034,1645460575.41124,1
104,4,2,3,17,6,3,c3_HowFace,1,smiling?,119,F_139.jpg,1645459968.18068,1645459968.18301,292.787657728195,7.04423642158508,299.840287914276,301.941071977615,0.3,307.426449289322,0.783626317977905,308.212059011459,1,left,0.763396978378296,308.2100756073,604.470557441711,607.230557441711,1645460263.72834,1645460263.73,1645460270.78097,1645460270.78264,1645460272.88175,1645460278.36713,1645460278.36864,1645460279.15274,1645460279.15075,1645460575.41124,1
104,4,2,3,17,7,3,c3_HowFace,1,smiling?,116,F_083.jpg,1645459968.18068,1645459968.18301,292.787657728195,7.04423642158508,299.840287914276,301.941071977615,0.3,308.526860466003,0.65024209022522,309.178908100128,1,left,0.631312131881714,309.177102556229,604.470557441711,607.230557441711,1645460263.72834,1645460263.73,1645460270.78097,1645460270.78264,1645460272.88175,1645460279.46754,1645460279.46932,1645460280.11959,1645460280.11778,1645460575.41124,1
104,4,2,3,17,8,3,c3_HowFace,2,smiling?,120,F_758.jpg,1645459968.18068,1645459968.18301,292.787657728195,7.04423642158508,299.840287914276,301.941071977615,0.3,309.493886938095,0.733607530593872,310.237395038605,3,right,0.719214916229248,310.227494468689,604.470557441711,607.230557441711,1645460263.72834,1645460263.73,1645460270.78097,1645460270.78264,1645460272.88175,1645460280.43456,1645460280.43654,1645460281.17807,1645460281.16817,1645460575.41124,0
104,4,2,3,18,1,1,c1_WhyFace,1,admiring?,1,F_593.jpg,1645459968.18068,1645459968.18301,310.310858240128,7.31116676330566,317.630254735947,319.731038799286,2.10078406333923,319.881094446182,0.933681964874268,320.816538085938,1,left,0.908150911331177,320.814776411057,604.470557441711,607.230557441711,1645460281.25154,1645460281.26176,1645460288.57093,1645460288.57872,1645460290.67172,1645460290.82177,1645460290.82893,1645460291.75722,1645460291.75545,1645460575.41124,1
104,4,2,3,18,2,1,c1_WhyFace,2,admiring?,2,F_129.jpg,1645459968.18068,1645459968.18301,310.310858240128,7.31116676330566,317.630254735947,319.731038799286,0.3,321.131560554504,0.666915416717529,321.799500217438,3,right,0.644234895706177,321.798475971222,604.470557441711,607.230557441711,1645460281.25154,1645460281.26176,1645460288.57093,1645460288.57872,1645460290.67172,1645460292.07224,1645460292.07409,1645460292.74018,1645460292.73915,1645460575.41124,0
104,4,2,3,18,3,1,c1_WhyFace,1,admiring?,5,F_759.jpg,1645459968.18068,1645459968.18301,310.310858240128,7.31116676330566,317.630254735947,319.731038799286,0.3,322.115261545181,0.600224018096924,322.720520009995,1,left,0.59122896194458,322.715485563278,604.470557441711,607.230557441711,1645460281.25154,1645460281.26176,1645460288.57093,1645460288.57872,1645460290.67172,1645460293.05594,1645460293.05786,1645460293.6612,1645460293.65616,1645460575.41124,1
104,4,2,3,18,4,1,c1_WhyFace,2,admiring?,6,F_692.jpg,1645459968.18068,1645459968.18301,310.310858240128,7.31116676330566,317.630254735947,319.731038799286,0.3,323.032269945145,0.716934204101562,323.754255046844,3,right,0.701743125915527,323.749204149246,604.470557441711,607.230557441711,1645460281.25154,1645460281.26176,1645460288.57093,1645460288.57872,1645460290.67172,1645460293.97295,1645460293.97472,1645460294.69493,1645460294.68988,1645460575.41124,0
104,4,2,3,18,5,1,c1_WhyFace,1,admiring?,4,F_779.jpg,1645459968.18068,1645459968.18301,310.310858240128,7.31116676330566,317.630254735947,319.731038799286,0.3,324.065988531113,0.666914701461792,324.733963003159,1,left,0.642601013183594,324.732903232574,604.470557441711,607.230557441711,1645460281.25154,1645460281.26176,1645460288.57093,1645460288.57872,1645460290.67172,1645460295.00667,1645460295.01176,1645460295.67464,1645460295.67358,1645460575.41124,1
104,4,2,3,18,6,1,c1_WhyFace,1,admiring?,8,F_590.jpg,1645459968.18068,1645459968.18301,310.310858240128,7.31116676330566,317.630254735947,319.731038799286,0.3,325.049688568115,0.666916131973267,325.720528116226,1,left,0.657488107681274,325.716604700089,604.470557441711,607.230557441711,1645460281.25154,1645460281.26176,1645460288.57093,1645460288.57872,1645460290.67172,1645460295.99037,1645460295.99227,1645460296.66121,1645460296.65728,1645460575.41124,1
104,4,2,3,18,7,1,c1_WhyFace,1,admiring?,7,F_648.jpg,1645459968.18068,1645459968.18301,310.310858240128,7.31116676330566,317.630254735947,319.731038799286,0.3,326.033389558792,0.716937303543091,326.753891220093,1,left,0.697143793106079,326.750326862335,604.470557441711,607.230557441711,1645460281.25154,1645460281.26176,1645460288.57093,1645460288.57872,1645460290.67172,1645460296.97407,1645460296.97949,1645460297.69457,1645460297.691,1645460575.41124,1
104,4,2,3,18,8,1,c1_WhyFace,2,admiring?,3,F_110.jpg,1645459968.18068,1645459968.18301,310.310858240128,7.31116676330566,317.630254735947,319.731038799286,0.3,327.067107429504,0.716933727264404,327.787595024109,3,right,0.700415134429932,327.784041156769,604.470557441711,607.230557441711,1645460281.25154,1645460281.26176,1645460288.57093,1645460288.57872,1645460290.67172,1645460298.00779,1645460298.01189,1645460298.72827,1645460298.72472,1645460575.41124,0
104,4,2,3,19,1,2,c2_WhyHand,1,competing?,9,H_261.jpg,1645459968.18068,1645459968.18301,327.867405881882,7.64470219612122,335.520260562897,337.621043434143,2.10078287124634,337.771099557877,0.700261116027832,338.487636079788,1,left,0.692019939422607,338.471360673904,604.470557441711,607.230557441711,1645460298.80808,1645460298.80922,1645460306.46094,1645460306.46251,1645460308.56172,1645460308.71178,1645460308.71356,1645460309.42831,1645460309.41204,1645460575.41124,1
104,4,2,3,19,2,2,c2_WhyHand,1,competing?,15,H_170.jpg,1645459968.18068,1645459968.18301,327.867405881882,7.64470219612122,335.520260562897,337.621043434143,0.3,338.788145771027,0.733606576919556,339.522761096954,1,left,0.720898151397705,339.521752347946,604.470557441711,607.230557441711,1645460298.80808,1645460298.80922,1645460306.46094,1645460306.46251,1645460308.56172,1645460309.72882,1645460309.73037,1645460310.46344,1645460310.46243,1645460575.41124,1
104,4,2,3,19,3,2,c2_WhyHand,2,competing?,12,H_483.jpg,1645459968.18068,1645459968.18301,327.867405881882,7.64470219612122,335.520260562897,337.621043434143,0.3,339.838537921906,0.900334358215332,340.74027513504,3,right,0.885229110717773,340.738872280121,604.470557441711,607.230557441711,1645460298.80808,1645460298.80922,1645460306.46094,1645460306.46251,1645460308.56172,1645460310.77922,1645460310.78075,1645460311.68095,1645460311.67955,1645460575.41124,0
104,4,2,3,19,4,2,c2_WhyHand,1,competing?,14,H_132.jpg,1645459968.18068,1645459968.18301,327.867405881882,7.64470219612122,335.520260562897,337.621043434143,0.3,341.055657615662,0.633569955825806,341.690778007507,1,left,0.621026992797852,341.689227571487,604.470557441711,607.230557441711,1645460298.80808,1645460298.80922,1645460306.46094,1645460306.46251,1645460308.56172,1645460311.99634,1645460311.99836,1645460312.63146,1645460312.62991,1645460575.41124,1
104,4,2,3,19,5,2,c2_WhyHand,1,competing?,16,H_136.jpg,1645459968.18068,1645459968.18301,327.867405881882,7.64470219612122,335.520260562897,337.621043434143,0.3,342.006012430191,0.800297975540161,342.807400217056,1,left,0.787075042724609,342.806310405731,604.470557441711,607.230557441711,1645460298.80808,1645460298.80922,1645460306.46094,1645460306.46251,1645460308.56172,1645460312.94669,1645460312.94824,1645460313.74808,1645460313.74699,1645460575.41124,1
104,4,2,3,19,6,2,c2_WhyHand,1,competing?,13,H_003.jpg,1645459968.18068,1645459968.18301,327.867405881882,7.64470219612122,335.520260562897,337.621043434143,0.3,343.123095026016,0.700260162353516,343.837252130508,1,left,0.690276145935059,343.82335518837,604.470557441711,607.230557441711,1645460298.80808,1645460298.80922,1645460306.46094,1645460306.46251,1645460308.56172,1645460314.06377,1645460314.06579,1645460314.77793,1645460314.76403,1645460575.41124,1
104,4,2,3,19,7,2,c2_WhyHand,2,competing?,10,H_126.jpg,1645459968.18068,1645459968.18301,327.867405881882,7.64470219612122,335.520260562897,337.621043434143,0.3,344.140141477585,0.683587551116943,344.825437059402,1,left,0.662158966064453,344.823729028702,604.470557441711,607.230557441711,1645460298.80808,1645460298.80922,1645460306.46094,1645460306.46251,1645460308.56172,1645460315.08082,1645460315.08245,1645460315.76611,1645460315.76441,1645460575.41124,0
104,4,2,3,19,8,2,c2_WhyHand,2,competing?,11,H_502.jpg,1645459968.18068,1645459968.18301,327.867405881882,7.64470219612122,335.520260562897,337.621043434143,0.3,345.140514364243,0.917007923126221,346.071315994263,3,right,0.907483816146851,346.057522287369,604.470557441711,607.230557441711,1645460298.80808,1645460298.80922,1645460306.46094,1645460306.46251,1645460308.56172,1645460316.08119,1645460316.0829,1645460317.01199,1645460316.9982,1645460575.41124,0
104,4,2,3,20,1,4,c4_HowHand,1,reaching?,111,H_003.jpg,1645459968.18068,1645459968.18301,346.140887489319,10.8511595726013,357.011607637405,359.095718612671,2.0841109752655,359.245774259567,0.733607530593872,359.987752189636,1,left,0.718406915664673,359.979381790161,604.470557441711,607.230557441711,1645460317.08157,1645460317.08301,1645460327.95229,1645460327.95416,1645460330.0364,1645460330.18645,1645460330.19533,1645460330.92843,1645460330.92006,1645460575.41124,1
104,4,2,3,20,2,4,c4_HowHand,1,reaching?,110,H_364.jpg,1645459968.18068,1645459968.18301,346.140887489319,10.8511595726013,357.011607637405,359.095718612671,0.3,360.296166172028,0.85031795501709,361.154615154266,1,left,0.843087911605835,361.146484127045,604.470557441711,607.230557441711,1645460317.08157,1645460317.08301,1645460327.95229,1645460327.95416,1645460330.0364,1645460331.23684,1645460331.23843,1645460332.09529,1645460332.08716,1645460575.41124,1
104,4,2,3,20,3,4,c4_HowHand,2,reaching?,108,H_532.jpg,1645459968.18068,1645459968.18301,346.140887489319,10.8511595726013,357.011607637405,359.095718612671,0.3,361.463268985748,0.983699798583984,362.454604139328,3,right,0.973257064819336,362.446968784332,604.470557441711,607.230557441711,1645460317.08157,1645460317.08301,1645460327.95229,1645460327.95416,1645460330.0364,1645460332.40395,1645460332.40566,1645460333.39528,1645460333.38765,1645460575.41124,0
104,4,2,3,20,4,4,c4_HowHand,1,reaching?,106,H_006.jpg,1645459968.18068,1645459968.18301,346.140887489319,10.8511595726013,357.011607637405,359.095718612671,0.3,362.763752689362,0.883664131164551,363.654341211319,1,left,0.866569995880127,363.647416820526,604.470557441711,607.230557441711,1645460317.08157,1645460317.08301,1645460327.95229,1645460327.95416,1645460330.0364,1645460333.70443,1645460333.70606,1645460334.59502,1645460334.58809,1645460575.41124,1
104,4,2,3,20,5,4,c4_HowHand,2,reaching?,105,H_438.jpg,1645459968.18068,1645459968.18301,346.140887489319,10.8511595726013,357.011607637405,359.095718612671,0.3,363.964200248718,0.833645343780518,364.80441116333,3,right,0.820927143096924,364.797845592499,604.470557441711,607.230557441711,1645460317.08157,1645460317.08301,1645460327.95229,1645460327.95416,1645460330.0364,1645460334.90488,1645460334.90643,1645460335.74509,1645460335.73852,1645460575.41124,0
104,4,2,3,20,6,4,c4_HowHand,1,reaching?,107,H_007.jpg,1645459968.18068,1645459968.18301,346.140887489319,10.8511595726013,357.011607637405,359.095718612671,0.3,365.114630451202,0.80029821395874,365.921206226349,1,left,0.783812046051025,365.914928665161,604.470557441711,607.230557441711,1645460317.08157,1645460317.08301,1645460327.95229,1645460327.95416,1645460330.0364,1645460336.05531,1645460336.05726,1645460336.86188,1645460336.85561,1645460575.41124,1
104,4,2,3,20,7,4,c4_HowHand,1,reaching?,109,H_474.jpg,1645459968.18068,1645459968.18301,346.140887489319,10.8511595726013,357.011607637405,359.095718612671,0.3,366.231713047028,1.36717581748962,367.604278078079,1,left,1.35894513130188,367.598888864517,604.470557441711,607.230557441711,1645460317.08157,1645460317.08301,1645460327.95229,1645460327.95416,1645460330.0364,1645460337.17239,1645460337.17409,1645460338.54496,1645460338.53957,1645460575.41124,1
104,4,2,3,20,8,4,c4_HowHand,2,reaching?,112,H_132.jpg,1645459968.18068,1645459968.18301,346.140887489319,10.8511595726013,357.011607637405,359.095718612671,0.3,367.915674200058,0.650243282318115,368.567271223068,1,left,0.628571033477783,368.565917482376,604.470557441711,607.230557441711,1645460317.08157,1645460317.08301,1645460327.95229,1645460327.95416,1645460330.0364,1645460338.85635,1645460338.85781,1645460339.50795,1645460339.5066,1645460575.41124,0
104,4,2,3,21,1,3,c3_HowFace,1,open mouth?,73,F_403.jpg,1645459968.18068,1645459968.18301,368.632608165741,6.19942998886108,374.851594676971,376.935705890656,2.08411121368408,377.085760822296,0.700261116027832,377.787907114029,1,left,0.677532911300659,377.786021938324,604.470557441711,607.230557441711,1645460339.57329,1645460339.57795,1645460345.79227,1645460345.7944,1645460347.87638,1645460348.02644,1645460348.02858,1645460348.72859,1645460348.7267,1645460575.41124,1
104,4,2,3,21,2,3,c3_HowFace,2,open mouth?,79,F_648.jpg,1645459968.18068,1645459968.18301,368.632608165741,6.19942998886108,374.851594676971,376.935705890656,0.3,378.102806797028,0.766952753067017,378.871507158279,3,right,0.754444122314453,378.869759550095,604.470557441711,607.230557441711,1645460339.57329,1645460339.57795,1645460345.79227,1645460345.7944,1645460347.87638,1645460349.04348,1645460349.04498,1645460349.81219,1645460349.81044,1645460575.41124,0
104,4,2,3,21,3,3,c3_HowFace,1,open mouth?,74,F_776.jpg,1645459968.18068,1645459968.18301,368.632608165741,6.19942998886108,374.851594676971,376.935705890656,0.3,379.18654417038,0.666915893554688,379.85529302597,1,left,0.647732019424438,379.853460063934,604.470557441711,607.230557441711,1645460339.57329,1645460339.57795,1645460345.79227,1645460345.7944,1645460347.87638,1645460350.12722,1645460350.12908,1645460350.79597,1645460350.79414,1645460575.41124,1
104,4,2,3,21,4,3,c3_HowFace,2,open mouth?,77,F_584.jpg,1645459968.18068,1645459968.18301,368.632608165741,6.19942998886108,374.851594676971,376.935705890656,0.3,380.170244207382,0.0166735649108887,380.188022127151,1,left,0.00032496452331543,380.186917772293,604.470557441711,607.230557441711,1645460339.57329,1645460339.57795,1645460345.79227,1645460345.7944,1645460347.87638,1645460351.11092,1645460351.11249,1645460351.1287,1645460351.1276,1645460575.41124,0
104,4,2,3,21,5,3,c3_HowFace,1,open mouth?,80,F_844.jpg,1645459968.18068,1645459968.18301,368.632608165741,6.19942998886108,374.851594676971,376.935705890656,0.3,380.50370048523,0.950356006622314,381.455866088867,1,left,0.929368019104004,381.454056491852,604.470557441711,607.230557441711,1645460339.57329,1645460339.57795,1645460345.79227,1645460345.7944,1645460347.87638,1645460351.44438,1645460351.44622,1645460352.39654,1645460352.39473,1645460575.41124,1
104,4,2,3,21,6,3,c3_HowFace,1,open mouth?,78,F_692.jpg,1645459968.18068,1645459968.18301,368.632608165741,6.19942998886108,374.851594676971,376.935705890656,0.3,381.7708406353,0.766953229904175,382.554248085022,1,left,0.75976300239563,382.537793865204,604.470557441711,607.230557441711,1645460339.57329,1645460339.57795,1645460345.79227,1645460345.7944,1645460347.87638,1645460352.71152,1645460352.71299,1645460353.49493,1645460353.47847,1645460575.41124,1
104,4,2,3,21,7,3,c3_HowFace,1,open mouth?,75,F_086.jpg,1645459968.18068,1645459968.18301,368.632608165741,6.19942998886108,374.851594676971,376.935705890656,0.3,382.854578723907,0.68358850479126,383.539213171005,1,left,0.663120985031128,383.538167228699,604.470557441711,607.230557441711,1645460339.57329,1645460339.57795,1645460345.79227,1645460345.7944,1645460347.87638,1645460353.79526,1645460353.79679,1645460354.47989,1645460354.47885,1645460575.41124,1
104,4,2,3,21,8,3,c3_HowFace,2,open mouth?,76,F_544.jpg,1645459968.18068,1645459968.18301,368.632608165741,6.19942998886108,374.851594676971,376.935705890656,0.3,383.854950895309,0.86699390411377,384.723863115311,3,right,0.844783067703247,384.721944799423,604.470557441711,607.230557441711,1645460339.57329,1645460339.57795,1645460345.79227,1645460345.7944,1645460347.87638,1645460354.79563,1645460354.79714,1645460355.66454,1645460355.66262,1645460575.41124,0
104,4,2,3,22,1,1,c1_WhyFace,1,argument?,42,F_403.jpg,1645459968.18068,1645459968.18301,384.805306663513,8.70273447036743,393.525224676132,395.62600897789,2.10078430175781,395.776064863205,0.683587551116943,396.47056602478,1,left,0.676926136016846,396.459652414322,604.470557441711,607.230557441711,1645460355.74598,1645460355.74754,1645460364.4659,1645460364.46735,1645460366.56669,1645460366.71674,1645460366.71852,1645460367.41124,1645460367.40033,1645460575.41124,1
104,4,2,3,22,2,1,c1_WhyFace,2,argument?,46,F_844.jpg,1645459968.18068,1645459968.18301,384.805306663513,8.70273447036743,393.525224676132,395.62600897789,0.3,396.776437273026,1.08373713493347,397.87117313385,3,right,1.07382488250732,397.860174407959,604.470557441711,607.230557441711,1645460355.74598,1645460355.74754,1645460364.4659,1645460364.46735,1645460366.56669,1645460367.71712,1645460367.71869,1645460368.81185,1645460368.80085,1645460575.41124,0
104,4,2,3,22,3,1,c1_WhyFace,1,argument?,41,F_712.jpg,1645459968.18068,1645459968.18301,384.805306663513,8.70273447036743,393.525224676132,395.62600897789,0.3,398.176959505081,1.23379278182983,399.411879053116,1,left,1.21691417694092,399.410752286911,604.470557441711,607.230557441711,1645460355.74598,1645460355.74754,1645460364.4659,1645460364.46735,1645460366.56669,1645460369.11764,1645460369.11925,1645460370.35256,1645460370.35143,1645460575.41124,1
104,4,2,3,22,4,1,c1_WhyFace,1,argument?,48,F_758.jpg,1645459968.18068,1645459968.18301,384.805306663513,8.70273447036743,393.525224676132,395.62600897789,0.3,399.727539052963,0.86698842048645,400.603926172256,1,left,0.853171825408936,400.59452747345,604.470557441711,607.230557441711,1645460355.74598,1645460355.74754,1645460364.4659,1645460364.46735,1645460366.56669,1645460370.66822,1645460370.67007,1645460371.5446,1645460371.53521,1645460575.41124,1
104,4,2,3,22,5,1,c1_WhyFace,2,argument?,45,F_433.jpg,1645459968.18068,1645459968.18301,384.805306663513,8.70273447036743,393.525224676132,395.62600897789,0.3,400.911312332153,0.0166733264923096,400.9382421875,1,left,0.000361919403076172,400.927985658646,604.470557441711,607.230557441711,1645460355.74598,1645460355.74754,1645460364.4659,1645460364.46735,1645460366.56669,1645460371.85199,1645460371.85397,1645460371.87892,1645460371.86866,1645460575.41124,0
104,4,2,3,22,6,1,c1_WhyFace,1,argument?,43,F_716.jpg,1645459968.18068,1645459968.18301,384.805306663513,8.70273447036743,393.525224676132,395.62600897789,0.3,401.244769563675,1.38385033607483,402.638066043854,1,left,1.37497806549072,402.62861989975,604.470557441711,607.230557441711,1645460355.74598,1645460355.74754,1645460364.4659,1645460364.46735,1645460366.56669,1645460372.18545,1645460372.18731,1645460373.57874,1645460373.5693,1645460575.41124,1
104,4,2,3,22,7,1,c1_WhyFace,2,argument?,44,F_139.jpg,1645459968.18068,1645459968.18301,384.805306663513,8.70273447036743,393.525224676132,395.62600897789,0.3,402.945404758453,0.0166730880737305,402.971235027313,1,left,0.000247001647949219,402.962077846527,604.470557441711,607.230557441711,1645460355.74598,1645460355.74754,1645460364.4659,1645460364.46735,1645460366.56669,1645460373.88608,1645460373.88786,1645460373.91191,1645460373.90276,1645460575.41124,0
104,4,2,3,22,8,1,c1_WhyFace,1,argument?,47,F_743.jpg,1645459968.18068,1645459968.18301,384.805306663513,8.70273447036743,393.525224676132,395.62600897789,0.3,403.278861274719,1.45054173469543,404.737914075851,1,left,1.44304394721985,404.729403009415,604.470557441711,607.230557441711,1645460355.74598,1645460355.74754,1645460364.4659,1645460364.46735,1645460366.56669,1645460374.21954,1645460374.22121,1645460375.67859,1645460375.67008,1645460575.41124,1
104,4,2,3,23,1,2,c2_WhyHand,1,helping?,39,H_024.jpg,1645459968.18068,1645459968.18301,404.812767019272,6.91536808013916,411.732014169693,413.832798233032,2.10078406333923,413.982853164673,1.1837751865387,415.170577993393,1,left,1.15974807739258,415.166628351212,604.470557441711,607.230557441711,1645460375.75344,1645460375.76181,1645460382.67269,1645460382.67888,1645460384.77348,1645460384.92353,1645460384.9286,1645460386.11126,1645460386.10731,1645460575.41124,1
104,4,2,3,23,2,2,c2_WhyHand,1,helping?,36,H_349.jpg,1645459968.18068,1645459968.18301,404.812767019272,6.91536808013916,411.732014169693,413.832798233032,0.3,415.483413448334,0.0166730880737305,415.504865159988,1,left,0.0007171630859375,415.500086536407,604.470557441711,607.230557441711,1645460375.75344,1645460375.76181,1645460382.67269,1645460382.67888,1645460384.77348,1645460386.42409,1645460386.42835,1645460386.44554,1645460386.44076,1645460575.41124,1
104,4,2,3,23,3,2,c2_WhyHand,1,helping?,38,H_077.jpg,1645459968.18068,1645459968.18301,404.812767019272,6.91536808013916,411.732014169693,413.832798233032,0.3,415.81687163353,1.6339418888092,417.45479010582,1,left,1.61750197410583,417.450813522339,604.470557441711,607.230557441711,1645460375.75344,1645460375.76181,1645460382.67269,1645460382.67888,1645460384.77348,1645460386.75755,1645460386.76244,1645460388.39547,1645460388.39149,1645460575.41124,1
104,4,2,3,23,4,2,c2_WhyHand,1,helping?,37,H_474.jpg,1645459968.18068,1645459968.18301,404.812767019272,6.91536808013916,411.732014169693,413.832798233032,0.3,417.767598381042,0.950353860855103,418.720527162552,1,left,0.940033912658691,418.717952241898,604.470557441711,607.230557441711,1645460375.75344,1645460375.76181,1645460382.67269,1645460382.67888,1645460384.77348,1645460388.70828,1645460388.71189,1645460389.66121,1645460389.65863,1645460575.41124,1
104,4,2,3,23,5,2,c2_WhyHand,2,helping?,33,H_091.jpg,1645459968.18068,1645459968.18301,404.812767019272,6.91536808013916,411.732014169693,413.832798233032,0.3,419.034738054276,0.850316762924194,419.887687196732,3,right,0.830748081207275,419.8850548172,604.470557441711,607.230557441711,1645460375.75344,1645460375.76181,1645460382.67269,1645460382.67888,1645460384.77348,1645460389.97542,1645460389.9787,1645460390.82837,1645460390.82573,1645460575.41124,0
104,4,2,3,23,6,2,c2_WhyHand,2,helping?,35,H_159.jpg,1645459968.18068,1645459968.18301,404.812767019272,6.91536808013916,411.732014169693,413.832798233032,0.3,420.201839437485,1.38385033607483,421.587204208374,3,right,1.37059307098389,421.58568977356,604.470557441711,607.230557441711,1645460375.75344,1645460375.76181,1645460382.67269,1645460382.67888,1645460384.77348,1645460391.14252,1645460391.1451,1645460392.52788,1645460392.52637,1645460575.41124,0
104,4,2,3,23,7,2,c2_WhyHand,1,helping?,34,H_111.jpg,1645459968.18068,1645459968.18301,404.812767019272,6.91536808013916,411.732014169693,413.832798233032,0.3,421.902473201752,0.866991519927979,422.771169176102,1,left,0.84843111038208,422.76946472168,604.470557441711,607.230557441711,1645460375.75344,1645460375.76181,1645460382.67269,1645460382.67888,1645460384.77348,1645460392.84315,1645460392.84518,1645460393.71185,1645460393.71014,1645460575.41124,1
104,4,2,3,23,8,2,c2_WhyHand,2,helping?,40,H_012.jpg,1645459968.18068,1645459968.18301,404.812767019272,6.91536808013916,411.732014169693,413.832798233032,0.3,423.08624838829,1.03371906280518,424.121077051163,3,right,1.01138019561768,424.119967451096,604.470557441711,607.230557441711,1645460375.75344,1645460375.76181,1645460382.67269,1645460382.67888,1645460384.77348,1645460394.02693,1645460394.02846,1645460395.06175,1645460395.06065,1645460575.41124,0
104,4,2,3,24,1,4,c4_HowHand,1,both hands?,122,H_111.jpg,1645459968.18068,1645459968.18301,424.203331460953,5.59470272064209,429.805421581268,431.906204929352,2.1007833480835,432.056261053085,0.750279664993286,432.808271160126,1,left,0.736636161804199,432.806540718079,604.470557441711,607.230557441711,1645460395.14401,1645460395.14568,1645460400.7461,1645460400.74745,1645460402.84688,1645460402.99694,1645460402.9982,1645460403.74895,1645460403.74722,1645460575.41124,1
104,4,2,3,24,2,4,c4_HowHand,1,both hands?,128,H_027.jpg,1645459968.18068,1645459968.18301,424.203331460953,5.59470272064209,429.805421581268,431.906204929352,0.3,433.123324861526,0.766952514648438,433.891971101761,1,left,0.7433021068573,433.890277376175,604.470557441711,607.230557441711,1645460395.14401,1645460395.14568,1645460400.7461,1645460400.74745,1645460402.84688,1645460404.064,1645460404.06573,1645460404.83265,1645460404.83096,1645460575.41124,1
104,4,2,3,24,3,4,c4_HowHand,2,both hands?,121,H_091.jpg,1645459968.18068,1645459968.18301,424.203331460953,5.59470272064209,429.805421581268,431.906204929352,0.3,434.207062711716,0.666914701461792,434.875065078735,3,right,0.651849031448364,434.873977413177,604.470557441711,607.230557441711,1645460395.14401,1645460395.14568,1645460400.7461,1645460400.74745,1645460402.84688,1645460405.14774,1645460405.14978,1645460405.81574,1645460405.81466,1645460575.41124,0
104,4,2,3,24,4,4,c4_HowHand,1,both hands?,123,H_167.jpg,1645459968.18068,1645459968.18301,424.203331460953,5.59470272064209,429.805421581268,431.906204929352,0.3,435.190762748718,0.666914463043213,435.871223201752,1,left,0.659398078918457,435.857677211761,604.470557441711,607.230557441711,1645460395.14401,1645460395.14568,1645460400.7461,1645460400.74745,1645460402.84688,1645460406.13144,1645460406.13331,1645460406.8119,1645460406.79836,1645460575.41124,1
104,4,2,3,24,5,4,c4_HowHand,1,both hands?,124,H_581.jpg,1645459968.18068,1645459968.18301,424.203331460953,5.59470272064209,429.805421581268,431.906204929352,0.3,436.174463500977,0.800297975540161,436.975799074173,1,left,0.78563404083252,436.974761476517,604.470557441711,607.230557441711,1645460395.14401,1645460395.14568,1645460400.7461,1645460400.74745,1645460402.84688,1645460407.11514,1645460407.11753,1645460407.91648,1645460407.91544,1645460575.41124,1
104,4,2,3,24,6,4,c4_HowHand,2,both hands?,126,H_159.jpg,1645459968.18068,1645459968.18301,424.203331460953,5.59470272064209,429.805421581268,431.906204929352,0.3,437.291547050476,0.883661508560181,438.187929143906,3,right,0.872786998748779,438.175208559036,604.470557441711,607.230557441711,1645460395.14401,1645460395.14568,1645460400.7461,1645460400.74745,1645460402.84688,1645460408.23222,1645460408.23388,1645460409.12861,1645460409.11589,1645460575.41124,0
104,4,2,3,24,7,4,c4_HowHand,1,both hands?,127,H_349.jpg,1645459968.18068,1645459968.18301,424.203331460953,5.59470272064209,429.805421581268,431.906204929352,0.3,438.49199341774,0.600224256515503,439.093270053864,1,left,0.585046052932739,439.092217674255,604.470557441711,607.230557441711,1645460395.14401,1645460395.14568,1645460400.7461,1645460400.74745,1645460402.84688,1645460409.43267,1645460409.43454,1645460410.03395,1645460410.0329,1645460575.41124,1
104,4,2,3,24,8,4,c4_HowHand,2,both hands?,125,H_627.jpg,1645459968.18068,1645459968.18301,424.203331460953,5.59470272064209,429.805421581268,431.906204929352,0.3,439.40900229454,0.716936588287354,440.127744188309,3,right,0.694705963134766,440.125938882828,604.470557441711,607.230557441711,1645460395.14401,1645460395.14568,1645460400.7461,1645460400.74745,1645460402.84688,1645460410.34968,1645460410.35152,1645460411.06842,1645460411.06662,1645460575.41124,0
104,4,2,3,25,1,2,c2_WhyHand,1,healthy?,18,H_438.jpg,1645459968.18068,1645459968.18301,440.209300746918,7.10575127601624,447.328622570038,449.42940615654,2.10078358650208,449.579462995529,0.833643674850464,450.421123018265,1,left,0.819653987884521,450.41310667038,604.470557441711,607.230557441711,1645460411.14998,1645460411.16196,1645460418.2693,1645460418.27119,1645460420.37008,1645460420.52014,1645460420.52203,1645460421.3618,1645460421.35378,1645460575.41124,1
104,4,2,3,25,2,2,c2_WhyHand,1,healthy?,23,H_364.jpg,1645459968.18068,1645459968.18301,440.209300746918,7.10575127601624,447.328622570038,449.42940615654,0.3,450.729890098572,1.43386936187744,452.17065905571,1,left,1.41910815238953,452.163759460449,604.470557441711,607.230557441711,1645460411.14998,1645460411.16196,1645460418.2693,1645460418.27119,1645460420.37008,1645460421.67057,1645460421.67276,1645460423.11134,1645460423.10444,1645460575.41124,1
104,4,2,3,25,3,2,c2_WhyHand,1,healthy?,17,H_362.jpg,1645459968.18068,1645459968.18301,440.209300746918,7.10575127601624,447.328622570038,449.42940615654,0.3,452.480543603897,0.666916847229004,453.154105176926,1,left,0.657440900802612,453.147460451126,604.470557441711,607.230557441711,1645460411.14998,1645460411.16196,1645460418.2693,1645460418.27119,1645460420.37008,1645460423.42122,1645460423.42277,1645460424.09478,1645460424.08814,1645460575.41124,1
104,4,2,3,25,4,2,c2_WhyHand,2,healthy?,24,H_019.jpg,1645459968.18068,1645459968.18301,440.209300746918,7.10575127601624,447.328622570038,449.42940615654,0.3,453.46424530983,1.01704430580139,454.487433185577,3,right,1.00325083732605,454.481289615631,604.470557441711,607.230557441711,1645460411.14998,1645460411.16196,1645460418.2693,1645460418.27119,1645460420.37008,1645460424.40492,1645460424.40647,1645460425.42811,1645460425.42197,1645460575.41124,0
104,4,2,3,25,5,2,c2_WhyHand,1,healthy?,19,H_167.jpg,1645459968.18068,1645459968.18301,440.209300746918,7.10575127601624,447.328622570038,449.42940615654,0.3,454.798076143265,0.783624887466431,455.583384027481,1,left,0.762162923812866,455.581701030731,604.470557441711,607.230557441711,1645460411.14998,1645460411.16196,1645460418.2693,1645460418.27119,1645460420.37008,1645460425.73875,1645460425.74061,1645460426.52406,1645460426.52238,1645460575.41124,1
104,4,2,3,25,6,2,c2_WhyHand,2,healthy?,20,H_007.jpg,1645459968.18068,1645459968.18301,440.209300746918,7.10575127601624,447.328622570038,449.42940615654,0.3,455.898484458923,0.80029821395874,456.699857225418,3,right,0.777892112731934,456.698782672882,604.470557441711,607.230557441711,1645460411.14998,1645460411.16196,1645460418.2693,1645460418.27119,1645460420.37008,1645460426.83916,1645460426.84077,1645460427.64054,1645460427.63946,1645460575.41124,0
104,4,2,3,25,7,2,c2_WhyHand,1,healthy?,21,H_627.jpg,1645459968.18068,1645459968.18301,440.209300746918,7.10575127601624,447.328622570038,449.42940615654,0.3,457.015567770004,1.15043163299561,458.171054115295,1,left,1.14082980155945,458.165999403,604.470557441711,607.230557441711,1645460411.14998,1645460411.16196,1645460418.2693,1645460418.27119,1645460420.37008,1645460427.95625,1645460427.95787,1645460429.11173,1645460429.10668,1645460575.41124,1
104,4,2,3,25,8,2,c2_WhyHand,2,healthy?,22,H_130.jpg,1645459968.18068,1645459968.18301,440.209300746918,7.10575127601624,447.328622570038,449.42940615654,0.3,458.482782115936,0.816971063613892,459.304621210098,3,right,0.803457021713257,459.29975317955,604.470557441711,607.230557441711,1645460411.14998,1645460411.16196,1645460418.2693,1645460418.27119,1645460420.37008,1645460429.42346,1645460429.42536,1645460430.2453,1645460430.24043,1645460575.41124,0
104,4,2,3,26,1,4,c4_HowHand,1,pressing button?,82,H_126.jpg,1645459968.18068,1645459968.18301,459.383117666245,6.98592352867126,466.385729541779,468.486512651443,2.10078310966492,468.636569490433,0.766952037811279,469.404976119995,1,left,0.754963159561157,469.403521528244,604.470557441711,607.230557441711,1645460430.3238,1645460430.32854,1645460437.32641,1645460437.32853,1645460439.42719,1645460439.57725,1645460439.57925,1645460440.34565,1645460440.3442,1645460575.41124,1
104,4,2,3,26,2,4,c4_HowHand,2,pressing button?,85,H_130.jpg,1645459968.18068,1645459968.18301,459.383117666245,6.98592352867126,466.385729541779,468.486512651443,0.3,469.720306386948,0.900335788726807,470.622176160812,3,right,0.877213954925537,470.620642175674,604.470557441711,607.230557441711,1645460430.3238,1645460430.32854,1645460437.32641,1645460437.32853,1645460439.42719,1645460440.66098,1645460440.66294,1645460441.56285,1645460441.56132,1645460575.41124,0
104,4,2,3,26,3,4,c4_HowHand,1,pressing button?,84,H_483.jpg,1645459968.18068,1645459968.18301,459.383117666245,6.98592352867126,466.385729541779,468.486512651443,0.3,470.937426557541,0.716933727264404,471.65579914093,1,left,0.708240985870361,471.654360284805,604.470557441711,607.230557441711,1645460430.3238,1645460430.32854,1645460437.32641,1645460437.32853,1645460439.42719,1645460441.8781,1645460441.87976,1645460442.59648,1645460442.59504,1645460575.41124,1
104,4,2,3,26,4,4,c4_HowHand,2,pressing button?,87,H_024.jpg,1645459968.18068,1645459968.18301,459.383117666245,6.98592352867126,466.385729541779,468.486512651443,0.3,471.971145620346,0.783626079559326,472.756561031342,3,right,0.763710975646973,472.754771699905,604.470557441711,607.230557441711,1645460430.3238,1645460430.32854,1645460437.32641,1645460437.32853,1645460439.42719,1645460442.91182,1645460442.91375,1645460443.69724,1645460443.69545,1645460575.41124,0
104,4,2,3,26,5,4,c4_HowHand,1,pressing button?,86,H_332.jpg,1645459968.18068,1645459968.18301,459.383117666245,6.98592352867126,466.385729541779,468.486512651443,0.3,473.071556797028,0.866988658905029,473.954408159256,1,left,0.85753607749939,473.938545455933,604.470557441711,607.230557441711,1645460430.3238,1645460430.32854,1645460437.32641,1645460437.32853,1645460439.42719,1645460444.01223,1645460444.01414,1645460444.89509,1645460444.87922,1645460575.41124,1
104,4,2,3,26,6,4,c4_HowHand,1,pressing button?,88,H_019.jpg,1645459968.18068,1645459968.18301,459.383117666245,6.98592352867126,466.385729541779,468.486512651443,0.3,474.255330314636,0.700260877609253,474.970587005615,1,left,0.690696954727173,474.955591192245,604.470557441711,607.230557441711,1645460430.3238,1645460430.32854,1645460437.32641,1645460437.32853,1645460439.42719,1645460445.19601,1645460445.19822,1645460445.91126,1645460445.89627,1645460575.41124,1
104,4,2,3,26,7,4,c4_HowHand,2,pressing button?,81,H_261.jpg,1645459968.18068,1645459968.18301,459.383117666245,6.98592352867126,466.385729541779,468.486512651443,0.3,475.272376050949,0.716934680938721,475.990389099121,3,right,0.705644130706787,475.989310731888,604.470557441711,607.230557441711,1645460430.3238,1645460430.32854,1645460437.32641,1645460437.32853,1645460439.42719,1645460446.21305,1645460446.21468,1645460446.93107,1645460446.92999,1645460575.41124,0
104,4,2,3,26,8,4,c4_HowHand,1,pressing button?,83,H_502.jpg,1645459968.18068,1645459968.18301,459.383117666245,6.98592352867126,466.385729541779,468.486512651443,0.3,476.306095113754,0.766953706741333,477.088107099533,1,left,0.757172107696533,477.073048820496,604.470557441711,607.230557441711,1645460430.3238,1645460430.32854,1645460437.32641,1645460437.32853,1645460439.42719,1645460447.24677,1645460447.24869,1645460448.02878,1645460448.01373,1645460575.41124,1
104,4,2,3,27,1,3,c3_HowFace,1,looking at camera?,60,F_618.jpg,1645459968.18068,1645459968.18301,477.156412353516,6.74247670173645,483.908931007385,486.009714593887,2.10078358650208,486.159770002365,0.650242805480957,486.811023225784,1,left,0.628307104110718,486.810012807846,604.470557441711,607.230557441711,1645460448.09709,1645460448.11191,1645460454.84961,1645460454.85153,1645460456.95039,1645460457.10045,1645460457.10225,1645460457.7517,1645460457.75069,1645460575.41124,1
104,4,2,3,27,2,3,c3_HowFace,2,looking at camera?,58,F_754.jpg,1645459968.18068,1645459968.18301,477.156412353516,6.74247670173645,483.908931007385,486.009714593887,0.3,487.126797189713,0.983700513839722,488.112052192688,3,right,0.961483001708984,488.110497703552,604.470557441711,607.230557441711,1645460448.09709,1645460448.11191,1645460454.84961,1645460454.85153,1645460456.95039,1645460458.06748,1645460458.06905,1645460459.05273,1645460459.05118,1645460575.41124,0
104,4,2,3,27,3,3,c3_HowFace,1,looking at camera?,59,F_129.jpg,1645459968.18068,1645459968.18301,477.156412353516,6.74247670173645,483.908931007385,486.009714593887,0.3,488.427282800674,0.683592081069946,489.111915102005,1,left,0.666530132293701,489.110874881744,604.470557441711,607.230557441711,1645460448.09709,1645460448.11191,1645460454.84961,1645460454.85153,1645460456.95039,1645460459.36796,1645460459.36968,1645460460.05259,1645460460.05155,1645460575.41124,1
104,4,2,3,27,4,3,c3_HowFace,1,looking at camera?,62,F_598.jpg,1645459968.18068,1645459968.18301,477.156412353516,6.74247670173645,483.908931007385,486.009714593887,0.3,489.427655687332,0.716934442520142,490.154473056793,1,left,0.702630996704102,490.144590129852,604.470557441711,607.230557441711,1645460448.09709,1645460448.11191,1645460454.84961,1645460454.85153,1645460456.95039,1645460460.36833,1645460460.37002,1645460461.09515,1645460461.08527,1645460575.41124,1
104,4,2,3,27,5,3,c3_HowFace,1,looking at camera?,64,F_128.jpg,1645459968.18068,1645459968.18301,477.156412353516,6.74247670173645,483.908931007385,486.009714593887,0.3,490.461374511719,0.616896152496338,491.087262144089,1,left,0.607521057128906,491.078270664215,604.470557441711,607.230557441711,1645460448.09709,1645460448.11191,1645460454.84961,1645460454.85153,1645460456.95039,1645460461.40205,1645460461.40381,1645460462.02794,1645460462.01895,1645460575.41124,1
104,4,2,3,27,6,3,c3_HowFace,2,looking at camera?,57,F_582.jpg,1645459968.18068,1645459968.18301,477.156412353516,6.74247670173645,483.908931007385,486.009714593887,0.3,491.395056238174,0.967027187347412,492.363859167099,3,right,0.946254014968872,492.362083425522,604.470557441711,607.230557441711,1645460448.09709,1645460448.11191,1645460454.84961,1645460454.85153,1645460456.95039,1645460462.33573,1645460462.33768,1645460463.30454,1645460463.30276,1645460575.41124,0
104,4,2,3,27,7,3,c3_HowFace,1,looking at camera?,61,F_774.jpg,1645459968.18068,1645459968.18301,477.156412353516,6.74247670173645,483.908931007385,486.009714593887,0.3,492.678867807388,0.566878795623779,493.254005184174,1,left,0.553478002548218,493.245746603012,604.470557441711,607.230557441711,1645460448.09709,1645460448.11191,1645460454.84961,1645460454.85153,1645460456.95039,1645460463.61955,1645460463.62124,1645460464.19468,1645460464.18642,1645460575.41124,1
