src_subject_id,session_id,run_id,param_counterbalance_ver,param_block_num,param_trial_num,param_cond_type_num,param_cond_type_string,param_normative_response,param_ques_type_string,param_image_num,param_image_filename,param_trigger_onset,param_start_biopac,event01_fixation,event01_fixation_dur,event01_blockquestion_onset,event01_block_isi_blacksreen,event01_blockquestion_dur,event02_image_onset,event02_image_dur,event03_response_onset,event03_response_key,event03_response_keyname,event03_RT,event04_shortquestion_onset,param_end_instruct_onset,param_experiment_duration,RAW_e1_fixation,RAW_e1_fixation_biopac,RAW_e1_blockquestion_onset,RAW_e1_blockquestion_onset_biopac,RAW_e1_block_isi_blacksreen,RAW_e2_image_onset,RAW_e2_image_onset_biopac,RAW_e3_response_onset,RAW_e4_shortquestion_onset,RAW_param_end_instruct_onset,accuracy
37,4,1,4,1,1,3,c3_HowFace,1,smiling?,118,F_759.jpg,1627424086.50997,1627424086.52162,0.0443818473815916,0.0249619483947754,0.0777280235290525,2.11181973457336,2.03409171104431,2.26187538146973,1.10041117668152,3.36384581565857,1,left,1.06062793731689,3.36228655815124,604.469785680771,607.229785680771,1627424089.31435,1627424089.31745,1627424089.3477,1627424089.34973,1627424091.38179,1627424091.53184,1627424091.54552,1627424092.63381,1627424092.63225,1627424693.73975,1
37,4,1,4,1,2,3,c3_HowFace,2,smiling?,114,F_412.jpg,1627424086.50997,1627424086.52162,0.0443818473815916,0.0249619483947754,0.0777280235290525,2.11181973457336,0.3,3.67907022476196,0.850317001342773,4.5317308807373,3,right,0.831321954727173,4.52938722610474,604.469785680771,607.229785680771,1627424089.31435,1627424089.31745,1627424089.3477,1627424089.34973,1627424091.38179,1627424092.94904,1627424092.95137,1627424093.8017,1627424093.79935,1627424693.73975,0
37,4,1,4,1,3,3,c3_HowFace,1,smiling?,117,F_593.jpg,1627424086.50997,1627424086.52162,0.0443818473815916,0.0249619483947754,0.0777280235290525,2.11181973457336,0.3,4.84617280006409,0.866989850997925,5.71449088096619,1,left,0.848941802978516,5.71316265106201,604.469785680771,607.229785680771,1627424089.31435,1627424089.31745,1627424089.3477,1627424089.34973,1627424091.38179,1627424094.11614,1627424094.11792,1627424094.98446,1627424094.98313,1627424693.73975,1
37,4,1,4,1,4,3,c3_HowFace,2,smiling?,113,F_712.jpg,1627424086.50997,1627424086.52162,0.0443818473815916,0.0249619483947754,0.0777280235290525,2.11181973457336,0.3,6.0299477481842,0.716933727264404,6.75811790466309,3,right,0.703028917312622,6.74688147544861,604.469785680771,607.229785680771,1627424089.31435,1627424089.31745,1627424089.3477,1627424089.34973,1627424091.38179,1627424095.29991,1627424095.30174,1627424096.02808,1627424096.01685,1627424693.73975,0
37,4,1,4,1,5,3,c3_HowFace,1,smiling?,115,F_695.jpg,1627424086.50997,1627424086.52162,0.0443818473815916,0.0249619483947754,0.0777280235290525,2.11181973457336,0.3,7.06366681098938,0.716934442520142,7.79364799499512,1,left,0.703284025192261,7.78060125350952,604.469785680771,607.229785680771,1627424089.31435,1627424089.31745,1627424089.3477,1627424089.34973,1627424091.38179,1627424096.33363,1627424096.33641,1627424097.06362,1627424097.05057,1627424693.73975,1
37,4,1,4,1,6,3,c3_HowFace,1,smiling?,119,F_139.jpg,1627424086.50997,1627424086.52162,0.0443818473815916,0.0249619483947754,0.0777280235290525,2.11181973457336,0.3,8.09738515853882,0.733606100082397,8.83283781051636,1,left,0.711947917938232,8.83099125862122,604.469785680771,607.229785680771,1627424089.31435,1627424089.31745,1627424089.3477,1627424089.34973,1627424091.38179,1627424097.36735,1627424097.36918,1627424098.1028,1627424098.10096,1627424693.73975,1
37,4,1,4,1,7,3,c3_HowFace,1,smiling?,116,F_083.jpg,1627424086.50997,1627424086.52162,0.0443818473815916,0.0249619483947754,0.0777280235290525,2.11181973457336,0.3,9.14777683258057,0.666915416717529,9.82406400680542,1,left,0.655972957611084,9.8146922492981,604.469785680771,607.229785680771,1627424089.31435,1627424089.31745,1627424089.3477,1627424089.34973,1627424091.38179,1627424098.41774,1627424098.4197,1627424099.09403,1627424099.08466,1627424693.73975,1
37,4,1,4,1,8,3,c3_HowFace,2,smiling?,120,F_758.jpg,1627424086.50997,1627424086.52162,0.0443818473815916,0.0249619483947754,0.0777280235290525,2.11181973457336,0.3,10.1314766311646,0.733607053756714,10.8666767978668,3,right,0.717593193054199,10.8650836849213,604.469785680771,607.229785680771,1627424089.31435,1627424089.31745,1627424089.3477,1627424089.34973,1627424091.38179,1627424099.40144,1627424099.40293,1627424100.13664,1627424100.13505,1627424693.73975,0
37,4,1,4,2,1,1,c1_WhyFace,1,admiring?,1,F_593.jpg,1627424086.50997,1627424086.52162,11.0651585960388,8.04397130012512,19.1181616687775,21.2189440631866,2.10078239440918,21.3690016174316,1.01704502105713,22.3906609916687,1,left,1.00395107269287,22.3860466384888,604.469785680771,607.229785680771,1627424100.33513,1627424100.33808,1627424108.38813,1627424108.39497,1627424110.48891,1627424110.63897,1627424110.64475,1627424111.66063,1627424111.65601,1627424693.73975,1
37,4,1,4,2,2,1,c1_WhyFace,2,admiring?,2,F_129.jpg,1627424086.50997,1627424086.52162,11.0651585960388,8.04397130012512,19.1181616687775,21.2189440631866,0.3,22.7028319740295,1.05039215087891,23.7581398391724,3,right,1.04053783416748,23.7532241249084,604.469785680771,607.229785680771,1627424100.33513,1627424100.33808,1627424108.38813,1627424108.39497,1627424110.48891,1627424111.9728,1627424111.97488,1627424113.02811,1627424113.02319,1627424693.73975,0
37,4,1,4,2,3,1,c1_WhyFace,1,admiring?,5,F_759.jpg,1627424086.50997,1627424086.52162,11.0651585960388,8.04397130012512,19.1181616687775,21.2189440631866,0.3,24.0700085067749,0.716933965682983,24.7912888431549,1,left,0.700129985809326,24.7869424724579,604.469785680771,607.229785680771,1627424100.33513,1627424100.33808,1627424108.38813,1627424108.39497,1627424110.48891,1627424113.33998,1627424113.34464,1627424114.06126,1627424114.05691,1627424693.73975,1
37,4,1,4,2,4,1,c1_WhyFace,2,admiring?,6,F_692.jpg,1627424086.50997,1627424086.52162,11.0651585960388,8.04397130012512,19.1181616687775,21.2189440631866,0.3,25.1037280464172,0.933678865432739,26.0414647960663,3,right,0.919776916503906,26.03740691185,604.469785680771,607.229785680771,1627424100.33513,1627424100.33808,1627424108.38813,1627424108.39497,1627424110.48891,1627424114.3737,1627424114.37786,1627424115.31143,1627424115.30737,1627424693.73975,0
37,4,1,4,2,5,1,c1_WhyFace,1,admiring?,4,F_779.jpg,1627424086.50997,1627424086.52162,11.0651585960388,8.04397130012512,19.1181616687775,21.2189440631866,0.3,26.3541939163208,0.716933727264404,27.074086894989,1,left,0.702965974807739,27.0711276435852,604.469785680771,607.229785680771,1627424100.33513,1627424100.33808,1627424108.38813,1627424108.39497,1627424110.48891,1627424115.62416,1627424115.62777,1627424116.34405,1627424116.34109,1627424693.73975,1
37,4,1,4,2,6,1,c1_WhyFace,1,admiring?,8,F_590.jpg,1627424086.50997,1627424086.52162,11.0651585960388,8.04397130012512,19.1181616687775,21.2189440631866,0.3,27.3879132175446,0.850316524505615,28.2406928443909,1,left,0.833091020584106,28.2382297420502,604.469785680771,607.229785680771,1627424100.33513,1627424100.33808,1627424108.38813,1627424108.39497,1627424110.48891,1627424116.65788,1627424116.66121,1627424117.51066,1627424117.5082,1627424693.73975,1
37,4,1,4,2,7,1,c1_WhyFace,1,admiring?,7,F_648.jpg,1627424086.50997,1627424086.52162,11.0651585960388,8.04397130012512,19.1181616687775,21.2189440631866,0.3,28.5550153160095,0.800297021865845,29.3576779270172,1,left,0.77682900428772,29.3553123378754,604.469785680771,607.229785680771,1627424100.33513,1627424100.33808,1627424108.38813,1627424108.39497,1627424110.48891,1627424117.82498,1627424117.8277,1627424118.62765,1627424118.62528,1627424693.73975,1
37,4,1,4,2,8,1,c1_WhyFace,2,admiring?,3,F_110.jpg,1627424086.50997,1627424086.52162,11.0651585960388,8.04397130012512,19.1181616687775,21.2189440631866,0.3,29.6720983886719,0.883662223815918,30.5572998428345,3,right,0.871281862258911,30.5557606124878,604.469785680771,607.229785680771,1627424100.33513,1627424100.33808,1627424108.38813,1627424108.39497,1627424110.48891,1627424118.94207,1627424118.94436,1627424119.82727,1627424119.82573,1627424693.73975,0
37,4,1,4,3,1,2,c2_WhyHand,1,competing?,9,H_261.jpg,1627424086.50997,1627424086.52162,30.6557972335815,7.50734066963196,38.1752688789368,40.2760515117645,2.10078263282776,40.4261081123352,0.816971302032471,41.2448489570618,1,left,0.799345970153809,41.2430794143677,604.469785680771,607.229785680771,1627424119.92576,1627424119.92871,1627424127.44524,1627424127.4474,1627424129.54602,1627424129.69608,1627424129.6979,1627424130.51482,1627424130.51305,1627424693.73975,1
37,4,1,4,3,2,2,c2_WhyHand,1,competing?,15,H_170.jpg,1627424086.50997,1627424086.52162,30.6557972335815,7.50734066963196,38.1752688789368,40.2760515117645,0.3,41.5598635578156,0.716934680938721,42.2783648872376,1,left,0.69681191444397,42.2767982387543,604.469785680771,607.229785680771,1627424119.92576,1627424119.92871,1627424127.44524,1627424127.4474,1627424129.54602,1627424130.82983,1627424130.83162,1627424131.54833,1627424131.54677,1627424693.73975,1
37,4,1,4,3,3,2,c2_WhyHand,2,competing?,12,H_483.jpg,1627424086.50997,1627424086.52162,30.6557972335815,7.50734066963196,38.1752688789368,40.2760515117645,0.3,42.5935828590393,0.800299167633057,43.407995929718,3,right,0.791427135467529,43.3938820266724,604.469785680771,607.229785680771,1627424119.92576,1627424119.92871,1627424127.44524,1627424127.4474,1627424129.54602,1627424131.86355,1627424131.86499,1627424132.67796,1627424132.66385,1627424693.73975,0
37,4,1,4,3,4,2,c2_WhyHand,1,competing?,14,H_132.jpg,1627424086.50997,1627424086.52162,30.6557972335815,7.50734066963196,38.1752688789368,40.2760515117645,0.3,43.7106661701202,0.550205707550049,44.2625880146027,1,left,0.527941942214966,44.2608718776703,604.469785680771,607.229785680771,1627424119.92576,1627424119.92871,1627424127.44524,1627424127.4474,1627424129.54602,1627424132.98063,1627424132.98231,1627424133.53256,1627424133.53084,1627424693.73975,1
37,4,1,4,3,5,2,c2_WhyHand,1,competing?,16,H_136.jpg,1627424086.50997,1627424086.52162,30.6557972335815,7.50734066963196,38.1752688789368,40.2760515117645,0.3,44.5776567363739,1.05039167404175,45.629230966568,1,left,1.03440499305725,45.6280484104157,604.469785680771,607.229785680771,1627424119.92576,1627424119.92871,1627424127.44524,1627424127.4474,1627424129.54602,1627424133.84762,1627424133.84944,1627424134.8992,1627424134.89802,1627424693.73975,1
37,4,1,4,3,6,2,c2_WhyHand,1,competing?,13,H_003.jpg,1627424086.50997,1627424086.52162,30.6557972335815,7.50734066963196,38.1752688789368,40.2760515117645,0.3,45.9448320770264,0.716934204101562,46.6634998226166,1,left,0.694846153259277,46.6617662811279,604.469785680771,607.229785680771,1627424119.92576,1627424119.92871,1627424127.44524,1627424127.4474,1627424129.54602,1627424135.2148,1627424135.21652,1627424135.93347,1627424135.93173,1627424693.73975,1
37,4,1,4,3,7,2,c2_WhyHand,2,competing?,10,H_126.jpg,1627424086.50997,1627424086.52162,30.6557972335815,7.50734066963196,38.1752688789368,40.2760515117645,0.3,46.9785513782501,0.800297975540161,47.7913069629669,3,right,0.790615081787109,47.7788493537903,604.469785680771,607.229785680771,1627424119.92576,1627424119.92871,1627424127.44524,1627424127.4474,1627424129.54602,1627424136.24852,1627424136.25009,1627424137.06127,1627424137.04882,1627424693.73975,0
37,4,1,4,3,8,2,c2_WhyHand,2,competing?,11,H_502.jpg,1627424086.50997,1627424086.52162,30.6557972335815,7.50734066963196,38.1752688789368,40.2760515117645,0.3,48.0956346893311,1.1837751865387,49.291127910614,3,right,1.17647194862366,49.2794098758698,604.469785680771,607.229785680771,1627424119.92576,1627424119.92871,1627424127.44524,1627424127.4474,1627424129.54602,1627424137.3656,1627424137.36744,1627424138.56109,1627424138.54938,1627424693.73975,0
37,4,1,4,4,1,4,c4_HowHand,1,reaching?,111,H_003.jpg,1627424086.50997,1627424086.52162,49.3794467353821,11.2657661437988,60.6503164672852,62.7510993385315,2.10078287124634,62.9011573696136,0.733604907989502,63.6407668495178,1,left,0.714389085769653,63.6347622776032,604.469785680771,607.229785680771,1627424138.64941,1627424138.65131,1627424149.92028,1627424149.92798,1627424152.02107,1627424152.17112,1627424152.17822,1627424152.91073,1627424152.90473,1627424693.73975,1
37,4,1,4,4,2,4,c4_HowHand,1,reaching?,110,H_364.jpg,1627424086.50997,1627424086.52162,49.3794467353821,11.2657661437988,60.6503164672852,62.7510993385315,0.3,63.9515473747253,0.85031795501709,64.8033029937744,1,left,0.826742887496948,64.8018653297424,604.469785680771,607.229785680771,1627424138.64941,1627424138.65131,1627424149.92028,1627424149.92798,1627424152.02107,1627424153.22151,1627424153.22312,1627424154.07327,1627424154.07183,1627424693.73975,1
37,4,1,4,4,3,4,c4_HowHand,2,reaching?,108,H_532.jpg,1627424086.50997,1627424086.52162,49.3794467353821,11.2657661437988,60.6503164672852,62.7510993385315,0.3,65.1186492347717,0.983700037002563,66.1079749965668,3,right,0.966273069381714,66.1023492717743,604.469785680771,607.229785680771,1627424138.64941,1627424138.65131,1627424149.92028,1627424149.92798,1627424152.02107,1627424154.38862,1627424154.39019,1627424155.37794,1627424155.37232,1627424693.73975,0
37,4,1,4,4,4,4,c4_HowHand,1,reaching?,106,H_006.jpg,1627424086.50997,1627424086.52162,49.3794467353821,11.2657661437988,60.6503164672852,62.7510993385315,0.3,66.4191348457336,0.600223779678345,67.024373998642,1,left,0.587179183959961,67.019358625412,604.469785680771,607.229785680771,1627424138.64941,1627424138.65131,1627424149.92028,1627424149.92798,1627424152.02107,1627424155.6891,1627424155.69072,1627424156.29434,1627424156.28933,1627424693.73975,1
37,4,1,4,4,5,4,c4_HowHand,2,reaching?,105,H_438.jpg,1627424086.50997,1627424086.52162,49.3794467353821,11.2657661437988,60.6503164672852,62.7510993385315,0.3,67.3361437225342,0.766952276229858,68.1079938316345,3,right,0.74677300453186,68.103095998764,604.469785680771,607.229785680771,1627424138.64941,1627424138.65131,1627424149.92028,1627424149.92798,1627424152.02107,1627424156.60611,1627424156.60786,1627424157.37796,1627424157.37306,1627424693.73975,0
37,4,1,4,4,6,4,c4_HowHand,1,reaching?,107,H_007.jpg,1627424086.50997,1627424086.52162,49.3794467353821,11.2657661437988,60.6503164672852,62.7510993385315,0.3,68.4198806190491,0.616896867752075,69.0378429794311,1,left,0.591141939163208,69.0367774868011,604.469785680771,607.229785680771,1627424138.64941,1627424138.65131,1627424149.92028,1627424149.92798,1627424152.02107,1627424157.68985,1627424157.69463,1627424158.30781,1627424158.30674,1627424693.73975,1
37,4,1,4,4,7,4,c4_HowHand,1,reaching?,109,H_474.jpg,1627424086.50997,1627424086.52162,49.3794467353821,11.2657661437988,60.6503164672852,62.7510993385315,0.3,69.3535625839233,1.00037312507629,70.3574240112305,1,left,0.980516195297241,70.3539357089996,604.469785680771,607.229785680771,1627424138.64941,1627424138.65131,1627424149.92028,1627424149.92798,1627424152.02107,1627424158.62353,1627424158.62792,1627424159.62739,1627424159.6239,1627424693.73975,1
37,4,1,4,4,8,4,c4_HowHand,2,reaching?,112,H_132.jpg,1627424086.50997,1627424086.52162,49.3794467353821,11.2657661437988,60.6503164672852,62.7510993385315,0.3,70.6707210445404,0.833643436431885,71.5072870159149,3,right,0.818424940109253,71.5043644809723,604.469785680771,607.229785680771,1627424138.64941,1627424138.65131,1627424149.92028,1627424149.92798,1627424152.02107,1627424159.94069,1627424159.94441,1627424160.77725,1627424160.77433,1627424693.73975,0
37,4,1,4,5,1,3,c3_HowFace,1,open mouth?,73,F_403.jpg,1627424086.50997,1627424086.52162,71.5710554027557,8.18277144432068,79.7741148376465,81.8582255744934,2.08411073684692,82.0082819366455,0.833644151687622,82.8436059856415,1,left,0.802587032318115,82.8419260883331,604.469785680771,607.229785680771,1627424160.84102,1627424160.84524,1627424169.04408,1627424169.04664,1627424171.12819,1627424171.27825,1627424171.29463,1627424172.11357,1627424172.11189,1627424693.73975,1
37,4,1,4,5,2,3,c3_HowFace,2,open mouth?,79,F_648.jpg,1627424086.50997,1627424086.52162,71.5710554027557,8.18277144432068,79.7741148376465,81.8582255744934,0.3,83.1587107086182,0.616896629333496,83.7770628833771,3,right,0.601438045501709,83.7756073379517,604.469785680771,607.229785680771,1627424160.84102,1627424160.84524,1627424169.04408,1627424169.04664,1627424171.12819,1627424172.42868,1627424172.43031,1627424173.04703,1627424173.04557,1627424693.73975,0
37,4,1,4,5,3,3,c3_HowFace,1,open mouth?,74,F_776.jpg,1627424086.50997,1627424086.52162,71.5710554027557,8.18277144432068,79.7741148376465,81.8582255744934,0.3,84.0923919582367,0.516859292984009,84.6246509456634,1,left,0.50976300239563,84.6092512512207,604.469785680771,607.229785680771,1627424160.84102,1627424160.84524,1627424169.04408,1627424169.04664,1627424171.12819,1627424173.36236,1627424173.36395,1627424173.89462,1627424173.87922,1627424693.73975,1
37,4,1,4,5,4,3,c3_HowFace,2,open mouth?,77,F_584.jpg,1627424086.50997,1627424086.52162,71.5710554027557,8.18277144432068,79.7741148376465,81.8582255744934,0.3,84.9260363483429,0.716934442520142,85.657680978775,3,right,0.708118915557861,85.642970790863,604.469785680771,607.229785680771,1627424160.84102,1627424160.84524,1627424169.04408,1627424169.04664,1627424171.12819,1627424174.196,1627424174.19779,1627424174.92765,1627424174.91294,1627424693.73975,0
37,4,1,4,5,5,3,c3_HowFace,1,open mouth?,80,F_844.jpg,1627424086.50997,1627424086.52162,71.5710554027557,8.18277144432068,79.7741148376465,81.8582255744934,0.3,85.9597549343109,0.683588981628418,86.644433965683,1,left,0.670663118362427,86.6433439159393,604.469785680771,607.229785680771,1627424160.84102,1627424160.84524,1627424169.04408,1627424169.04664,1627424171.12819,1627424175.22972,1627424175.23132,1627424175.9144,1627424175.91331,1627424693.73975,1
37,4,1,4,5,6,3,c3_HowFace,1,open mouth?,78,F_692.jpg,1627424086.50997,1627424086.52162,71.5710554027557,8.18277144432068,79.7741148376465,81.8582255744934,0.3,86.96012758255,0.633569955825806,87.5947608852386,1,left,0.617607116699219,87.5936975383758,604.469785680771,607.229785680771,1627424160.84102,1627424160.84524,1627424169.04408,1627424169.04664,1627424171.12819,1627424176.23009,1627424176.2316,1627424176.86473,1627424176.86366,1627424693.73975,1
37,4,1,4,5,7,3,c3_HowFace,1,open mouth?,75,F_086.jpg,1627424086.50997,1627424086.52162,71.5710554027557,8.18277144432068,79.7741148376465,81.8582255744934,0.3,87.9104831123352,0.550204992294312,88.4625339412689,1,left,0.531820058822632,88.4606881046295,604.469785680771,607.229785680771,1627424160.84102,1627424160.84524,1627424169.04408,1627424169.04664,1627424171.12819,1627424177.18045,1627424177.18197,1627424177.7325,1627424177.73066,1627424693.73975,1
37,4,1,4,5,8,3,c3_HowFace,2,open mouth?,76,F_544.jpg,1627424086.50997,1627424086.52162,71.5710554027557,8.18277144432068,79.7741148376465,81.8582255744934,0.3,88.7774727249145,0.633570194244385,89.4126779937744,3,right,0.620430946350098,89.4110429191589,604.469785680771,607.229785680771,1627424160.84102,1627424160.84524,1627424169.04408,1627424169.04664,1627424171.12819,1627424178.04744,1627424178.04913,1627424178.68265,1627424178.68101,1627424693.73975,0
37,4,1,4,6,1,1,c1_WhyFace,1,argument?,42,F_403.jpg,1627424086.50997,1627424086.52162,89.4944069290161,11.7385149002075,101.248789777756,103.349575748444,2.10078597068787,103.499629487991,0.833644390106201,104.335033884048,1,left,0.815674066543579,104.333273878098,604.469785680771,607.229785680771,1627424178.76437,1627424178.77789,1627424190.51876,1627424190.52088,1627424192.61954,1627424192.7696,1627424192.77181,1627424193.605,1627424193.60324,1627424693.73975,1
37,4,1,4,6,2,1,c1_WhyFace,2,argument?,46,F_844.jpg,1627424086.50997,1627424086.52162,89.4944069290161,11.7385149002075,101.248789777756,103.349575748444,0.3,104.650058736801,0.766952037811279,105.423943986893,3,right,0.751354932785034,105.417010774612,604.469785680771,607.229785680771,1627424178.76437,1627424178.77789,1627424190.51876,1627424190.52088,1627424192.61954,1627424193.92003,1627424193.9222,1627424194.69391,1627424194.68698,1627424693.73975,0
37,4,1,4,6,3,1,c1_WhyFace,1,argument?,41,F_712.jpg,1627424086.50997,1627424086.52162,89.4944069290161,11.7385149002075,101.248789777756,103.349575748444,0.3,105.733795871735,0.700260400772095,106.436319818497,1,left,0.678567886352539,106.434056272507,604.469785680771,607.229785680771,1627424178.76437,1627424178.77789,1627424190.51876,1627424190.52088,1627424192.61954,1627424195.00376,1627424195.00542,1627424195.70629,1627424195.70402,1627424693.73975,1
37,4,1,4,6,4,1,c1_WhyFace,1,argument?,48,F_758.jpg,1627424086.50997,1627424086.52162,89.4944069290161,11.7385149002075,101.248789777756,103.349575748444,0.3,106.750842084885,0.850316286087036,107.608021011353,1,left,0.834680080413818,107.601158370972,604.469785680771,607.229785680771,1627424178.76437,1627424178.77789,1627424190.51876,1627424190.52088,1627424192.61954,1627424196.02081,1627424196.02263,1627424196.87799,1627424196.87113,1627424693.73975,1
37,4,1,4,6,5,1,c1_WhyFace,2,argument?,45,F_433.jpg,1627424086.50997,1627424086.52162,89.4944069290161,11.7385149002075,101.248789777756,103.349575748444,0.3,107.917943706512,0.650241851806641,108.570129861832,3,right,0.628113031387329,108.568185558319,604.469785680771,607.229785680771,1627424178.76437,1627424178.77789,1627424190.51876,1627424190.52088,1627424192.61954,1627424197.18791,1627424197.18984,1627424197.8401,1627424197.83815,1627424693.73975,0
37,4,1,4,6,6,1,c1_WhyFace,1,argument?,43,F_716.jpg,1627424086.50997,1627424086.52162,89.4944069290161,11.7385149002075,101.248789777756,103.349575748444,0.3,108.88497089386,0.800299167633057,109.690996875763,1,left,0.788004159927368,109.685270061493,604.469785680771,607.229785680771,1627424178.76437,1627424178.77789,1627424190.51876,1627424190.52088,1627424192.61954,1627424198.15494,1627424198.15671,1627424198.96096,1627424198.95524,1627424693.73975,1
37,4,1,4,6,7,1,c1_WhyFace,2,argument?,44,F_139.jpg,1627424086.50997,1627424086.52162,89.4944069290161,11.7385149002075,101.248789777756,103.349575748444,0.3,110.002054920197,1.00037288665771,111.008064975739,3,right,0.981216907501221,111.002427806854,604.469785680771,607.229785680771,1627424178.76437,1627424178.77789,1627424190.51876,1627424190.52088,1627424192.61954,1627424199.27202,1627424199.27364,1627424200.27803,1627424200.27239,1627424693.73975,0
37,4,1,4,6,8,1,c1_WhyFace,1,argument?,47,F_743.jpg,1627424086.50997,1627424086.52162,89.4944069290161,11.7385149002075,101.248789777756,103.349575748444,0.3,111.319212665558,0.666914939880371,111.991155853271,1,left,0.659140110015869,111.986127605438,604.469785680771,607.229785680771,1627424178.76437,1627424178.77789,1627424190.51876,1627424190.52088,1627424192.61954,1627424200.58918,1627424200.591,1627424201.26112,1627424201.25609,1627424693.73975,1
37,4,1,4,7,1,2,c2_WhyHand,1,helping?,39,H_024.jpg,1627424086.50997,1627424086.52162,112.052817573547,11.6621792316437,123.723837842941,125.824621667862,2.10078382492065,125.974677553177,1.00037336349487,126.976886978149,3,right,0.98694109916687,126.975050916672,604.469785680771,607.229785680771,1627424201.32278,1627424201.32782,1627424212.9938,1627424212.99566,1627424215.09459,1627424215.24464,1627424215.24623,1627424216.24685,1627424216.24502,1627424693.73975,0
37,4,1,4,7,2,2,c2_WhyHand,1,helping?,36,H_349.jpg,1627424086.50997,1627424086.52162,112.052817573547,11.6621792316437,123.723837842941,125.824621667862,0.3,127.291836013794,1.1837739944458,128.477481832504,1,left,1.1677360534668,128.47561000824,604.469785680771,607.229785680771,1627424201.32278,1627424201.32782,1627424212.9938,1627424212.99566,1627424215.09459,1627424216.5618,1627424216.56345,1627424217.74745,1627424217.74558,1627424693.73975,1
37,4,1,4,7,3,2,c2_WhyHand,1,helping?,38,H_077.jpg,1627424086.50997,1627424086.52162,112.052817573547,11.6621792316437,123.723837842941,125.824621667862,0.3,128.792394866943,0.816972255706787,129.62441491127,1,left,0.809135913848877,129.60936712265,604.469785680771,607.229785680771,1627424201.32278,1627424201.32782,1627424212.9938,1627424212.99566,1627424215.09459,1627424218.06236,1627424218.06397,1627424218.89438,1627424218.87933,1627424693.73975,1
37,4,1,4,7,4,2,c2_WhyHand,1,helping?,37,H_474.jpg,1627424086.50997,1627424086.52162,112.052817573547,11.6621792316437,123.723837842941,125.824621667862,0.3,129.926151981354,0.917007684707642,130.844254961014,1,left,0.904474020004272,130.843159666061,604.469785680771,607.229785680771,1627424201.32278,1627424201.32782,1627424212.9938,1627424212.99566,1627424215.09459,1627424219.19612,1627424219.19807,1627424220.11422,1627424220.11313,1627424693.73975,1
37,4,1,4,7,5,2,c2_WhyHand,2,helping?,33,H_091.jpg,1627424086.50997,1627424086.52162,112.052817573547,11.6621792316437,123.723837842941,125.824621667862,0.3,131.159943332672,0.833646059036255,131.994683017731,3,right,0.817561149597168,131.993589391708,604.469785680771,607.229785680771,1627424201.32278,1627424201.32782,1627424212.9938,1627424212.99566,1627424215.09459,1627424220.42991,1627424220.43174,1627424221.26465,1627424221.26356,1627424693.73975,0
37,4,1,4,7,6,2,c2_WhyHand,2,helping?,35,H_159.jpg,1627424086.50997,1627424086.52162,112.052817573547,11.6621792316437,123.723837842941,125.824621667862,0.3,132.310373773575,0.983700037002563,133.29583691597,3,right,0.965882062911987,133.294073810577,604.469785680771,607.229785680771,1627424201.32278,1627424201.32782,1627424212.9938,1627424212.99566,1627424215.09459,1627424221.58034,1627424221.58177,1627424222.5658,1627424222.56404,1627424693.73975,0
37,4,1,4,7,7,2,c2_WhyHand,1,helping?,34,H_111.jpg,1627424086.50997,1627424086.52162,112.052817573547,11.6621792316437,123.723837842941,125.824621667862,0.3,133.610859146118,0.883662462234497,134.507454862595,1,left,0.876020193099976,134.494521608353,604.469785680771,607.229785680771,1627424201.32278,1627424201.32782,1627424212.9938,1627424212.99566,1627424215.09459,1627424222.88083,1627424222.88245,1627424223.77742,1627424223.76449,1627424693.73975,1
37,4,1,4,7,8,2,c2_WhyHand,2,helping?,40,H_012.jpg,1627424086.50997,1627424086.52162,112.052817573547,11.6621792316437,123.723837842941,125.824621667862,0.3,134.811305751801,1.00037407875061,135.813303937912,3,right,0.987327098846436,135.811679830551,604.469785680771,607.229785680771,1627424201.32278,1627424201.32782,1627424212.9938,1627424212.99566,1627424215.09459,1627424224.08127,1627424224.083,1627424225.08327,1627424225.08165,1627424693.73975,0
37,4,1,4,8,1,4,c4_HowHand,1,both hands?,122,H_111.jpg,1627424086.50997,1627424086.52162,135.878370275497,5.36659955978394,141.26371263504,143.34782289505,2.08411026000977,143.497878780365,0.816972017288208,144.323957910538,3,right,0.799551963806152,144.314850797653,604.469785680771,607.229785680771,1627424225.14834,1627424225.14977,1627424230.53368,1627424230.53575,1627424232.61779,1627424232.76785,1627424232.77789,1627424233.59392,1627424233.58482,1627424693.73975,0
37,4,1,4,8,2,4,c4_HowHand,1,both hands?,128,H_027.jpg,1627424086.50997,1627424086.52162,135.878370275497,5.36659955978394,141.26371263504,143.34782289505,0.3,144.631635894775,0.0166709423065186,144.65761302948,3,right,0.000206947326660156,144.648306837082,604.469785680771,607.229785680771,1627424225.14834,1627424225.14977,1627424230.53368,1627424230.53575,1627424232.61779,1627424233.9016,1627424233.90307,1627424233.92758,1627424233.91827,1627424693.73975,0
37,4,1,4,8,3,4,c4_HowHand,2,both hands?,121,H_091.jpg,1627424086.50997,1627424086.52162,135.878370275497,5.36659955978394,141.26371263504,143.34782289505,0.3,144.965092411041,1.06706523895264,146.033268918991,3,right,1.0480260848999,146.032157649994,604.469785680771,607.229785680771,1627424225.14834,1627424225.14977,1627424230.53368,1627424230.53575,1627424232.61779,1627424234.23506,1627424234.23676,1627424235.30324,1627424235.30212,1627424693.73975,0
37,4,1,4,8,4,4,c4_HowHand,1,both hands?,123,H_167.jpg,1627424086.50997,1627424086.52162,135.878370275497,5.36659955978394,141.26371263504,143.34782289505,0.3,146.348942747116,1.03371930122375,147.390707006454,1,left,1.01984691619873,147.38266204834,604.469785680771,607.229785680771,1627424225.14834,1627424225.14977,1627424230.53368,1627424230.53575,1627424232.61779,1627424235.61891,1627424235.62064,1627424236.66067,1627424236.65263,1627424693.73975,1
37,4,1,4,8,5,4,c4_HowHand,1,both hands?,124,H_581.jpg,1627424086.50997,1627424086.52162,135.878370275497,5.36659955978394,141.26371263504,143.34782289505,0.3,147.699445953369,0.850316286087036,148.557297935486,1,left,0.834919929504395,148.549762239456,604.469785680771,607.229785680771,1627424225.14834,1627424225.14977,1627424230.53368,1627424230.53575,1627424232.61779,1627424236.96941,1627424236.97097,1627424237.82727,1627424237.81973,1627424693.73975,1
37,4,1,4,8,6,4,c4_HowHand,2,both hands?,126,H_159.jpg,1627424086.50997,1627424086.52162,135.878370275497,5.36659955978394,141.26371263504,143.34782289505,0.3,148.866548290253,0.700260639190674,149.574103822708,3,right,0.691736936569214,149.566808929443,604.469785680771,607.229785680771,1627424225.14834,1627424225.14977,1627424230.53368,1627424230.53575,1627424232.61779,1627424238.13652,1627424238.13821,1627424238.84407,1627424238.83678,1627424693.73975,0
37,4,1,4,8,7,4,c4_HowHand,1,both hands?,127,H_349.jpg,1627424086.50997,1627424086.52162,135.878370275497,5.36659955978394,141.26371263504,143.34782289505,0.3,149.883593788147,0.666914939880371,150.557318916321,1,left,0.651977062225342,150.550508728027,604.469785680771,607.229785680771,1627424225.14834,1627424225.14977,1627424230.53368,1627424230.53575,1627424232.61779,1627424239.15356,1627424239.15511,1627424239.82729,1627424239.82048,1627424693.73975,1
37,4,1,4,8,8,4,c4_HowHand,2,both hands?,125,H_627.jpg,1627424086.50997,1627424086.52162,135.878370275497,5.36659955978394,141.26371263504,143.34782289505,0.3,150.86729382515,1.21712112426758,152.091493835449,3,right,1.20029401779175,152.084414949417,604.469785680771,607.229785680771,1627424225.14834,1627424225.14977,1627424230.53368,1627424230.53575,1627424232.61779,1627424240.13726,1627424240.13889,1627424241.36146,1627424241.35438,1627424693.73975,0
37,4,1,4,9,1,2,c2_WhyHand,1,healthy?,18,H_438.jpg,1627424086.50997,1627424086.52162,152.151106109619,6.62380290031433,158.78691362381,160.88769744873,2.10078382492065,161.037754049301,1.10040998458862,162.140806903839,1,left,1.0775899887085,162.13816403389,604.469785680771,607.229785680771,1627424241.42107,1627424241.42726,1627424248.05688,1627424248.06103,1627424250.15766,1627424250.30772,1627424250.31152,1627424251.41077,1627424251.40813,1627424693.73975,1
37,4,1,4,9,2,2,c2_WhyHand,1,healthy?,23,H_364.jpg,1627424086.50997,1627424086.52162,152.151106109619,6.62380290031433,158.78691362381,160.88769744873,0.3,162.454948892593,1.00037288665771,163.457259883881,1,left,0.987998008728027,163.455321779251,604.469785680771,607.229785680771,1627424241.42107,1627424241.42726,1627424248.05688,1627424248.06103,1627424250.15766,1627424251.72492,1627424251.72797,1627424252.72723,1627424252.72529,1627424693.73975,1
37,4,1,4,9,3,2,c2_WhyHand,1,healthy?,17,H_362.jpg,1627424086.50997,1627424086.52162,152.151106109619,6.62380290031433,158.78691362381,160.88769744873,0.3,163.772106399536,0.900334596633911,164.674159994125,1,left,0.88477897644043,164.67244099617,604.469785680771,607.229785680771,1627424241.42107,1627424241.42726,1627424248.05688,1627424248.06103,1627424250.15766,1627424253.04207,1627424253.04468,1627424253.94413,1627424253.94241,1627424693.73975,1
37,4,1,4,9,4,2,c2_WhyHand,2,healthy?,24,H_019.jpg,1627424086.50997,1627424086.52162,152.151106109619,6.62380290031433,158.78691362381,160.88769744873,0.3,164.989226808548,0.866989612579346,165.857326021194,3,right,0.847875118255615,165.856216421127,604.469785680771,607.229785680771,1627424241.42107,1627424241.42726,1627424248.05688,1627424248.06103,1627424250.15766,1627424254.25919,1627424254.2613,1627424255.12729,1627424255.12618,1627424693.73975,0
37,4,1,4,9,5,2,c2_WhyHand,1,healthy?,19,H_167.jpg,1627424086.50997,1627424086.52162,152.151106109619,6.62380290031433,158.78691362381,160.88769744873,0.3,166.173001279831,0.750280618667603,166.924978961945,1,left,0.731285095214844,166.923281898499,604.469785680771,607.229785680771,1627424241.42107,1627424241.42726,1627424248.05688,1627424248.06103,1627424250.15766,1627424255.44297,1627424255.44479,1627424256.19495,1627424256.19325,1627424693.73975,1
37,4,1,4,9,6,2,c2_WhyHand,2,healthy?,20,H_007.jpg,1627424086.50997,1627424086.52162,152.151106109619,6.62380290031433,158.78691362381,160.88769744873,0.3,167.240065803528,0.96702766418457,168.208038797379,3,right,0.958688020706177,168.207093467712,604.469785680771,607.229785680771,1627424241.42107,1627424241.42726,1627424248.05688,1627424248.06103,1627424250.15766,1627424256.51003,1627424256.51182,1627424257.47801,1627424257.47706,1627424693.73975,0
37,4,1,4,9,7,2,c2_WhyHand,1,healthy?,21,H_627.jpg,1627424086.50997,1627424086.52162,152.151106109619,6.62380290031433,158.78691362381,160.88769744873,0.3,168.523879041672,0.833643436431885,169.35866402626,1,left,0.819963932037354,169.357522478104,604.469785680771,607.229785680771,1627424241.42107,1627424241.42726,1627424248.05688,1627424248.06103,1627424250.15766,1627424257.79385,1627424257.79533,1627424258.62863,1627424258.62749,1627424693.73975,1
37,4,1,4,9,8,2,c2_WhyHand,2,healthy?,22,H_130.jpg,1627424086.50997,1627424086.52162,152.151106109619,6.62380290031433,158.78691362381,160.88769744873,0.3,169.674307575226,0.850317001342773,170.526500930786,3,right,0.828436136245728,170.524624576569,604.469785680771,607.229785680771,1627424241.42107,1627424241.42726,1627424248.05688,1627424248.06103,1627424250.15766,1627424258.94427,1627424258.94583,1627424259.79647,1627424259.79459,1627424693.73975,0
37,4,1,4,10,1,4,c4_HowHand,1,pressing button?,82,H_126.jpg,1627424086.50997,1627424086.52162,170.591315259933,6.85964465141296,177.460544576645,179.56132768631,2.10078310966492,179.711383571625,0.800299167633057,180.513083925247,1,left,0.781433820724487,180.511682739258,604.469785680771,607.229785680771,1627424259.86128,1627424259.86225,1627424266.73051,1627424266.73213,1627424268.83129,1627424268.98135,1627424268.9829,1627424269.78305,1627424269.78165,1627424693.73975,1
37,4,1,4,10,2,4,c4_HowHand,2,pressing button?,85,H_130.jpg,1627424086.50997,1627424086.52162,170.591315259933,6.85964465141296,177.460544576645,179.56132768631,0.3,180.828466882706,0.683587551116943,181.513411989212,3,right,0.668731927871704,181.512054433823,604.469785680771,607.229785680771,1627424259.86128,1627424259.86225,1627424266.73051,1627424266.73213,1627424268.83129,1627424270.09843,1627424270.09998,1627424270.78338,1627424270.78202,1627424693.73975,0
37,4,1,4,10,3,4,c4_HowHand,1,pressing button?,84,H_483.jpg,1627424086.50997,1627424086.52162,170.591315259933,6.85964465141296,177.460544576645,179.56132768631,0.3,181.828840007782,0.683587312698364,182.513844957352,1,left,0.662919044494629,182.51242732048,604.469785680771,607.229785680771,1627424259.86128,1627424259.86225,1627424266.73051,1627424266.73213,1627424268.83129,1627424271.09881,1627424271.10072,1627424271.78381,1627424271.78239,1627424693.73975,1
37,4,1,4,10,4,4,c4_HowHand,2,pressing button?,87,H_024.jpg,1627424086.50997,1627424086.52162,170.591315259933,6.85964465141296,177.460544576645,179.56132768631,0.3,182.82921289444,0.666915416717529,183.508037796021,3,right,0.657598972320557,183.496128311157,604.469785680771,607.229785680771,1627424259.86128,1627424259.86225,1627424266.73051,1627424266.73213,1627424268.83129,1627424272.09918,1627424272.10083,1627424272.778,1627424272.7661,1627424693.73975,0
37,4,1,4,10,5,4,c4_HowHand,1,pressing button?,86,H_332.jpg,1627424086.50997,1627424086.52162,170.591315259933,6.85964465141296,177.460544576645,179.56132768631,0.3,183.812914123535,0.650241136550903,184.464627017975,1,left,0.628463983535767,184.463155260086,604.469785680771,607.229785680771,1627424259.86128,1627424259.86225,1627424266.73051,1627424266.73213,1627424268.83129,1627424273.08288,1627424273.08419,1627424273.73459,1627424273.73312,1627424693.73975,1
37,4,1,4,10,6,4,c4_HowHand,1,pressing button?,88,H_019.jpg,1627424086.50997,1627424086.52162,170.591315259933,6.85964465141296,177.460544576645,179.56132768631,0.3,184.779941549301,0.850316047668457,185.631687870026,1,left,0.835855007171631,185.63025759697,604.469785680771,607.229785680771,1627424259.86128,1627424259.86225,1627424266.73051,1627424266.73213,1627424268.83129,1627424274.04991,1627424274.05165,1627424274.90165,1627424274.90022,1627424693.73975,1
37,4,1,4,10,7,4,c4_HowHand,2,pressing button?,81,H_261.jpg,1627424086.50997,1627424086.52162,170.591315259933,6.85964465141296,177.460544576645,179.56132768631,0.3,185.947042694092,0.700260400772095,186.657956829071,3,right,0.686465978622437,186.647303094864,604.469785680771,607.229785680771,1627424259.86128,1627424259.86225,1627424266.73051,1627424266.73213,1627424268.83129,1627424275.21701,1627424275.21874,1627424275.92792,1627424275.91727,1627424693.73975,0
37,4,1,4,10,8,4,c4_HowHand,1,pressing button?,83,H_502.jpg,1627424086.50997,1627424086.52162,170.591315259933,6.85964465141296,177.460544576645,179.56132768631,0.3,186.964088430405,0.583551168441772,187.557355871201,1,left,0.576737880706787,187.547639598846,604.469785680771,607.229785680771,1627424259.86128,1627424259.86225,1627424266.73051,1627424266.73213,1627424268.83129,1627424276.23406,1627424276.23538,1627424276.82732,1627424276.81761,1627424693.73975,1
37,4,1,4,11,1,3,c3_HowFace,1,looking at camera?,60,F_618.jpg,1627424086.50997,1627424086.52162,187.631004323959,11.2999436855316,198.935219755173,201.036002388,2.10078263282776,201.186058750153,0.533532381057739,201.720641841888,1,left,0.509459018707275,201.71959113121,604.469785680771,607.229785680771,1627424276.90097,1627424276.90266,1627424288.20519,1627424288.21126,1627424290.30597,1627424290.45603,1627424290.46132,1627424290.99061,1627424290.98956,1627424693.73975,1
37,4,1,4,11,2,3,c3_HowFace,2,looking at camera?,58,F_754.jpg,1627424086.50997,1627424086.52162,187.631004323959,11.2999436855316,198.935219755173,201.036002388,0.3,202.036375513077,0.750280380249023,202.791523923874,3,right,0.734562873840332,202.786655893326,604.469785680771,607.229785680771,1627424276.90097,1627424276.90266,1627424288.20519,1627424288.21126,1627424290.30597,1627424291.30634,1627424291.31106,1627424292.06149,1627424292.05662,1627424693.73975,0
37,4,1,4,11,3,3,c3_HowFace,1,looking at camera?,59,F_129.jpg,1627424086.50997,1627424086.52162,187.631004323959,11.2999436855316,198.935219755173,201.036002388,0.3,203.103440990448,0.533531665802002,203.640701999664,1,left,0.513921022415161,203.63697265625,604.469785680771,607.229785680771,1627424276.90097,1627424276.90266,1627424288.20519,1627424288.21126,1627424290.30597,1627424292.37341,1627424292.37774,1627424292.91067,1627424292.90694,1627424693.73975,1
37,4,1,4,11,4,3,c3_HowFace,1,looking at camera?,62,F_598.jpg,1627424086.50997,1627424086.52162,187.631004323959,11.2999436855316,198.935219755173,201.036002388,0.3,203.953757991791,0.683588266372681,204.641178836823,1,left,0.667067050933838,204.637346258163,604.469785680771,607.229785680771,1627424276.90097,1627424276.90266,1627424288.20519,1627424288.21126,1627424290.30597,1627424293.22373,1627424293.22803,1627424293.91115,1627424293.90731,1627424693.73975,1
37,4,1,4,11,5,3,c3_HowFace,1,looking at camera?,64,F_128.jpg,1627424086.50997,1627424086.52162,187.631004323959,11.2999436855316,198.935219755173,201.036002388,0.3,204.954131593704,0.683587551116943,205.640772809982,1,left,0.666332006454468,205.637719144821,604.469785680771,607.229785680771,1627424276.90097,1627424276.90266,1627424288.20519,1627424288.21126,1627424290.30597,1627424294.2241,1627424294.22785,1627424294.91074,1627424294.90769,1627424693.73975,1
37,4,1,4,11,6,3,c3_HowFace,2,looking at camera?,57,F_582.jpg,1627424086.50997,1627424086.52162,187.631004323959,11.2999436855316,198.935219755173,201.036002388,0.3,205.954503526688,0.666915416717529,206.624683847427,1,left,0.645537137985229,206.621418943405,604.469785680771,607.229785680771,1627424276.90097,1627424276.90266,1627424288.20519,1627424288.21126,1627424290.30597,1627424295.22447,1627424295.22806,1627424295.89465,1627424295.89139,1627424693.73975,0
37,4,1,4,11,7,3,c3_HowFace,1,looking at camera?,61,F_774.jpg,1627424086.50997,1627424086.52162,187.631004323959,11.2999436855316,198.935219755173,201.036002388,0.3,206.938203802109,0.666915893554688,207.608060827255,1,left,0.64805006980896,207.605119695663,604.469785680771,607.229785680771,1627424276.90097,1627424276.90266,1627424288.20519,1627424288.21126,1627424290.30597,1627424296.20817,1627424296.21115,1627424296.87803,1627424296.87509,1627424693.73975,1
37,4,1,4,11,8,3,c3_HowFace,2,looking at camera?,63,F_743.jpg,1627424086.50997,1627424086.52162,187.631004323959,11.2999436855316,198.935219755173,201.036002388,0.3,207.921904554367,0.850316286087036,208.773871889114,3,right,0.840341091156006,208.772220840454,604.469785680771,607.229785680771,1627424276.90097,1627424276.90266,1627424288.20519,1627424288.21126,1627424290.30597,1627424297.19187,1627424297.19465,1627424298.04384,1627424298.04219,1627424693.73975,0
37,4,1,4,12,1,1,c1_WhyFace,1,self-doubt?,25,F_798.jpg,1627424086.50997,1627424086.52162,208.838912000656,8.8820629119873,217.725561132431,219.82634352684,2.10078239440918,219.976400127411,0.883662700653076,220.861440887451,1,left,0.854560136795044,220.860062828064,604.469785680771,607.229785680771,1627424298.10888,1627424298.1112,1627424306.99553,1627424307.01139,1627424309.09631,1627424309.24637,1627424309.26165,1627424310.13141,1627424310.13003,1627424693.73975,1
37,4,1,4,12,2,1,c1_WhyFace,2,self-doubt?,27,F_086.jpg,1627424086.50997,1627424086.52162,208.838912000656,8.8820629119873,217.725561132431,219.82634352684,0.3,221.176846256256,1.06706500053406,222.245324840546,3,right,1.05307197570801,222.24391125679,604.469785680771,607.229785680771,1627424298.10888,1627424298.1112,1627424306.99553,1627424307.01139,1627424309.09631,1627424310.44681,1627424310.44865,1627424311.51529,1627424311.51388,1627424693.73975,0
37,4,1,4,12,3,1,c1_WhyFace,1,self-doubt?,29,F_544.jpg,1627424086.50997,1627424086.52162,208.838912000656,8.8820629119873,217.725561132431,219.82634352684,0.3,222.56069683075,0.61689567565918,223.179037799835,1,left,0.597825050354004,223.177592506409,604.469785680771,607.229785680771,1627424298.10888,1627424298.1112,1627424306.99553,1627424307.01139,1627424309.09631,1627424311.83066,1627424311.83262,1627424312.449,1627424312.44756,1627424693.73975,1
37,4,1,4,12,4,1,c1_WhyFace,1,self-doubt?,28,F_754.jpg,1627424086.50997,1627424086.52162,208.838912000656,8.8820629119873,217.725561132431,219.82634352684,0.3,223.494379034042,0.616895914077759,224.124639024735,1,left,0.605226993560791,224.11127494812,604.469785680771,607.229785680771,1627424298.10888,1627424298.1112,1627424306.99553,1627424307.01139,1627424309.09631,1627424312.76435,1627424312.7659,1627424313.39461,1627424313.38124,1627424693.73975,1
37,4,1,4,12,5,1,c1_WhyFace,1,self-doubt?,26,F_111.jpg,1627424086.50997,1627424086.52162,208.838912000656,8.8820629119873,217.725561132431,219.82634352684,0.3,224.428059806824,0.650243043899536,225.079334964752,1,left,0.630944013595581,225.078302850723,604.469785680771,607.229785680771,1627424298.10888,1627424298.1112,1627424306.99553,1627424307.01139,1627424309.09631,1627424313.69803,1627424313.69981,1627424314.3493,1627424314.34827,1627424693.73975,1
37,4,1,4,12,6,1,c1_WhyFace,1,self-doubt?,30,F_584.jpg,1627424086.50997,1627424086.52162,208.838912000656,8.8820629119873,217.725561132431,219.82634352684,0.3,225.395087471008,0.733606576919556,226.130429019928,1,left,0.711457014083862,226.128694047928,604.469785680771,607.229785680771,1627424298.10888,1627424298.1112,1627424306.99553,1627424307.01139,1627424309.09631,1627424314.66505,1627424314.66696,1627424315.4004,1627424315.39866,1627424693.73975,1
37,4,1,4,12,7,1,c1_WhyFace,2,self-doubt?,32,F_128.jpg,1627424086.50997,1627424086.52162,208.838912000656,8.8820629119873,217.725561132431,219.82634352684,0.3,226.445478668213,1.56725120544434,228.013813962936,3,right,1.55077219009399,228.012729873657,604.469785680771,607.229785680771,1627424298.10888,1627424298.1112,1627424306.99553,1627424307.01139,1627424309.09631,1627424315.71545,1627424315.71749,1627424317.28378,1627424317.2827,1627424693.73975,0
37,4,1,4,12,8,1,c1_WhyFace,2,self-doubt?,31,F_774.jpg,1627424086.50997,1627424086.52162,208.838912000656,8.8820629119873,217.725561132431,219.82634352684,0.3,228.329514017105,1.08373785018921,229.414376964569,3,right,1.06148386001587,229.413251867294,604.469785680771,607.229785680771,1627424298.10888,1627424298.1112,1627424306.99553,1627424307.01139,1627424309.09631,1627424317.59948,1627424317.60147,1627424318.68434,1627424318.68322,1627424693.73975,0
37,4,1,4,13,1,2,c2_WhyHand,1,self-protection?,91,H_581.jpg,1627424086.50997,1627424086.52162,229.479943504334,5.77105045318604,235.265434732437,237.366219511032,2.10078477859497,237.516273727417,0.883663415908813,238.401398887634,1,left,0.864297151565552,238.399937143326,604.469785680771,607.229785680771,1627424318.74991,1627424318.76131,1627424324.5354,1627424324.53726,1627424326.63619,1627424326.78624,1627424326.78843,1627424327.67137,1627424327.6699,1627424693.73975,1
37,4,1,4,13,2,2,c2_WhyHand,1,self-protection?,89,H_443.jpg,1627424086.50997,1627424086.52162,229.479943504334,5.77105045318604,235.265434732437,237.366219511032,0.3,238.716721763611,0.683587551116943,239.407979955673,1,left,0.667974948883057,239.400309314728,604.469785680771,607.229785680771,1627424318.74991,1627424318.76131,1627424324.5354,1627424324.53726,1627424326.63619,1627424327.98669,1627424327.98841,1627424328.67795,1627424328.67028,1627424693.73975,1
37,4,1,4,13,3,2,c2_WhyHand,2,self-protection?,95,H_332.jpg,1627424086.50997,1627424086.52162,229.479943504334,5.77105045318604,235.265434732437,237.366219511032,0.3,239.717094888687,0.750279188156128,240.474143972397,3,right,0.739687919616699,240.467374076843,604.469785680771,607.229785680771,1627424318.74991,1627424318.76131,1627424324.5354,1627424324.53726,1627424326.63619,1627424328.98706,1627424328.98885,1627424329.74411,1627424329.73734,1627424693.73975,0
37,4,1,4,13,4,2,c2_WhyHand,1,self-protection?,96,H_027.jpg,1627424086.50997,1627424086.52162,229.479943504334,5.77105045318604,235.265434732437,237.366219511032,0.3,240.784159412384,1.0670645236969,241.85837887764,1,left,1.05002379417419,241.851223936081,604.469785680771,607.229785680771,1627424318.74991,1627424318.76131,1627424324.5354,1627424324.53726,1627424326.63619,1627424330.05413,1627424330.05539,1627424331.12835,1627424331.12119,1627424693.73975,1
37,4,1,4,13,5,2,c2_WhyHand,2,self-protection?,92,H_532.jpg,1627424086.50997,1627424086.52162,229.479943504334,5.77105045318604,235.265434732437,237.366219511032,0.3,242.168008556366,0.900336742401123,243.074133863449,3,right,0.888452768325806,243.068345298767,604.469785680771,607.229785680771,1627424318.74991,1627424318.76131,1627424324.5354,1627424324.53726,1627424326.63619,1627424331.43798,1627424331.43973,1627424332.3441,1627424332.33831,1627424693.73975,0
37,4,1,4,13,6,2,c2_WhyHand,1,self-protection?,94,H_189.jpg,1627424086.50997,1627424086.52162,229.479943504334,5.77105045318604,235.265434732437,237.366219511032,0.3,243.385129442215,0.866989374160767,244.257840862274,1,left,0.858253955841064,244.252118816376,604.469785680771,607.229785680771,1627424318.74991,1627424318.76131,1627424324.5354,1627424324.53726,1627424326.63619,1627424332.6551,1627424332.657,1627424333.52781,1627424333.52209,1627424693.73975,1
37,4,1,4,13,7,2,c2_WhyHand,2,self-protection?,90,H_006.jpg,1627424086.50997,1627424086.52162,229.479943504334,5.77105045318604,235.265434732437,237.366219511032,0.3,244.568903675079,0.917008638381958,245.490738859177,3,right,0.904345035552979,245.485912313461,604.469785680771,607.229785680771,1627424318.74991,1627424318.76131,1627424324.5354,1627424324.53726,1627424326.63619,1627424333.83887,1627424333.84081,1627424334.76071,1627424334.75588,1627424693.73975,0
37,4,1,4,13,8,2,c2_WhyHand,1,self-protection?,93,H_038.jpg,1627424086.50997,1627424086.52162,229.479943504334,5.77105045318604,235.265434732437,237.366219511032,0.3,245.802698364258,1.20044708251953,247.007367839813,3,right,1.16793584823608,247.003145446777,604.469785680771,607.229785680771,1627424318.74991,1627424318.76131,1627424324.5354,1627424324.53726,1627424326.63619,1627424335.07267,1627424335.07442,1627424336.27733,1627424336.27311,1627424693.73975,0
37,4,1,4,14,1,4,c4_HowHand,1,lifting?,50,H_443.jpg,1627424086.50997,1627424086.52162,247.069836368561,6.05605959892273,253.138766517639,255.239550580978,2.10078406333923,255.389605512619,0.917008876800537,256.308251848221,3,right,0.898971080780029,256.30661438942,604.469785680771,607.229785680771,1627424336.3398,1627424336.34467,1627424342.40873,1627424342.41137,1627424344.50952,1627424344.65957,1627424344.66195,1627424345.57822,1627424345.57658,1627424693.73975,0
37,4,1,4,14,2,4,c4_HowHand,2,lifting?,51,H_038.jpg,1627424086.50997,1627424086.52162,247.069836368561,6.05605959892273,253.138766517639,255.239550580978,0.3,256.623399486542,0.816970825195312,257.441494932175,3,right,0.798474073410034,257.440370311737,604.469785680771,607.229785680771,1627424336.3398,1627424336.34467,1627424342.40873,1627424342.41137,1627424344.50952,1627424345.89337,1627424345.89508,1627424346.71146,1627424346.71034,1627424693.73975,0
37,4,1,4,14,3,4,c4_HowHand,1,lifting?,56,H_136.jpg,1627424086.50997,1627424086.52162,247.069836368561,6.05605959892273,253.138766517639,255.239550580978,0.3,257.757155885696,1.2838122844696,259.04212187767,1,left,1.2630729675293,259.040968170166,604.469785680771,607.229785680771,1627424336.3398,1627424336.34467,1627424342.40873,1627424342.41137,1627424344.50952,1627424347.02712,1627424347.02874,1627424348.31209,1627424348.31094,1627424693.73975,1
37,4,1,4,14,4,4,c4_HowHand,2,lifting?,55,H_012.jpg,1627424086.50997,1627424086.52162,247.069836368561,6.05605959892273,253.138766517639,255.239550580978,0.3,259.357752790451,1.15042948722839,260.509717931747,3,right,1.12903094291687,260.508182277679,604.469785680771,607.229785680771,1627424336.3398,1627424336.34467,1627424342.40873,1627424342.41137,1627424344.50952,1627424348.62772,1627424348.62881,1627424349.77969,1627424349.77815,1627424693.73975,0
37,4,1,4,14,5,4,c4_HowHand,1,lifting?,49,H_362.jpg,1627424086.50997,1627424086.52162,247.069836368561,6.05605959892273,253.138766517639,255.239550580978,0.3,260.824966421127,0.7669517993927,261.593307008743,1,left,0.756422996520996,261.59191822052,604.469785680771,607.229785680771,1627424336.3398,1627424336.34467,1627424342.40873,1627424342.41137,1627424344.50952,1627424350.09493,1627424350.09703,1627424350.86327,1627424350.86189,1627424693.73975,1
37,4,1,4,14,6,4,c4_HowHand,1,lifting?,52,H_189.jpg,1627424086.50997,1627424086.52162,247.069836368561,6.05605959892273,253.138766517639,255.239550580978,0.3,261.908703794479,1.56725096702576,263.477095832825,3,right,1.54963207244873,263.475954761505,604.469785680771,607.229785680771,1627424336.3398,1627424336.34467,1627424342.40873,1627424342.41137,1627424344.50952,1627424351.17867,1627424351.18073,1627424352.74706,1627424352.74592,1627424693.73975,0
37,4,1,4,14,7,4,c4_HowHand,1,lifting?,54,H_170.jpg,1627424086.50997,1627424086.52162,247.069836368561,6.05605959892273,253.138766517639,255.239550580978,0.3,263.792740097046,1.71730637550354,265.59071182251,3,right,1.77534694671631,265.510046472549,604.469785680771,607.229785680771,1627424336.3398,1627424336.34467,1627424342.40873,1627424342.41137,1627424344.50952,1627424353.06271,1627424353.06475,1627424354.86068,1627424354.78001,1627424693.73975,0
37,4,1,4,14,8,4,c4_HowHand,2,lifting?,53,H_077.jpg,1627424086.50997,1627424086.52162,247.069836368561,6.05605959892273,253.138766517639,255.239550580978,0.3,265.826832046509,0.900335788726807,266.72859500885,3,right,0.886369228363037,266.727167835236,604.469785680771,607.229785680771,1627424336.3398,1627424336.34467,1627424342.40873,1627424342.41137,1627424344.50952,1627424355.0968,1627424355.09845,1627424355.99856,1627424355.99713,1627424693.73975,0
37,4,1,4,15,1,3,c3_HowFace,1,looking to side?,67,F_716.jpg,1627424086.50997,1627424086.52162,266.810531845093,4.19035696983337,271.012099018097,273.112881650925,2.10078263282776,273.262938489914,0.733606100082397,273.997601976395,1,left,0.718852996826172,273.996544589996,604.469785680771,607.229785680771,1627424356.0805,1627424356.08221,1627424360.28207,1627424360.28382,1627424362.38285,1627424362.53291,1627424362.53464,1627424363.26757,1627424363.26651,1627424693.73975,1
37,4,1,4,15,2,3,c3_HowFace,2,looking to side?,65,F_798.jpg,1627424086.50997,1627424086.52162,266.810531845093,4.19035696983337,271.012099018097,273.112881650925,0.3,274.3133294487,0.783626556396484,275.098170986176,3,right,0.761607885360718,275.096956005096,604.469785680771,607.229785680771,1627424356.0805,1627424356.08221,1627424360.28207,1627424360.28382,1627424362.38285,1627424363.5833,1627424363.58529,1627424364.36814,1627424364.36692,1627424693.73975,0
37,4,1,4,15,3,3,c3_HowFace,1,looking to side?,68,F_760.jpg,1627424086.50997,1627424086.52162,266.810531845093,4.19035696983337,271.012099018097,273.112881650925,0.3,275.413739671707,0.917008876800537,276.331845989227,1,left,0.902280807495117,276.330748548508,604.469785680771,607.229785680771,1627424356.0805,1627424356.08221,1627424360.28207,1627424360.28382,1627424362.38285,1627424364.68371,1627424364.68546,1627424365.60181,1627424365.60072,1627424693.73975,1
37,4,1,4,15,4,3,c3_HowFace,1,looking to side?,69,F_110.jpg,1627424086.50997,1627424086.52162,266.810531845093,4.19035696983337,271.012099018097,273.112881650925,0.3,276.64753364563,0.900335311889648,277.548998823166,1,left,0.885335206985474,277.54786895752,604.469785680771,607.229785680771,1627424356.0805,1627424356.08221,1627424360.28207,1627424360.28382,1627424362.38285,1627424365.9175,1627424365.91893,1627424366.81897,1627424366.81784,1627424693.73975,1
37,4,1,4,15,5,3,c3_HowFace,2,looking to side?,70,F_779.jpg,1627424086.50997,1627424086.52162,266.810531845093,4.19035696983337,271.012099018097,273.112881650925,0.3,277.864653816223,0.950354814529419,278.824088802338,1,left,0.93811297416687,278.815008630753,604.469785680771,607.229785680771,1627424356.0805,1627424356.08221,1627424360.28207,1627424360.28382,1627424362.38285,1627424367.13462,1627424367.13632,1627424368.09406,1627424368.08498,1627424693.73975,0
37,4,1,4,15,6,3,c3_HowFace,1,looking to side?,72,F_590.jpg,1627424086.50997,1627424086.52162,266.810531845093,4.19035696983337,271.012099018097,273.112881650925,0.3,279.131792535782,0.666916370391846,279.799810876846,1,left,0.647345066070557,279.798708906174,604.469785680771,607.229785680771,1627424356.0805,1627424356.08221,1627424360.28207,1627424360.28382,1627424362.38285,1627424368.40176,1627424368.40311,1627424369.06978,1627424369.06868,1627424693.73975,1
37,4,1,4,15,7,3,c3_HowFace,2,looking to side?,66,F_111.jpg,1627424086.50997,1627424086.52162,266.810531845093,4.19035696983337,271.012099018097,273.112881650925,0.3,280.115494003296,0.7669517993927,280.890672912598,3,right,0.75584888458252,280.882445802689,604.469785680771,607.229785680771,1627424356.0805,1627424356.08221,1627424360.28207,1627424360.28382,1627424362.38285,1627424369.38546,1627424369.38741,1627424370.16064,1627424370.15241,1627424693.73975,0
37,4,1,4,15,8,3,c3_HowFace,1,looking to side?,71,F_433.jpg,1627424086.50997,1627424086.52162,266.810531845093,4.19035696983337,271.012099018097,273.112881650925,0.3,281.199230422974,0.566878318786621,281.774142971039,1,left,0.558035135269165,281.76610874176,604.469785680771,607.229785680771,1627424356.0805,1627424356.08221,1627424360.28207,1627424360.28382,1627424362.38285,1627424370.4692,1627424370.47081,1627424371.04411,1627424371.03608,1627424693.73975,1
37,4,1,4,16,1,1,c1_WhyFace,1,proud?,101,F_083.jpg,1627424086.50997,1627424086.52162,281.849473705292,6.68151617050171,288.535299768448,290.636084070206,2.10078430175781,290.786139955521,1.067063331604,291.857409944534,1,left,1.04634284973145,291.853203287125,604.469785680771,607.229785680771,1627424371.11944,1627424371.12122,1627424377.80527,1627424377.81146,1627424379.90605,1627424380.05611,1627424380.06153,1627424381.12738,1627424381.12317,1627424693.73975,1
37,4,1,4,16,2,1,c1_WhyFace,1,proud?,97,F_582.jpg,1627424086.50997,1627424086.52162,281.849473705292,6.68151617050171,288.535299768448,290.636084070206,0.3,292.169988861084,0.650241613388062,292.824100008011,1,left,0.636018991470337,292.820230474472,604.469785680771,607.229785680771,1627424371.11944,1627424371.12122,1627424377.80527,1627424377.81146,1627424379.90605,1627424381.43996,1627424381.44418,1627424382.09407,1627424382.0902,1627424693.73975,1
37,4,1,4,16,3,1,c1_WhyFace,1,proud?,103,F_618.jpg,1627424086.50997,1627424086.52162,281.849473705292,6.68151617050171,288.535299768448,290.636084070206,0.3,293.137016763687,1.00037360191345,294.140735855103,1,left,0.98344087600708,294.137390365601,604.469785680771,607.229785680771,1627424371.11944,1627424371.12122,1627424377.80527,1627424377.81146,1627424379.90605,1627424382.40698,1627424382.41137,1627424383.4107,1627424383.40736,1627424693.73975,1
37,4,1,4,16,4,1,c1_WhyFace,2,proud?,100,F_776.jpg,1627424086.50997,1627424086.52162,281.849473705292,6.68151617050171,288.535299768448,290.636084070206,0.3,294.45417427063,0.866989850997925,295.322300901413,3,right,0.842996120452881,295.321164121628,604.469785680771,607.229785680771,1627424371.11944,1627424371.12122,1627424377.80527,1627424377.81146,1627424379.90605,1627424383.72414,1627424383.72768,1627424384.59227,1627424384.59113,1627424693.73975,0
37,4,1,4,16,5,1,c1_WhyFace,1,proud?,104,F_598.jpg,1627424086.50997,1627424086.52162,281.849473705292,6.68151617050171,288.535299768448,290.636084070206,0.3,295.637948741913,1.23379325866699,296.874116888046,3,right,1.21225595474243,296.87174200058,604.469785680771,607.229785680771,1627424371.11944,1627424371.12122,1627424377.80527,1627424377.81146,1627424379.90605,1627424384.90792,1627424384.91119,1627424386.14408,1627424386.14171,1627424693.73975,0
37,4,1,4,16,6,1,c1_WhyFace,2,proud?,102,F_760.jpg,1627424086.50997,1627424086.52162,281.849473705292,6.68151617050171,288.535299768448,290.636084070206,0.3,297.188526859283,1.38384985923767,298.574633827209,3,right,1.36094212532043,298.572376718521,604.469785680771,607.229785680771,1627424371.11944,1627424371.12122,1627424377.80527,1627424377.81146,1627424379.90605,1627424386.45849,1627424386.46168,1627424387.8446,1627424387.84234,1627424693.73975,0
37,4,1,4,16,7,1,c1_WhyFace,2,proud?,98,F_412.jpg,1627424086.50997,1627424086.52162,281.849473705292,6.68151617050171,288.535299768448,290.636084070206,0.3,298.889161338806,1.08373737335205,299.974159946442,3,right,1.06551885604858,299.972898712158,604.469785680771,607.229785680771,1627424371.11944,1627424371.12122,1627424377.80527,1627424377.81146,1627424379.90605,1627424388.15913,1627424388.16129,1627424389.24413,1627424389.24287,1627424693.73975,0
37,4,1,4,16,8,1,c1_WhyFace,1,proud?,99,F_695.jpg,1627424086.50997,1627424086.52162,281.849473705292,6.68151617050171,288.535299768448,290.636084070206,0.3,300.28968380928,1.1837739944458,301.474395980835,1,left,1.17567610740662,301.473457803726,604.469785680771,607.229785680771,1627424371.11944,1627424371.12122,1627424377.80527,1627424377.81146,1627424379.90605,1627424389.55965,1627424389.5615,1627424390.74436,1627424390.74342,1627424693.73975,1
37,4,1,4,17,1,3,c3_HowFace,1,smiling?,115,F_695.jpg,1627424086.50997,1627424086.52162,301.540149679184,4.78089118003845,306.325268259048,308.426050653458,2.10078239440918,308.57610701561,0.650242805480957,309.227893819809,1,left,0.616896152496338,309.226349821091,604.469785680771,607.229785680771,1627424390.81012,1627424390.81104,1627424395.59524,1627424395.61118,1627424397.69602,1627424397.84607,1627424397.86175,1627424398.49786,1627424398.49632,1627424693.73975,1
37,4,1,4,17,2,3,c3_HowFace,2,smiling?,114,F_412.jpg,1627424086.50997,1627424086.52162,301.540149679184,4.78089118003845,306.325268259048,308.426050653458,0.3,309.543134441376,0.666915416717529,310.211755981445,3,right,0.644200086593628,310.210049858093,604.469785680771,607.229785680771,1627424390.81012,1627424390.81104,1627424395.59524,1627424395.61118,1627424397.69602,1627424398.8131,1627424398.81485,1627424399.48172,1627424399.48002,1627424693.73975,0
37,4,1,4,17,3,3,c3_HowFace,1,smiling?,117,F_593.jpg,1627424086.50997,1627424086.52162,301.540149679184,4.78089118003845,306.325268259048,308.426050653458,0.3,310.526834955215,0.733607053756714,311.274791946411,1,left,0.725664854049683,311.260442008972,604.469785680771,607.229785680771,1627424390.81012,1627424390.81104,1627424395.59524,1627424395.61118,1627424397.69602,1627424399.7968,1627424399.79869,1627424400.54476,1627424400.53041,1627424693.73975,1
37,4,1,4,17,4,3,c3_HowFace,1,smiling?,119,F_139.jpg,1627424086.50997,1627424086.52162,301.540149679184,4.78089118003845,306.325268259048,308.426050653458,0.3,311.577224960327,0.633570194244385,312.211849918365,1,left,0.617337942123413,312.210795154572,604.469785680771,607.229785680771,1627424390.81012,1627424390.81104,1627424395.59524,1627424395.61118,1627424397.69602,1627424400.84719,1627424400.84882,1627424401.48182,1627424401.48076,1627424693.73975,1
37,4,1,4,17,5,3,c3_HowFace,2,smiling?,113,F_712.jpg,1627424086.50997,1627424086.52162,301.540149679184,4.78089118003845,306.325268259048,308.426050653458,0.3,312.527580966949,0.666914701461792,313.195858945847,3,right,0.653249025344849,313.194495668411,604.469785680771,607.229785680771,1627424390.81012,1627424390.81104,1627424395.59524,1627424395.61118,1627424397.69602,1627424401.79755,1627424401.79928,1627424402.46583,1627424402.46446,1627424693.73975,0
37,4,1,4,17,6,3,c3_HowFace,1,smiling?,118,F_759.jpg,1627424086.50997,1627424086.52162,301.540149679184,4.78089118003845,306.325268259048,308.426050653458,0.3,313.511281003952,0.566877841949463,314.079927911758,1,left,0.544378995895386,314.078158845901,604.469785680771,607.229785680771,1627424390.81012,1627424390.81104,1627424395.59524,1627424395.61118,1627424397.69602,1627424402.78125,1627424402.78274,1627424403.3499,1627424403.34813,1627424693.73975,1
37,4,1,4,17,7,3,c3_HowFace,2,smiling?,120,F_758.jpg,1627424086.50997,1627424086.52162,301.540149679184,4.78089118003845,306.325268259048,308.426050653458,0.3,314.394943466187,0.716933965682983,315.113617887497,3,right,0.695466041564941,315.11187743187,604.469785680771,607.229785680771,1627424390.81012,1627424390.81104,1627424395.59524,1627424395.61118,1627424397.69602,1627424403.66491,1627424403.66666,1627424404.38358,1627424404.38184,1627424693.73975,0
37,4,1,4,17,8,3,c3_HowFace,1,smiling?,116,F_083.jpg,1627424086.50997,1627424086.52162,301.540149679184,4.78089118003845,306.325268259048,308.426050653458,0.3,315.428662528992,0.600223779678345,316.041522016525,1,left,0.59332799911499,316.02888630867,604.469785680771,607.229785680771,1627424390.81012,1627424390.81104,1627424395.59524,1627424395.61118,1627424397.69602,1627424404.69863,1627424404.70039,1627424405.31149,1627424405.29885,1627424693.73975,1
37,4,1,4,18,1,1,c1_WhyFace,1,admiring?,4,F_779.jpg,1627424086.50997,1627424086.52162,316.112251033783,9.26273798942566,325.382374515533,327.483157625198,2.10078310966492,327.633213748932,1.25046610832214,328.891084899902,1,left,1.22941303253174,328.883679857254,604.469785680771,607.229785680771,1627424405.38222,1627424405.38365,1627424414.65234,1627424414.66155,1627424416.75312,1627424416.90318,1627424416.91144,1627424418.16105,1627424418.15365,1627424693.73975,1
37,4,1,4,18,2,1,c1_WhyFace,2,admiring?,3,F_110.jpg,1627424086.50997,1627424086.52162,316.112251033783,9.26273798942566,325.382374515533,327.483157625198,0.3,329.200464715958,0.783626079559326,329.991062870026,3,right,0.763586044311523,329.984090795517,604.469785680771,607.229785680771,1627424405.38222,1627424405.38365,1627424414.65234,1627424414.66155,1627424416.75312,1627424418.47043,1627424418.47256,1627424419.26103,1627424419.25406,1627424693.73975,0
37,4,1,4,18,3,1,c1_WhyFace,1,admiring?,8,F_590.jpg,1627424086.50997,1627424086.52162,316.112251033783,9.26273798942566,325.382374515533,327.483157625198,0.3,330.300875654221,0.633569002151489,330.940709819794,1,left,0.62291407585144,330.934444656372,604.469785680771,607.229785680771,1627424405.38222,1627424405.38365,1627424414.65234,1627424414.66155,1627424416.75312,1627424419.57084,1627424419.57268,1627424420.21068,1627424420.20441,1627424693.73975,1
37,4,1,4,18,4,1,c1_WhyFace,1,admiring?,7,F_648.jpg,1627424086.50997,1627424086.52162,316.112251033783,9.26273798942566,325.382374515533,327.483157625198,0.3,331.251229276657,0.666915416717529,331.923949947357,1,left,0.659745931625366,331.918144693375,604.469785680771,607.229785680771,1627424405.38222,1627424405.38365,1627424414.65234,1627424414.66155,1627424416.75312,1627424420.5212,1627424420.52294,1627424421.19392,1627424421.18811,1627424693.73975,1
37,4,1,4,18,5,1,c1_WhyFace,1,admiring?,5,F_759.jpg,1627424086.50997,1627424086.52162,316.112251033783,9.26273798942566,325.382374515533,327.483157625198,0.3,332.234930028915,0.583550453186035,332.82411192894,1,left,0.572474956512451,332.818480482101,604.469785680771,607.229785680771,1627424405.38222,1627424405.38365,1627424414.65234,1627424414.66155,1627424416.75312,1627424421.5049,1627424421.50672,1627424422.09408,1627424422.08845,1627424693.73975,1
37,4,1,4,18,6,1,c1_WhyFace,2,admiring?,2,F_129.jpg,1627424086.50997,1627424086.52162,316.112251033783,9.26273798942566,325.382374515533,327.483157625198,0.3,333.135265102386,1.71730756759644,334.891266813278,3,right,1.7309100151062,334.852572669983,604.469785680771,607.229785680771,1627424405.38222,1627424405.38365,1627424414.65234,1627424414.66155,1627424416.75312,1627424422.40523,1627424422.40695,1627424424.16123,1627424424.12254,1627424693.73975,0
37,4,1,4,18,7,1,c1_WhyFace,1,admiring?,1,F_593.jpg,1627424086.50997,1627424086.52162,316.112251033783,9.26273798942566,325.382374515533,327.483157625198,0.3,335.169358005524,0.866989850997925,336.040668001175,1,left,0.860253095626831,336.036347856522,604.469785680771,607.229785680771,1627424405.38222,1627424405.38365,1627424414.65234,1627424414.66155,1627424416.75312,1627424424.43933,1627424424.44116,1627424425.31064,1627424425.30631,1627424693.73975,1
37,4,1,4,18,8,1,c1_WhyFace,2,admiring?,6,F_692.jpg,1627424086.50997,1627424086.52162,316.112251033783,9.26273798942566,325.382374515533,327.483157625198,0.3,336.353131284714,0.0166745185852051,336.374997844696,1,left,0.000286102294921875,336.369805803299,604.469785680771,607.229785680771,1627424405.38222,1627424405.38365,1627424414.65234,1627424414.66155,1627424416.75312,1627424425.6231,1627424425.62778,1627424425.64496,1627424425.63977,1627424693.73975,0
37,4,1,4,19,1,2,c2_WhyHand,1,healthy?,23,H_364.jpg,1627424086.50997,1627424086.52162,336.453169813156,6.99173998832703,343.455780258179,345.556564559937,2.10078430175781,345.706621160507,1.11708164215088,346.824722995758,1,left,1.10149598121643,346.823702802658,604.469785680771,607.229785680771,1627424425.72314,1627424425.72791,1627424432.72575,1627424432.7279,1627424434.82653,1627424434.97659,1627424434.97842,1627424436.09469,1627424436.09367,1627424693.73975,1
37,4,1,4,19,2,2,c2_WhyHand,2,healthy?,20,H_007.jpg,1627424086.50997,1627424086.52162,336.453169813156,6.99173998832703,343.455780258179,345.556564559937,0.3,347.140488376617,0.866990089416504,348.008952846527,3,right,0.858143091201782,348.007478466034,604.469785680771,607.229785680771,1627424425.72314,1627424425.72791,1627424432.72575,1627424432.7279,1627424434.82653,1627424436.41046,1627424436.41187,1627424437.27892,1627424437.27745,1627424693.73975,0
37,4,1,4,19,3,2,c2_WhyHand,1,healthy?,19,H_167.jpg,1627424086.50997,1627424086.52162,336.453169813156,6.99173998832703,343.455780258179,345.556564559937,0.3,348.324263324738,0.750279426574707,349.076355924606,1,left,0.728600978851318,349.074542751312,604.469785680771,607.229785680771,1627424425.72314,1627424425.72791,1627424432.72575,1627424432.7279,1627424434.82653,1627424437.59423,1627424437.59585,1627424438.34632,1627424438.34451,1627424693.73975,1
37,4,1,4,19,4,2,c2_WhyHand,2,healthy?,22,H_130.jpg,1627424086.50997,1627424086.52162,336.453169813156,6.99173998832703,343.455780258179,345.556564559937,0.3,349.391327848434,0.716933965682983,350.10967086792,3,right,0.703072071075439,350.108261814117,604.469785680771,607.229785680771,1627424425.72314,1627424425.72791,1627424432.72575,1627424432.7279,1627424434.82653,1627424438.66129,1627424438.66286,1627424439.37964,1627424439.37823,1627424693.73975,0
37,4,1,4,19,5,2,c2_WhyHand,1,healthy?,18,H_438.jpg,1627424086.50997,1627424086.52162,336.453169813156,6.99173998832703,343.455780258179,345.556564559937,0.3,350.42504691124,0.833643674850464,351.259729852676,1,left,0.813782930374146,351.25869058609,604.469785680771,607.229785680771,1627424425.72314,1627424425.72791,1627424432.72575,1627424432.7279,1627424434.82653,1627424439.69501,1627424439.69667,1627424440.5297,1627424440.52866,1627424693.73975,1
37,4,1,4,19,6,2,c2_WhyHand,2,healthy?,24,H_019.jpg,1627424086.50997,1627424086.52162,336.453169813156,6.99173998832703,343.455780258179,345.556564559937,0.3,351.575475921631,0.800297737121582,352.377481927872,3,right,0.783328056335449,352.375773658752,604.469785680771,607.229785680771,1627424425.72314,1627424425.72791,1627424432.72575,1627424432.7279,1627424434.82653,1627424440.84544,1627424440.84695,1627424441.64745,1627424441.64574,1627424693.73975,0
37,4,1,4,19,7,2,c2_WhyHand,1,healthy?,17,H_362.jpg,1627424086.50997,1627424086.52162,336.453169813156,6.99173998832703,343.455780258179,345.556564559937,0.3,352.692558994293,0.850316286087036,353.557703962326,1,left,0.841278076171875,353.54287528038,604.469785680771,607.229785680771,1627424425.72314,1627424425.72791,1627424432.72575,1627424432.7279,1627424434.82653,1627424441.96253,1627424441.96441,1627424442.82767,1627424442.81284,1627424693.73975,1
37,4,1,4,19,8,2,c2_WhyHand,1,healthy?,21,H_627.jpg,1627424086.50997,1627424086.52162,336.453169813156,6.99173998832703,343.455780258179,345.556564559937,0.3,353.859660615921,0.766953229904175,354.627753009796,1,left,0.752928018569946,354.626613845825,604.469785680771,607.229785680771,1627424425.72314,1627424425.72791,1627424432.72575,1627424432.7279,1627424434.82653,1627424443.12963,1627424443.13137,1627424443.89772,1627424443.89658,1627424693.73975,1
37,4,1,4,20,1,4,c4_HowHand,1,pressing button?,82,H_126.jpg,1627424086.50997,1627424086.52162,354.709977617264,6.25191140174866,360.978982439041,363.079765787125,2.1007833480835,363.229821910858,0.566877841949463,363.808110942841,1,left,0.559010982513428,363.796699752808,604.469785680771,607.229785680771,1627424443.97994,1627424443.98132,1627424450.24895,1627424450.25069,1627424452.34973,1627424452.49979,1627424452.50246,1627424453.07808,1627424453.06667,1627424693.73975,1
37,4,1,4,20,2,4,c4_HowHand,1,pressing button?,86,H_332.jpg,1627424086.50997,1627424086.52162,354.709977617264,6.25191140174866,360.978982439041,363.079765787125,0.3,364.113485088348,0.566877841949463,364.681391944885,1,left,0.545170068740845,364.680362930298,604.469785680771,607.229785680771,1627424443.97994,1627424443.98132,1627424450.24895,1627424450.25069,1627424452.34973,1627424453.38345,1627424453.38525,1627424453.95136,1627424453.95033,1627424693.73975,1
37,4,1,4,20,3,4,c4_HowHand,2,pressing button?,81,H_261.jpg,1627424086.50997,1627424086.52162,354.709977617264,6.25191140174866,360.978982439041,363.079765787125,0.3,364.99714802742,0.733607053756714,365.73249792099,3,right,0.709896087646484,365.730755081177,604.469785680771,607.229785680771,1627424443.97994,1627424443.98132,1627424450.24895,1627424450.25069,1627424452.34973,1627424454.26712,1627424454.2692,1627424455.00247,1627424455.00072,1627424693.73975,0
37,4,1,4,20,4,4,c4_HowHand,2,pressing button?,87,H_024.jpg,1627424086.50997,1627424086.52162,354.709977617264,6.25191140174866,360.978982439041,363.079765787125,0.3,366.04753993988,1.15042877197266,367.199437847137,3,right,1.12989783287048,367.197968711853,604.469785680771,607.229785680771,1627424443.97994,1627424443.98132,1627424450.24895,1627424450.25069,1627424452.34973,1627424455.31751,1627424455.31934,1627424456.4694,1627424456.46794,1627424693.73975,0
37,4,1,4,20,5,4,c4_HowHand,1,pressing button?,83,H_502.jpg,1627424086.50997,1627424086.52162,354.709977617264,6.25191140174866,360.978982439041,363.079765787125,0.3,367.514752855301,1.05039238929749,368.574402799606,1,left,1.04122495651245,368.565145244598,604.469785680771,607.229785680771,1627424443.97994,1627424443.98132,1627424450.24895,1627424450.25069,1627424452.34973,1627424456.78472,1627424456.78617,1627424457.84437,1627424457.83511,1627424693.73975,1
37,4,1,4,20,6,4,c4_HowHand,2,pressing button?,85,H_130.jpg,1627424086.50997,1627424086.52162,354.709977617264,6.25191140174866,360.978982439041,363.079765787125,0.3,368.881930103302,0.783625841140747,369.674499025345,3,right,0.774524211883545,369.665555944443,604.469785680771,607.229785680771,1627424443.97994,1627424443.98132,1627424450.24895,1627424450.25069,1627424452.34973,1627424458.1519,1627424458.15399,1627424458.94447,1627424458.93552,1627424693.73975,0
37,4,1,4,20,7,4,c4_HowHand,1,pressing button?,88,H_019.jpg,1627424086.50997,1627424086.52162,354.709977617264,6.25191140174866,360.978982439041,363.079765787125,0.3,369.982339611053,0.700261116027832,370.683989992142,1,left,0.677706956863403,370.682600727081,604.469785680771,607.229785680771,1627424443.97994,1627424443.98132,1627424450.24895,1627424450.25069,1627424452.34973,1627424459.25231,1627424459.25385,1627424459.95396,1627424459.95257,1627424693.73975,1
37,4,1,4,20,8,4,c4_HowHand,1,pressing button?,84,H_483.jpg,1627424086.50997,1627424086.52162,354.709977617264,6.25191140174866,360.978982439041,363.079765787125,0.3,370.999385824204,0.833643674850464,371.84117483139,1,left,0.819448947906494,371.833029499054,604.469785680771,607.229785680771,1627424443.97994,1627424443.98132,1627424450.24895,1627424450.25069,1627424452.34973,1627424460.26935,1627424460.2709,1627424461.11114,1627424461.103,1627424693.73975,1
37,4,1,4,21,1,3,c3_HowFace,1,looking to side?,72,F_590.jpg,1627424086.50997,1627424086.52162,371.916394462585,6.93548536300659,378.86898683548,380.969770421982,2.10078358650208,381.119826784134,0.750280141830444,381.874516954422,1,left,0.733170986175537,381.870106925964,604.469785680771,607.229785680771,1627424461.18636,1627424461.19467,1627424468.13895,1627424468.14067,1627424470.23974,1627424470.38979,1627424470.39151,1627424471.14448,1627424471.14007,1627424693.73975,1
37,4,1,4,21,2,3,c3_HowFace,1,looking to side?,69,F_110.jpg,1627424086.50997,1627424086.52162,371.916394462585,6.93548536300659,378.86898683548,380.969770421982,0.3,382.186892023087,0.783624887466431,382.973877897263,1,left,0.774215936660767,382.970516910553,604.469785680771,607.229785680771,1627424461.18636,1627424461.19467,1627424468.13895,1627424468.14067,1627424470.23974,1627424471.45686,1627424471.4612,1627424472.24384,1627424472.24048,1627424693.73975,1
37,4,1,4,21,3,3,c3_HowFace,1,looking to side?,68,F_760.jpg,1627424086.50997,1627424086.52162,371.916394462585,6.93548536300659,378.86898683548,380.969770421982,0.3,383.287302007675,0.716933012008667,384.007339944839,1,left,0.707257986068726,384.004235019684,604.469785680771,607.229785680771,1627424461.18636,1627424461.19467,1627424468.13895,1627424468.14067,1627424470.23974,1627424472.55727,1627424472.56108,1627424473.27731,1627424473.2742,1627424693.73975,1
37,4,1,4,21,4,3,c3_HowFace,2,looking to side?,70,F_779.jpg,1627424086.50997,1627424086.52162,371.916394462585,6.93548536300659,378.86898683548,380.969770421982,0.3,384.321020593643,0.783627033233643,385.107669820786,1,left,0.762150049209595,385.104647626877,604.469785680771,607.229785680771,1627424461.18636,1627424461.19467,1627424468.13895,1627424468.14067,1627424470.23974,1627424473.59099,1627424473.59456,1627424474.37764,1627424474.37461,1627424693.73975,0
37,4,1,4,21,5,3,c3_HowFace,1,looking to side?,71,F_433.jpg,1627424086.50997,1627424086.52162,371.916394462585,6.93548536300659,378.86898683548,380.969770421982,0.3,385.421431055069,0.566877365112305,385.990551939011,1,left,0.557609081268311,385.988308420181,604.469785680771,607.229785680771,1627424461.18636,1627424461.19467,1627424468.13895,1627424468.14067,1627424470.23974,1627424474.6914,1627424474.69455,1627424475.26052,1627424475.25828,1627424693.73975,1
37,4,1,4,21,6,3,c3_HowFace,2,looking to side?,65,F_798.jpg,1627424086.50997,1627424086.52162,371.916394462585,6.93548536300659,378.86898683548,380.969770421982,0.3,386.305093994141,0.983700037002563,387.291460027695,3,right,0.971146821975708,387.288794031143,604.469785680771,607.229785680771,1627424461.18636,1627424461.19467,1627424468.13895,1627424468.14067,1627424470.23974,1627424475.57506,1627424475.57792,1627424476.56143,1627424476.55876,1627424693.73975,0
37,4,1,4,21,7,3,c3_HowFace,1,looking to side?,67,F_716.jpg,1627424086.50997,1627424086.52162,371.916394462585,6.93548536300659,378.86898683548,380.969770421982,0.3,387.605579128265,0.683587551116943,388.290705909729,1,left,0.662482976913452,388.289166679382,604.469785680771,607.229785680771,1627424461.18636,1627424461.19467,1627424468.13895,1627424468.14067,1627424470.23974,1627424476.87555,1627424476.87787,1627424477.56067,1627424477.55913,1627424693.73975,1
37,4,1,4,21,8,3,c3_HowFace,2,looking to side?,66,F_111.jpg,1627424086.50997,1627424086.52162,371.916394462585,6.93548536300659,378.86898683548,380.969770421982,0.3,388.605951776505,0.900335550308228,389.50780796051,3,right,0.890178918838501,389.506287326813,604.469785680771,607.229785680771,1627424461.18636,1627424461.19467,1627424468.13895,1627424468.14067,1627424470.23974,1627424477.87592,1627424477.87802,1627424478.77778,1627424478.77625,1627424693.73975,0
37,4,1,4,22,1,1,c1_WhyFace,1,argument?,42,F_403.jpg,1627424086.50997,1627424086.52162,389.589651575089,7.10230135917664,396.708973636627,398.809756984711,2.1007833480835,398.959812870026,0.866989612579346,399.827978839874,1,left,0.852334022521973,399.826802482605,604.469785680771,607.229785680771,1627424478.85962,1627424478.86128,1627424485.97894,1627424485.98083,1627424488.07972,1627424488.22978,1627424488.23149,1627424489.09795,1627424489.09677,1627424693.73975,1
37,4,1,4,22,2,1,c1_WhyFace,2,argument?,44,F_139.jpg,1627424086.50997,1627424086.52162,389.589651575089,7.10230135917664,396.708973636627,398.809756984711,0.3,400.143587341309,0.750280380249023,400.907344808579,3,right,0.738897085189819,400.893867721558,604.469785680771,607.229785680771,1627424478.85962,1627424478.86128,1627424485.97894,1627424485.98083,1627424488.07972,1627424489.41355,1627424489.41536,1627424490.17731,1627424490.16383,1627424693.73975,0
37,4,1,4,22,3,1,c1_WhyFace,1,argument?,47,F_743.jpg,1627424086.50997,1627424086.52162,389.589651575089,7.10230135917664,396.708973636627,398.809756984711,0.3,401.210651865006,0.683589935302734,401.896003952026,1,left,0.664584159851074,401.894241800308,604.469785680771,607.229785680771,1627424478.85962,1627424478.86128,1627424485.97894,1627424485.98083,1627424488.07972,1627424490.48062,1627424490.48216,1627424491.16597,1627424491.16421,1627424693.73975,1
37,4,1,4,22,4,1,c1_WhyFace,2,argument?,45,F_433.jpg,1627424086.50997,1627424086.52162,389.589651575089,7.10230135917664,396.708973636627,398.809756984711,0.3,402.211025943756,0.883662939071655,403.096546878815,3,right,0.86519193649292,403.094688882828,604.469785680771,607.229785680771,1627424478.85962,1627424478.86128,1627424485.97894,1627424485.98083,1627424488.07972,1627424491.48099,1627424491.48237,1627424492.36651,1627424492.36466,1627424693.73975,0
37,4,1,4,22,5,1,c1_WhyFace,1,argument?,43,F_716.jpg,1627424086.50997,1627424086.52162,389.589651575089,7.10230135917664,396.708973636627,398.809756984711,0.3,403.411473741531,0.78362512588501,404.207363834381,1,left,0.773178815841675,404.195098867416,604.469785680771,607.229785680771,1627424478.85962,1627424478.86128,1627424485.97894,1627424485.98083,1627424488.07972,1627424492.68144,1627424492.68309,1627424493.47733,1627424493.46507,1627424693.73975,1
37,4,1,4,22,6,1,c1_WhyFace,1,argument?,48,F_758.jpg,1627424086.50997,1627424086.52162,389.589651575089,7.10230135917664,396.708973636627,398.809756984711,0.3,404.51188372612,0.950354099273682,405.463776817322,1,left,0.934030055999756,405.462237825394,604.469785680771,607.229785680771,1627424478.85962,1627424478.86128,1627424485.97894,1627424485.98083,1627424488.07972,1627424493.78185,1627424493.78343,1627424494.73374,1627424494.7322,1627424693.73975,1
37,4,1,4,22,7,1,c1_WhyFace,2,argument?,46,F_844.jpg,1627424086.50997,1627424086.52162,389.589651575089,7.10230135917664,396.708973636627,398.809756984711,0.3,405.779022922516,0.0166728496551514,405.797179927826,1,left,0.000375032424926758,405.795695772171,604.469785680771,607.229785680771,1627424478.85962,1627424478.86128,1627424485.97894,1627424485.98083,1627424488.07972,1627424495.04899,1627424495.05068,1627424495.06715,1627424495.06566,1627424693.73975,0
37,4,1,4,22,8,1,c1_WhyFace,1,argument?,41,F_712.jpg,1627424086.50997,1627424086.52162,389.589651575089,7.10230135917664,396.708973636627,398.809756984711,0.3,406.112480869293,1.43386745452881,407.558012952805,1,left,1.42388200759888,407.546348323822,604.469785680771,607.229785680771,1627424478.85962,1627424478.86128,1627424485.97894,1627424485.98083,1627424488.07972,1627424495.38245,1627424495.3844,1627424496.82798,1627424496.81632,1627424693.73975,1
37,4,1,4,23,1,2,c2_WhyHand,1,self-protection?,94,H_189.jpg,1627424086.50997,1627424086.52162,407.663058509827,6.86883139610291,414.548959722519,416.649743309021,2.10078358650208,416.799799909592,0.63356876373291,417.43446182251,1,left,0.615764856338501,417.433368673325,604.469785680771,607.229785680771,1627424496.93303,1627424496.93478,1627424503.81893,1627424503.82087,1627424505.91971,1627424506.06977,1627424506.07149,1627424506.70443,1627424506.70334,1627424693.73975,1
37,4,1,4,23,2,2,c2_WhyHand,1,self-protection?,93,H_038.jpg,1627424086.50997,1627424086.52162,407.663058509827,6.86883139610291,414.548959722519,416.649743309021,0.3,417.750153770447,0.833643913269043,418.590943803787,3,right,0.815799951553345,418.583797683716,604.469785680771,607.229785680771,1627424496.93303,1627424496.93478,1627424503.81893,1627424503.82087,1627424505.91971,1627424507.02012,1627424507.02201,1627424507.86091,1627424507.85376,1627424693.73975,0
37,4,1,4,23,3,2,c2_WhyHand,1,self-protection?,91,H_581.jpg,1627424086.50997,1627424086.52162,407.663058509827,6.86883139610291,414.548959722519,416.649743309021,0.3,418.900582780838,0.766952991485596,419.674512853622,1,left,0.749562978744507,419.667535772324,604.469785680771,607.229785680771,1627424496.93303,1627424496.93478,1627424503.81893,1627424503.82087,1627424505.91971,1627424508.17055,1627424508.17254,1627424508.94448,1627424508.9375,1627424693.73975,1
37,4,1,4,23,4,2,c2_WhyHand,2,self-protection?,90,H_006.jpg,1627424086.50997,1627424086.52162,407.663058509827,6.86883139610291,414.548959722519,416.649743309021,0.3,419.984319915771,0.883663892745972,420.869607915878,3,right,0.861289978027344,420.867983808517,604.469785680771,607.229785680771,1627424496.93303,1627424496.93478,1627424503.81893,1627424503.82087,1627424505.91971,1627424509.25429,1627424509.25597,1627424510.13958,1627424510.13795,1627424693.73975,0
37,4,1,4,23,5,2,c2_WhyHand,1,self-protection?,96,H_027.jpg,1627424086.50997,1627424086.52162,407.663058509827,6.86883139610291,414.548959722519,416.649743309021,0.3,421.184767713547,0.783625841140747,421.969423999786,1,left,0.763051986694336,421.968393554688,604.469785680771,607.229785680771,1627424496.93303,1627424496.93478,1627424503.81893,1627424503.82087,1627424505.91971,1627424510.45473,1627424510.45652,1627424511.23939,1627424511.23836,1627424693.73975,1
37,4,1,4,23,6,2,c2_WhyHand,2,self-protection?,95,H_332.jpg,1627424086.50997,1627424086.52162,407.663058509827,6.86883139610291,414.548959722519,416.649743309021,0.3,422.285177221298,0.750280857086182,423.04109000206,3,right,0.734687805175781,423.035458078384,604.469785680771,607.229785680771,1627424496.93303,1627424496.93478,1627424503.81893,1627424503.82087,1627424505.91971,1627424511.55514,1627424511.5571,1627424512.31106,1627424512.30543,1627424693.73975,0
37,4,1,4,23,7,2,c2_WhyHand,1,self-protection?,89,H_443.jpg,1627424086.50997,1627424086.52162,407.663058509827,6.86883139610291,414.548959722519,416.649743309021,0.3,423.352242698669,0.666914463043213,424.024717798233,1,left,0.659164905548096,424.019157161713,604.469785680771,607.229785680771,1627424496.93303,1627424496.93478,1627424503.81893,1627424503.82087,1627424505.91971,1627424512.62221,1627424512.62368,1627424513.29468,1627424513.28912,1627424693.73975,1
37,4,1,4,23,8,2,c2_WhyHand,2,self-protection?,92,H_532.jpg,1627424086.50997,1627424086.52162,407.663058509827,6.86883139610291,414.548959722519,416.649743309021,0.3,424.335942497253,0.733606815338135,425.074167957306,3,right,0.715122938156128,425.069549312592,604.469785680771,607.229785680771,1627424496.93303,1627424496.93478,1627424503.81893,1627424503.82087,1627424505.91971,1627424513.60591,1627424513.60774,1627424514.34414,1627424514.33952,1627424693.73975,0
37,4,1,4,24,1,4,c4_HowHand,1,both hands?,124,H_581.jpg,1627424086.50997,1627424086.52162,425.15291475296,6.89610505104065,432.055488576889,434.156271448135,2.10078287124634,434.30632733345,0.633570432662964,434.957537879944,1,left,0.626733064651489,434.939897766113,604.469785680771,607.229785680771,1627424514.42288,1627424514.42781,1627424521.32546,1627424521.32816,1627424523.42624,1627424523.57629,1627424523.57803,1627424524.2275,1627424524.20986,1627424693.73975,1
37,4,1,4,24,2,4,c4_HowHand,1,both hands?,127,H_349.jpg,1627424086.50997,1627424086.52162,425.15291475296,6.89610505104065,432.055488576889,434.156271448135,0.3,435.256682624817,0.650241613388062,435.907933940887,1,left,0.638251066207886,435.906924238205,604.469785680771,607.229785680771,1627424514.42288,1627424514.42781,1627424521.32546,1627424521.32816,1627424523.42624,1627424524.52665,1627424524.52812,1627424525.1779,1627424525.17689,1627424693.73975,1
37,4,1,4,24,3,4,c4_HowHand,2,both hands?,126,H_159.jpg,1627424086.50997,1627424086.52162,425.15291475296,6.89610505104065,432.055488576889,434.156271448135,0.3,436.22370885849,0.766952991485596,436.991739025116,3,right,0.751880884170532,436.990661849976,604.469785680771,607.229785680771,1627424514.42288,1627424514.42781,1627424521.32546,1627424521.32816,1627424523.42624,1627424525.49368,1627424525.49516,1627424526.26171,1627424526.26063,1627424693.73975,0
37,4,1,4,24,4,4,c4_HowHand,1,both hands?,122,H_111.jpg,1627424086.50997,1627424086.52162,425.15291475296,6.89610505104065,432.055488576889,434.156271448135,0.3,437.307447185516,0.750279664993286,438.058779945374,1,left,0.729902029037476,438.05772685051,604.469785680771,607.229785680771,1627424514.42288,1627424514.42781,1627424521.32546,1627424521.32816,1627424523.42624,1627424526.57741,1627424526.57888,1627424527.32875,1627424527.32769,1627424693.73975,1
37,4,1,4,24,5,4,c4_HowHand,2,both hands?,125,H_627.jpg,1627424086.50997,1627424086.52162,425.15291475296,6.89610505104065,432.055488576889,434.156271448135,0.3,438.374511947632,0.850316524505615,439.226580848694,3,right,0.829679012298584,439.224828472137,604.469785680771,607.229785680771,1627424514.42288,1627424514.42781,1627424521.32546,1627424521.32816,1627424523.42624,1627424527.64448,1627424527.64562,1627424528.49655,1627424528.4948,1627424693.73975,0
37,4,1,4,24,6,4,c4_HowHand,1,both hands?,123,H_167.jpg,1627424086.50997,1627424086.52162,425.15291475296,6.89610505104065,432.055488576889,434.156271448135,0.3,439.541614046097,0.616895437240601,440.159400930405,1,left,0.606334924697876,440.158509483337,604.469785680771,607.229785680771,1627424514.42288,1627424514.42781,1627424521.32546,1627424521.32816,1627424523.42624,1627424528.81158,1627424528.81346,1627424529.42937,1627424529.42848,1627424693.73975,1
37,4,1,4,24,7,4,c4_HowHand,1,both hands?,128,H_027.jpg,1627424086.50997,1627424086.52162,425.15291475296,6.89610505104065,432.055488576889,434.156271448135,0.3,440.475294818878,0.933682203292847,441.410486927032,1,left,0.922006130218506,441.408977022171,604.469785680771,607.229785680771,1627424514.42288,1627424514.42781,1627424521.32546,1627424521.32816,1627424523.42624,1627424529.74526,1627424529.74685,1627424530.68045,1627424530.67894,1627424693.73975,1
37,4,1,4,24,8,4,c4_HowHand,2,both hands?,121,H_091.jpg,1627424086.50997,1627424086.52162,425.15291475296,6.89610505104065,432.055488576889,434.156271448135,0.3,441.725761642456,0.733606576919556,442.460915794373,3,right,0.711674213409424,442.459368219376,604.469785680771,607.229785680771,1627424514.42288,1627424514.42781,1627424521.32546,1627424521.32816,1627424523.42624,1627424530.99573,1627424530.99744,1627424531.73088,1627424531.72934,1627424693.73975,0
37,4,1,4,25,1,2,c2_WhyHand,1,competing?,15,H_170.jpg,1627424086.50997,1627424086.52162,442.542732467651,7.29624247550964,449.845456590652,451.946240177155,2.10078358650208,452.096296062469,0.616895914077759,452.714905967712,1,left,0.583742141723633,452.713191976547,604.469785680771,607.229785680771,1627424531.8127,1627424531.81436,1627424539.11542,1627424539.1284,1627424541.21621,1627424541.36626,1627424541.37853,1627424541.98487,1627424541.98316,1627424693.73975,1
37,4,1,4,25,2,2,c2_WhyHand,1,competing?,14,H_132.jpg,1627424086.50997,1627424086.52162,442.542732467651,7.29624247550964,449.845456590652,451.946240177155,0.3,453.029976835251,0.616896629333496,453.647934904099,1,left,0.601250171661377,453.646873464584,604.469785680771,607.229785680771,1627424531.8127,1627424531.81436,1627424539.11542,1627424539.1284,1627424541.21621,1627424542.29994,1627424542.302,1627424542.9179,1627424542.91684,1627424693.73975,1
37,4,1,4,25,3,2,c2_WhyHand,2,competing?,10,H_126.jpg,1627424086.50997,1627424086.52162,442.542732467651,7.29624247550964,449.845456590652,451.946240177155,0.3,453.963658800125,0.700261116027832,454.674769868851,3,right,0.693745851516724,454.663919916153,604.469785680771,607.229785680771,1627424531.8127,1627424531.81436,1627424539.11542,1627424539.1284,1627424541.21621,1627424543.23363,1627424543.23522,1627424543.94474,1627424543.93389,1627424693.73975,0
37,4,1,4,25,4,2,c2_WhyHand,1,competing?,13,H_003.jpg,1627424086.50997,1627424086.52162,442.542732467651,7.29624247550964,449.845456590652,451.946240177155,0.3,454.980705013275,0.683588027954102,455.665359010696,1,left,0.668567180633545,455.664293041229,604.469785680771,607.229785680771,1627424531.8127,1627424531.81436,1627424539.11542,1627424539.1284,1627424541.21621,1627424544.25067,1627424544.25239,1627424544.93533,1627424544.93426,1627424693.73975,1
37,4,1,4,25,5,2,c2_WhyHand,2,competing?,11,H_502.jpg,1627424086.50997,1627424086.52162,442.542732467651,7.29624247550964,449.845456590652,451.946240177155,0.3,455.981077661514,0.733607053756714,456.724127998352,3,right,0.719995021820068,456.714684715271,604.469785680771,607.229785680771,1627424531.8127,1627424531.81436,1627424539.11542,1627424539.1284,1627424541.21621,1627424545.25104,1627424545.2528,1627424545.9941,1627424545.98465,1627424693.73975,0
37,4,1,4,25,6,2,c2_WhyHand,1,competing?,16,H_136.jpg,1627424086.50997,1627424086.52162,442.542732467651,7.29624247550964,449.845456590652,451.946240177155,0.3,457.031469812393,0.983699321746826,458.02443980217,1,left,0.975029945373535,458.01516913414,604.469785680771,607.229785680771,1627424531.8127,1627424531.81436,1627424539.11542,1627424539.1284,1627424541.21621,1627424546.30144,1627424546.30296,1627424547.29441,1627424547.28514,1627424693.73975,1
37,4,1,4,25,7,2,c2_WhyHand,2,competing?,12,H_483.jpg,1627424086.50997,1627424086.52162,442.542732467651,7.29624247550964,449.845456590652,451.946240177155,0.3,458.331954231262,0.766952514648438,459.107399930954,3,right,0.752181053161621,459.098906745911,604.469785680771,607.229785680771,1627424531.8127,1627424531.81436,1627424539.11542,1627424539.1284,1627424541.21621,1627424547.60192,1627424547.60346,1627424548.37737,1627424548.36887,1627424693.73975,0
37,4,1,4,25,8,2,c2_WhyHand,1,competing?,9,H_261.jpg,1627424086.50997,1627424086.52162,442.542732467651,7.29624247550964,449.845456590652,451.946240177155,0.3,459.415691843033,0.733607053756714,460.150431861877,1,left,0.717031002044678,460.14929889679,604.469785680771,607.229785680771,1627424531.8127,1627424531.81436,1627424539.11542,1627424539.1284,1627424541.21621,1627424548.68566,1627424548.6869,1627424549.4204,1627424549.41927,1627424693.73975,1
37,4,1,4,26,1,4,c4_HowHand,1,lifting?,49,H_362.jpg,1627424086.50997,1627424086.52162,460.249335756302,7.4795970916748,467.735460748672,469.83624505043,2.10078430175781,469.986300697327,0.766952276229858,470.758113851547,1,left,0.743528127670288,470.753252973557,604.469785680771,607.229785680771,1627424549.5193,1627424549.52114,1627424557.00543,1627424557.01145,1627424559.10621,1627424559.25627,1627424559.26155,1627424560.02808,1627424560.02322,1627424693.73975,1
37,4,1,4,26,2,4,c4_HowHand,2,lifting?,55,H_012.jpg,1627424086.50997,1627424086.52162,460.249335756302,7.4795970916748,467.735460748672,469.83624505043,0.3,471.070038309097,0.700261831283569,471.774148931503,3,right,0.678784847259521,471.770300140381,604.469785680771,607.229785680771,1627424549.5193,1627424549.52114,1627424557.00543,1627424557.01145,1627424559.10621,1627424560.34001,1627424560.34471,1627424561.04412,1627424561.04027,1627424693.73975,0
37,4,1,4,26,3,4,c4_HowHand,1,lifting?,56,H_136.jpg,1627424086.50997,1627424086.52162,460.249335756302,7.4795970916748,467.735460748672,469.83624505043,0.3,472.087084283829,0.783625364303589,472.87470697403,1,left,0.769673109054565,472.870709648132,604.469785680771,607.229785680771,1627424549.5193,1627424549.52114,1627424557.00543,1627424557.01145,1627424559.10621,1627424561.35705,1627424561.36115,1627424562.14467,1627424562.14068,1627424693.73975,1
37,4,1,4,26,4,4,c4_HowHand,1,lifting?,52,H_189.jpg,1627424086.50997,1627424086.52162,460.249335756302,7.4795970916748,467.735460748672,469.83624505043,0.3,473.187494506836,0.9170081615448,474.107274999619,3,right,0.905523061752319,474.104502668381,604.469785680771,607.229785680771,1627424549.5193,1627424549.52114,1627424557.00543,1627424557.01145,1627424559.10621,1627424562.45746,1627424562.46126,1627424563.37724,1627424563.37447,1627424693.73975,0
37,4,1,4,26,5,4,c4_HowHand,1,lifting?,54,H_170.jpg,1627424086.50997,1627424086.52162,460.249335756302,7.4795970916748,467.735460748672,469.83624505043,0.3,474.421287527084,0.95035457611084,475.374572982788,3,right,0.927025079727173,475.371642103195,604.469785680771,607.229785680771,1627424549.5193,1627424549.52114,1627424557.00543,1627424557.01145,1627424559.10621,1627424563.69125,1627424563.69448,1627424564.64454,1627424564.64161,1627424693.73975,0
37,4,1,4,26,6,4,c4_HowHand,2,lifting?,53,H_077.jpg,1627424086.50997,1627424086.52162,460.249335756302,7.4795970916748,467.735460748672,469.83624505043,0.3,475.688426485062,1.00037336349487,476.691217889786,3,right,0.977221012115479,476.688799848557,604.469785680771,607.229785680771,1627424549.5193,1627424549.52114,1627424557.00543,1627424557.01145,1627424559.10621,1627424564.95839,1627424564.96092,1627424565.96118,1627424565.95877,1627424693.73975,0
37,4,1,4,26,7,4,c4_HowHand,1,lifting?,50,H_443.jpg,1627424086.50997,1627424086.52162,460.249335756302,7.4795970916748,467.735460748672,469.83624505043,0.3,477.005584230423,0.733607292175293,477.740910997391,1,left,0.716241836547852,477.739191522598,604.469785680771,607.229785680771,1627424549.5193,1627424549.52114,1627424557.00543,1627424557.01145,1627424559.10621,1627424566.27555,1627424566.27791,1627424567.01088,1627424567.00916,1627424693.73975,1
37,4,1,4,26,8,4,c4_HowHand,2,lifting?,51,H_038.jpg,1627424086.50997,1627424086.52162,460.249335756302,7.4795970916748,467.735460748672,469.83624505043,0.3,478.05597661972,0.7669517993927,478.824136009216,3,right,0.744193077087402,478.822928419113,604.469785680771,607.229785680771,1627424549.5193,1627424549.52114,1627424557.00543,1627424557.01145,1627424559.10621,1627424567.32594,1627424567.32753,1627424568.0941,1627424568.0929,1627424693.73975,0
37,4,1,4,27,1,3,c3_HowFace,1,open mouth?,73,F_403.jpg,1627424086.50997,1627424086.52162,478.906293859482,6.89262199401855,485.808868160248,487.909649839401,2.10078167915344,488.059707393646,0.716933965682983,488.790658941269,1,left,0.708393812179565,488.776641359329,604.469785680771,607.229785680771,1627424568.17626,1627424568.17797,1627424575.07884,1627424575.08084,1627424577.17962,1627424577.32967,1627424577.33171,1627424578.06063,1627424578.04661,1627424693.73975,1
37,4,1,4,27,2,3,c3_HowFace,1,open mouth?,75,F_086.jpg,1627424086.50997,1627424086.52162,478.906293859482,6.89262199401855,485.808868160248,487.909649839401,0.3,489.093425741196,0.500186920166016,489.595288982391,1,left,0.487363815307617,489.593612661362,604.469785680771,607.229785680771,1627424568.17626,1627424568.17797,1627424575.07884,1627424575.08084,1627424577.17962,1627424578.36339,1627424578.36497,1627424578.86526,1627424578.86358,1627424693.73975,1
37,4,1,4,27,3,3,c3_HowFace,1,open mouth?,80,F_844.jpg,1627424086.50997,1627424086.52162,478.906293859482,6.89262199401855,485.808868160248,487.909649839401,0.3,489.910397996902,0.516858577728271,490.429005851746,1,left,0.502650022506714,490.427256574631,604.469785680771,607.229785680771,1627424568.17626,1627424568.17797,1627424575.07884,1627424575.08084,1627424577.17962,1627424579.18037,1627424579.18197,1627424579.69897,1627424579.69722,1627424693.73975,1
37,4,1,4,27,4,3,c3_HowFace,2,open mouth?,76,F_544.jpg,1627424086.50997,1627424086.52162,478.906293859482,6.89262199401855,485.808868160248,487.909649839401,0.3,490.744041433334,0.633569478988647,491.378899803162,3,right,0.617209911346436,491.377610912323,604.469785680771,607.229785680771,1627424568.17626,1627424568.17797,1627424575.07884,1627424575.08084,1627424577.17962,1627424580.01401,1627424580.01579,1627424580.64887,1627424580.64758,1627424693.73975,0
37,4,1,4,27,5,3,c3_HowFace,1,open mouth?,74,F_776.jpg,1627424086.50997,1627424086.52162,478.906293859482,6.89262199401855,485.808868160248,487.909649839401,0.3,491.694395294189,0.716933727264404,492.412355890274,1,left,0.696979999542236,492.411329021454,604.469785680771,607.229785680771,1627424568.17626,1627424568.17797,1627424575.07884,1627424575.08084,1627424577.17962,1627424580.96436,1627424580.96602,1627424581.68232,1627424581.6813,1627424693.73975,1
37,4,1,4,27,6,3,c3_HowFace,2,open mouth?,79,F_648.jpg,1627424086.50997,1627424086.52162,478.906293859482,6.89262199401855,485.808868160248,487.909649839401,0.3,492.728114833832,0.583552598953247,493.313288917542,3,right,0.569260835647583,493.311667432785,604.469785680771,607.229785680771,1627424568.17626,1627424568.17797,1627424575.07884,1627424575.08084,1627424577.17962,1627424581.99808,1627424581.99976,1627424582.58326,1627424582.58163,1627424693.73975,0
37,4,1,4,27,7,3,c3_HowFace,1,open mouth?,78,F_692.jpg,1627424086.50997,1627424086.52162,478.906293859482,6.89262199401855,485.808868160248,487.909649839401,0.3,493.628451099396,0.566877841949463,494.207434883118,1,left,0.556339025497437,494.195328941345,604.469785680771,607.229785680771,1627424568.17626,1627424568.17797,1627424575.07884,1627424575.08084,1627424577.17962,1627424582.89842,1627424582.89996,1627424583.4774,1627424583.4653,1627424693.73975,1
