src_subject_id,session_id,run_id,param_counterbalance_ver,param_block_num,param_trial_num,param_cond_type_num,param_cond_type_string,param_normative_response,param_ques_type_string,param_image_num,param_image_filename,param_trigger_onset,param_start_biopac,event01_fixation,event01_fixation_dur,event01_blockquestion_onset,event01_block_isi_blacksreen,event01_blockquestion_dur,event02_image_onset,event02_image_dur,event03_response_onset,event03_response_key,event03_response_keyname,event03_RT,event04_shortquestion_onset,param_end_instruct_onset,param_experiment_duration,RAW_e1_fixation,RAW_e1_fixation_biopac,RAW_e1_blockquestion_onset,RAW_e1_blockquestion_onset_biopac,RAW_e1_block_isi_blacksreen,RAW_e2_image_onset,RAW_e2_image_onset_biopac,RAW_e3_response_onset,RAW_e4_shortquestion_onset,RAW_param_end_instruct_onset,accuracy
84,4,1,3,1,1,4,c4_HowHand,1,reaching?,107,H_007.jpg,1634835899.56611,1634835899.58033,0.0570967102050779,0.0449962615966797,0.107115259170532,2.10786150932312,2.00074625015259,2.27458976745605,1.36717629432678,3.64558409690857,1,left,1.335608959198,3.64176606178284,604.482500066757,607.242500066757,1634835902.38321,1634835902.38852,1634835902.43322,1634835902.43817,1634835904.43397,1634835904.6007,1634835904.60311,1634835905.97169,1634835905.96788,1634836506.80861,1
84,4,1,3,1,2,4,c4_HowHand,2,reaching?,108,H_532.jpg,1634835899.56611,1634835899.58033,0.0570967102050779,0.0449962615966797,0.107115259170532,2.10786150932312,0.3,3.95855139732361,1.36717700958252,5.32888816833496,3,right,1.33981990814209,5.32572840690613,604.482500066757,607.242500066757,1634835902.38321,1634835902.38852,1634835902.43322,1634835902.43817,1634835904.43397,1634835906.28466,1634835906.28802,1634835907.655,1634835907.65184,1634836506.80861,0
84,4,1,3,1,3,4,c4_HowHand,1,reaching?,109,H_474.jpg,1634835899.56611,1634835899.58033,0.0570967102050779,0.0449962615966797,0.107115259170532,2.10786150932312,0.3,5.64251231193543,0.766952753067017,6.41250800132751,1,left,0.739301204681396,6.40946506500244,604.482500066757,607.242500066757,1634835902.38321,1634835902.38852,1634835902.43322,1634835902.43817,1634835904.43397,1634835907.96862,1634835907.97143,1634835908.73862,1634835908.73557,1634836506.80861,1
84,4,1,3,1,4,4,c4_HowHand,2,reaching?,105,H_438.jpg,1634835899.56611,1634835899.58033,0.0570967102050779,0.0449962615966797,0.107115259170532,2.10786150932312,0.3,6.72625040054321,0.967026948928833,7.69576906204224,3,right,0.952322959899902,7.69327734947205,604.482500066757,607.242500066757,1634835902.38321,1634835902.38852,1634835902.43322,1634835902.43817,1634835904.43397,1634835909.05236,1634835909.05521,1634835910.02188,1634835910.01939,1634836506.80861,0
84,4,1,3,1,5,4,c4_HowHand,1,reaching?,110,H_364.jpg,1634835899.56611,1634835899.58033,0.0570967102050779,0.0449962615966797,0.107115259170532,2.10786150932312,0.3,8.0100629234314,0.750278949737549,8.78093599319458,1,left,0.731724977493286,8.76034187316895,604.482500066757,607.242500066757,1634835902.38321,1634835902.38852,1634835902.43322,1634835902.43817,1634835904.43397,1634835910.33617,1634835910.34103,1634835911.10704,1634835911.08645,1634836506.80861,1
84,4,1,3,1,6,4,c4_HowHand,1,reaching?,106,H_006.jpg,1634835899.56611,1634835899.58033,0.0570967102050779,0.0449962615966797,0.107115259170532,2.10786150932312,0.3,9.0771274471283,0.78362512588501,9.86327003479004,1,left,0.75937819480896,9.86075257301331,604.482500066757,607.242500066757,1634835902.38321,1634835902.38852,1634835902.43322,1634835902.43817,1634835904.43397,1634835911.40324,1634835911.40561,1634835912.18938,1634835912.18686,1634836506.80861,1
84,4,1,3,1,7,4,c4_HowHand,1,reaching?,111,H_003.jpg,1634835899.56611,1634835899.58033,0.0570967102050779,0.0449962615966797,0.107115259170532,2.10786150932312,0.3,10.1775376701355,0.716934204101562,10.8969061279297,1,left,0.702872037887573,10.8944718742371,604.482500066757,607.242500066757,1634835902.38321,1634835902.38852,1634835902.43322,1634835902.43817,1634835904.43397,1634835912.50365,1634835912.50626,1634835913.22302,1634835913.22058,1634836506.80861,1
84,4,1,3,1,8,4,c4_HowHand,2,reaching?,112,H_132.jpg,1634835899.56611,1634835899.58033,0.0570967102050779,0.0449962615966797,0.107115259170532,2.10786150932312,0.3,11.2112562561035,1.05039072036743,12.2643880748749,3,right,1.02982091903687,12.2616469764709,604.482500066757,607.242500066757,1634835902.38321,1634835902.38852,1634835902.43322,1634835902.43817,1634835904.43397,1634835913.53737,1634835913.53942,1634835914.5905,1634835914.58776,1634836506.80861,0
84,4,1,3,2,1,2,c2_WhyHand,1,healthy?,21,H_627.jpg,1634835899.56611,1634835899.58033,12.7451612854004,4.78604173660278,17.5469524765015,19.647735824585,2.1007833480835,19.7977909946442,1.0170464515686,20.8290100002289,1,left,1.00619006156921,20.8148374462128,604.482500066757,607.242500066757,1634835915.07127,1634835915.07496,1634835919.87306,1634835919.87525,1634835921.97384,1634835922.1239,1634835922.12616,1634835923.15512,1634835923.14095,1634836506.80861,1
84,4,1,3,2,2,2,c2_WhyHand,1,healthy?,18,H_438.jpg,1634835899.56611,1634835899.58033,12.7451612854004,4.78604173660278,17.5469524765015,19.647735824585,0.3,21.131622543335,0.950353860855103,22.0844321155548,1,left,0.933924913406372,22.0819764041901,604.482500066757,607.242500066757,1634835915.07127,1634835915.07496,1634835919.87306,1634835919.87525,1634835921.97384,1634835923.45773,1634835923.45974,1634835924.41054,1634835924.40809,1634836506.80861,1
84,4,1,3,2,3,2,c2_WhyHand,1,healthy?,23,H_364.jpg,1634835899.56611,1634835899.58033,12.7451612854004,4.78604173660278,17.5469524765015,19.647735824585,0.3,22.3987612628937,1.21712136268616,23.6184101009369,1,left,1.20092582702637,23.6158826255798,604.482500066757,607.242500066757,1634835915.07127,1634835915.07496,1634835919.87306,1634835919.87525,1634835921.97384,1634835924.72487,1634835924.72712,1634835925.94452,1634835925.94199,1634836506.80861,1
84,4,1,3,2,4,2,c2_WhyHand,2,healthy?,22,H_130.jpg,1634835899.56611,1634835899.58033,12.7451612854004,4.78604173660278,17.5469524765015,19.647735824585,0.3,23.932667722702,0.900335550308228,24.835498085022,3,right,0.877305030822754,24.8330032730103,604.482500066757,607.242500066757,1634835915.07127,1634835915.07496,1634835919.87306,1634835919.87525,1634835921.97384,1634835926.25878,1634835926.26142,1634835927.16161,1634835927.15911,1634836506.80861,0
84,4,1,3,2,5,2,c2_WhyHand,1,healthy?,17,H_362.jpg,1634835899.56611,1634835899.58033,12.7451612854004,4.78604173660278,17.5469524765015,19.647735824585,0.3,25.1497874164581,0.683588981628418,25.8449239635468,1,left,0.671431064605713,25.8333763980865,604.482500066757,607.242500066757,1634835915.07127,1634835915.07496,1634835919.87306,1634835919.87525,1634835921.97384,1634835927.4759,1634835927.4782,1634835928.17103,1634835928.15949,1634836506.80861,1
84,4,1,3,2,6,2,c2_WhyHand,2,healthy?,20,H_007.jpg,1634835899.56611,1634835899.58033,12.7451612854004,4.78604173660278,17.5469524765015,19.647735824585,0.3,26.1501598262787,0.683589458465576,26.8359620475769,1,left,0.65855884552002,26.8337492847443,604.482500066757,607.242500066757,1634835915.07127,1634835915.07496,1634835919.87306,1634835919.87525,1634835921.97384,1634835928.47627,1634835928.47838,1634835929.16207,1634835929.15986,1634836506.80861,0
84,4,1,3,2,7,2,c2_WhyHand,1,healthy?,19,H_167.jpg,1634835899.56611,1634835899.58033,12.7451612854004,4.78604173660278,17.5469524765015,19.647735824585,0.3,27.1505336666107,0.766952514648438,27.9283640289307,1,left,0.754525899887085,27.9174861812592,604.482500066757,607.242500066757,1634835915.07127,1634835915.07496,1634835919.87306,1634835919.87525,1634835921.97384,1634835929.47664,1634835929.47875,1634835930.25447,1634835930.2436,1634836506.80861,1
84,4,1,3,2,8,2,c2_WhyHand,2,healthy?,24,H_019.jpg,1634835899.56611,1634835899.58033,12.7451612854004,4.78604173660278,17.5469524765015,19.647735824585,0.3,28.2342717552185,0.783624887466431,29.0284440422058,3,right,0.770753860473633,29.0178966426849,604.482500066757,607.242500066757,1634835915.07127,1634835915.07496,1634835919.87306,1634835919.87525,1634835921.97384,1634835930.56038,1634835930.56247,1634835931.35455,1634835931.34401,1634836506.80861,0
84,4,1,3,3,1,1,c1_WhyFace,1,admiring?,4,F_779.jpg,1634835899.56611,1634835899.58033,29.1846251392364,7.45475101470947,36.6540770435333,38.7548603916168,2.1007833480835,38.9049172306061,1.01704597473145,39.9282319450378,1,left,1.00435209274292,39.9219632053375,604.482500066757,607.242500066757,1634835931.51073,1634835931.51417,1634835938.98019,1634835938.98789,1634835941.08097,1634835941.23103,1634835941.23328,1634835942.25434,1634835942.24807,1634836506.80861,1
84,4,1,3,3,2,1,c1_WhyFace,1,admiring?,1,F_593.jpg,1634835899.56611,1634835899.58033,29.1846251392364,7.45475101470947,36.6540770435333,38.7548603916168,0.3,40.2387480640411,0.0166735649108887,40.2614531421661,1,left,0.000352144241333008,40.255421628952,604.482500066757,607.242500066757,1634835931.51073,1634835931.51417,1634835938.98019,1634835938.98789,1634835941.08097,1634835942.56486,1634835942.56692,1634835942.58756,1634835942.58153,1634836506.80861,1
84,4,1,3,3,3,1,c1_WhyFace,2,admiring?,3,F_110.jpg,1634835899.56611,1634835899.58033,29.1846251392364,7.45475101470947,36.6540770435333,38.7548603916168,0.3,40.5722052955627,0.917009353637695,41.4950051212311,3,right,0.902152061462402,41.4892146492004,604.482500066757,607.242500066757,1634835931.51073,1634835931.51417,1634835938.98019,1634835938.98789,1634835941.08097,1634835942.89831,1634835942.9005,1634835943.82111,1634835943.81532,1634836506.80861,0
84,4,1,3,3,4,1,c1_WhyFace,1,admiring?,8,F_590.jpg,1634835899.56611,1634835899.58033,29.1846251392364,7.45475101470947,36.6540770435333,38.7548603916168,0.3,41.8059987926483,0.616896152496338,42.4280719661713,1,left,0.595422983169556,42.4228949451447,604.482500066757,607.242500066757,1634835931.51073,1634835931.51417,1634835938.98019,1634835938.98789,1634835941.08097,1634835944.13211,1634835944.13762,1634835944.75418,1634835944.749,1634836506.80861,1
84,4,1,3,3,5,1,c1_WhyFace,2,admiring?,6,F_692.jpg,1634835899.56611,1634835899.58033,29.1846251392364,7.45475101470947,36.6540770435333,38.7548603916168,0.3,42.7396807575226,0.800297498703003,43.5445990467072,3,right,0.785167217254639,43.5399782562256,604.482500066757,607.242500066757,1634835931.51073,1634835931.51417,1634835938.98019,1634835938.98789,1634835941.08097,1634835945.06579,1634835945.07092,1634835945.87071,1634835945.86609,1634836506.80861,0
84,4,1,3,3,6,1,c1_WhyFace,1,admiring?,5,F_759.jpg,1634835899.56611,1634835899.58033,29.1846251392364,7.45475101470947,36.6540770435333,38.7548603916168,0.3,43.8567628765106,0.633569955825806,44.4952690505981,1,left,0.615180015563965,44.4903328323364,604.482500066757,607.242500066757,1634835931.51073,1634835931.51417,1634835938.98019,1634835938.98789,1634835941.08097,1634835946.18287,1634835946.18744,1634835946.82138,1634835946.81644,1634836506.80861,1
84,4,1,3,3,7,1,c1_WhyFace,1,admiring?,7,F_648.jpg,1634835899.56611,1634835899.58033,29.1846251392364,7.45475101470947,36.6540770435333,38.7548603916168,0.3,44.8071184062958,0.816971063613892,45.6280610466003,1,left,0.802045822143555,45.6240894699097,604.482500066757,607.242500066757,1634835931.51073,1634835931.51417,1634835938.98019,1634835938.98789,1634835941.08097,1634835947.13323,1634835947.13737,1634835947.95417,1634835947.9502,1634836506.80861,1
84,4,1,3,3,8,1,c1_WhyFace,2,admiring?,2,F_129.jpg,1634835899.56611,1634835899.58033,29.1846251392364,7.45475101470947,36.6540770435333,38.7548603916168,0.3,45.9408745670319,0.700261116027832,46.6447920703888,3,right,0.685294151306152,46.6411356830597,604.482500066757,607.242500066757,1634835931.51073,1634835931.51417,1634835938.98019,1634835938.98789,1634835941.08097,1634835948.26698,1634835948.27092,1634835948.9709,1634835948.96724,1634836506.80861,0
84,4,1,3,4,1,3,c3_HowFace,1,smiling?,119,F_139.jpg,1634835899.56611,1634835899.58033,46.7745180034637,8.82907199859619,55.6111473941803,57.7119300270081,2.10078263282776,57.8619866275787,0.416821956634521,58.2948911094666,1,left,0.404710054397583,58.2788085842133,604.482500066757,607.242500066757,1634835949.10063,1634835949.10541,1634835957.93726,1634835957.9396,1634835960.03804,1634835960.1881,1634835960.1901,1634835960.621,1634835960.60492,1634836506.80861,1
84,4,1,3,4,2,3,c3_HowFace,2,smiling?,113,F_712.jpg,1634835899.56611,1634835899.58033,46.7745180034637,8.82907199859619,55.6111473941803,57.7119300270081,0.3,58.5955936813355,0.716933965682983,59.3153049850464,3,right,0.696033000946045,59.3125276470184,604.482500066757,607.242500066757,1634835949.10063,1634835949.10541,1634835957.93726,1634835957.9396,1634835960.03804,1634835960.9217,1634835960.92385,1634835961.64141,1634835961.63864,1634836506.80861,0
84,4,1,3,4,3,3,c3_HowFace,1,smiling?,115,F_695.jpg,1634835899.56611,1634835899.58033,46.7745180034637,8.82907199859619,55.6111473941803,57.7119300270081,0.3,59.6293122673035,0.616896152496338,60.2487270736694,1,left,0.592775106430054,60.2462084197998,604.482500066757,607.242500066757,1634835949.10063,1634835949.10541,1634835957.93726,1634835957.9396,1634835960.03804,1634835961.95542,1634835961.95784,1634835962.57484,1634835962.57232,1634836506.80861,1
84,4,1,3,4,4,3,c3_HowFace,2,smiling?,120,F_758.jpg,1634835899.56611,1634835899.58033,46.7745180034637,8.82907199859619,55.6111473941803,57.7119300270081,0.3,60.5629937553406,0.466840982437134,61.0325391197205,3,right,0.446342945098877,61.0298347377777,604.482500066757,607.242500066757,1634835949.10063,1634835949.10541,1634835957.93726,1634835957.9396,1634835960.03804,1634835962.8891,1634835962.89155,1634835963.35865,1634835963.35594,1634836506.80861,0
84,4,1,3,4,5,3,c3_HowFace,1,smiling?,116,F_083.jpg,1634835899.56611,1634835899.58033,46.7745180034637,8.82907199859619,55.6111473941803,57.7119300270081,0.3,61.3466195964813,0.416821718215942,61.7783629798889,1,left,0.405580043792725,61.7634413146973,604.482500066757,607.242500066757,1634835949.10063,1634835949.10541,1634835957.93726,1634835957.9396,1634835960.03804,1634835963.67273,1634835963.67529,1634835964.10447,1634835964.08955,1634836506.80861,1
84,4,1,3,4,6,3,c3_HowFace,1,smiling?,118,F_759.jpg,1634835899.56611,1634835899.58033,46.7745180034637,8.82907199859619,55.6111473941803,57.7119300270081,0.3,62.0802278423309,0.750278234481812,62.8325569534302,1,left,0.724853992462158,62.8305060768127,604.482500066757,607.242500066757,1634835949.10063,1634835949.10541,1634835957.93726,1634835957.9396,1634835960.03804,1634835964.40634,1634835964.4085,1634835965.15867,1634835965.15662,1634836506.80861,1
84,4,1,3,4,7,3,c3_HowFace,2,smiling?,114,F_412.jpg,1634835899.56611,1634835899.58033,46.7745180034637,8.82907199859619,55.6111473941803,57.7119300270081,0.3,63.1472902202606,0.450167894363403,63.611570110321,3,right,0.438565969467163,63.597458114624,604.482500066757,607.242500066757,1634835949.10063,1634835949.10541,1634835957.93726,1634835957.9396,1634835960.03804,1634835965.4734,1634835965.47549,1634835965.93768,1634835965.92357,1634836506.80861,0
84,4,1,3,4,8,3,c3_HowFace,1,smiling?,117,F_593.jpg,1634835899.56611,1634835899.58033,46.7745180034637,8.82907199859619,55.6111473941803,57.7119300270081,0.3,63.9142432117462,0.533532381057739,64.4615120792389,1,left,0.518428087234497,64.4477755928039,604.482500066757,607.242500066757,1634835949.10063,1634835949.10541,1634835957.93726,1634835957.9396,1634835960.03804,1634835966.24035,1634835966.24248,1634835966.78762,1634835966.77388,1634836506.80861,1
84,4,1,3,5,1,4,c4_HowHand,1,lifting?,56,H_136.jpg,1634835899.56611,1634835899.58033,64.5644860172272,8.56969499588013,73.1510209941864,75.2518043422699,2.1007833480835,75.4018611812592,0.883661270141602,76.2880980873108,1,left,0.862947940826416,76.2855224514008,604.482500066757,607.242500066757,1634835966.89059,1634835966.89413,1634835975.47713,1634835975.48095,1634835977.57791,1634835977.72797,1634835977.73013,1634835978.61421,1634835978.61163,1634836506.80861,1
84,4,1,3,5,2,4,c4_HowHand,2,lifting?,51,H_038.jpg,1634835899.56611,1634835899.58033,64.5644860172272,8.56969499588013,73.1510209941864,75.2518043422699,0.3,76.6023135089874,1.1504237651825,77.754582157135,3,right,1.12560796737671,77.7527372741699,604.482500066757,607.242500066757,1634835966.89059,1634835966.89413,1634835975.47713,1634835975.48095,1634835977.57791,1634835978.92842,1634835978.9307,1634835980.08069,1634835980.07885,1634836506.80861,0
84,4,1,3,5,3,4,c4_HowHand,1,lifting?,52,H_189.jpg,1634835899.56611,1634835899.58033,64.5644860172272,8.56969499588013,73.1510209941864,75.2518043422699,0.3,78.0695221328735,0.933682441711426,79.0054609680176,1,left,0.910934925079346,79.003204574585,604.482500066757,607.242500066757,1634835966.89059,1634835966.89413,1634835975.47713,1634835975.48095,1634835977.57791,1634835980.39563,1634835980.39823,1634835981.33157,1634835981.32931,1634836506.80861,1
84,4,1,3,5,4,4,c4_HowHand,2,lifting?,53,H_077.jpg,1634835899.56611,1634835899.58033,64.5644860172272,8.56969499588013,73.1510209941864,75.2518043422699,0.3,79.31998919487,0.716934442520142,80.0449409389496,3,right,0.707056999206543,80.0369236373901,604.482500066757,607.242500066757,1634835966.89059,1634835966.89413,1634835975.47713,1634835975.48095,1634835977.57791,1634835981.6461,1634835981.64847,1634835982.37105,1634835982.36303,1634836506.80861,0
84,4,1,3,5,5,4,c4_HowHand,1,lifting?,50,H_443.jpg,1634835899.56611,1634835899.58033,64.5644860172272,8.56969499588013,73.1510209941864,75.2518043422699,0.3,80.3537075424194,0.583550214767456,80.9450199508667,1,left,0.568876028060913,80.9372577571869,604.482500066757,607.242500066757,1634835966.89059,1634835966.89413,1634835975.47713,1634835975.48095,1634835977.57791,1634835982.67982,1634835982.68212,1634835983.27113,1634835983.26337,1634836506.80861,1
84,4,1,3,5,6,4,c4_HowHand,2,lifting?,55,H_012.jpg,1634835899.56611,1634835899.58033,64.5644860172272,8.56969499588013,73.1510209941864,75.2518043422699,0.3,81.2540438079834,0.716933727264404,81.9735751056671,3,right,0.695987939834595,81.9709775352478,604.482500066757,607.242500066757,1634835966.89059,1634835966.89413,1634835975.47713,1634835975.48095,1634835977.57791,1634835983.58015,1634835983.5822,1634835984.29968,1634835984.29709,1634836506.80861,0
84,4,1,3,5,7,4,c4_HowHand,1,lifting?,49,H_362.jpg,1634835899.56611,1634835899.58033,64.5644860172272,8.56969499588013,73.1510209941864,75.2518043422699,0.3,82.2877623939514,0.53353214263916,82.8235151672363,1,left,0.508100986480713,82.8212945365906,604.482500066757,607.242500066757,1634835966.89059,1634835966.89413,1634835975.47713,1634835975.48095,1634835977.57791,1634835984.61387,1634835984.61613,1634835985.14962,1634835985.1474,1634836506.80861,1
84,4,1,3,5,8,4,c4_HowHand,1,lifting?,54,H_170.jpg,1634835899.56611,1634835899.58033,64.5644860172272,8.56969499588013,73.1510209941864,75.2518043422699,0.3,83.1380798721313,0.733606338500977,83.8782329463959,3,right,0.721160173416138,83.8716862106323,604.482500066757,607.242500066757,1634835966.89059,1634835966.89413,1634835975.47713,1634835975.48095,1634835977.57791,1634835985.46419,1634835985.46636,1634835986.20434,1634835986.1978,1634836506.80861,0
84,4,1,3,6,1,2,c2_WhyHand,1,helping?,38,H_077.jpg,1634835899.56611,1634835899.58033,84.0050692462921,11.6099817752838,95.6260697746277,97.7268531227112,2.1007833480835,97.8769090080261,1.18377423286438,99.0630600357056,1,left,1.16035008430481,99.0606832408905,604.482500066757,607.242500066757,1634835986.33118,1634835986.3381,1634835997.95218,1634835997.95446,1634836000.05296,1634836000.20302,1634836000.20514,1634836001.38917,1634836001.38679,1634836506.80861,1
84,4,1,3,6,2,2,c2_WhyHand,1,helping?,36,H_349.jpg,1634835899.56611,1634835899.58033,84.0050692462921,11.6099817752838,95.6260697746277,97.7268531227112,0.3,99.3774683380127,0.900335788726807,100.279999008179,1,left,0.882928133010864,100.277804126739,604.482500066757,607.242500066757,1634835986.33118,1634835986.3381,1634835997.95218,1634835997.95446,1634836000.05296,1634836001.70358,1634836001.70562,1634836002.60611,1634836002.60391,1634836506.80861,1
84,4,1,3,6,3,2,c2_WhyHand,1,helping?,37,H_474.jpg,1634835899.56611,1634835899.58033,84.0050692462921,11.6099817752838,95.6260697746277,97.7268531227112,0.3,100.594589223862,0.750279188156128,101.34706114769,1,left,0.73404598236084,101.344868412018,604.482500066757,607.242500066757,1634835986.33118,1634835986.3381,1634835997.95218,1634835997.95446,1634836000.05296,1634836002.9207,1634836002.9227,1634836003.67317,1634836003.67098,1634836506.80861,1
84,4,1,3,6,4,2,c2_WhyHand,1,helping?,39,H_024.jpg,1634835899.56611,1634835899.58033,84.0050692462921,11.6099817752838,95.6260697746277,97.7268531227112,0.3,101.66165350914,1.40052247047424,103.078366985321,1,left,1.38914179801941,103.062175979614,604.482500066757,607.242500066757,1634835986.33118,1634835986.3381,1634835997.95218,1634835997.95446,1634836000.05296,1634836003.98776,1634836003.98965,1634836005.40448,1634836005.38828,1634836506.80861,1
84,4,1,3,6,5,2,c2_WhyHand,2,helping?,40,H_012.jpg,1634835899.56611,1634835899.58033,84.0050692462921,11.6099817752838,95.6260697746277,97.7268531227112,0.3,103.378961315155,1.25046682357788,104.631581058502,3,right,1.22716617584229,104.629428138733,604.482500066757,607.242500066757,1634835986.33118,1634835986.3381,1634835997.95218,1634835997.95446,1634836000.05296,1634836005.70507,1634836005.7072,1634836006.95769,1634836006.95554,1634836506.80861,0
84,4,1,3,6,6,2,c2_WhyHand,2,helping?,35,H_159.jpg,1634835899.56611,1634835899.58033,84.0050692462921,11.6099817752838,95.6260697746277,97.7268531227112,0.3,104.946212520599,1.3004846572876,106.261281003952,3,right,1.29038619995117,106.246697177887,604.482500066757,607.242500066757,1634835986.33118,1634835986.3381,1634835997.95218,1634835997.95446,1634836000.05296,1634836007.27232,1634836007.2744,1634836008.58739,1634836008.57281,1634836506.80861,0
84,4,1,3,6,7,2,c2_WhyHand,1,helping?,34,H_111.jpg,1634835899.56611,1634835899.58033,84.0050692462921,11.6099817752838,95.6260697746277,97.7268531227112,0.3,106.563482036591,1.00037336349487,107.566179981232,1,left,0.974358081817627,107.563855400085,604.482500066757,607.242500066757,1634835986.33118,1634835986.3381,1634835997.95218,1634835997.95446,1634836000.05296,1634836008.88959,1634836008.89189,1634836009.89229,1634836009.88996,1634836506.80861,1
84,4,1,3,6,8,2,c2_WhyHand,2,helping?,33,H_091.jpg,1634835899.56611,1634835899.58033,84.0050692462921,11.6099817752838,95.6260697746277,97.7268531227112,0.3,107.880639543533,1.21712112426758,109.100008955002,3,right,1.19894289970398,109.097760667801,604.482500066757,607.242500066757,1634835986.33118,1634835986.3381,1634835997.95218,1634835997.95446,1634836000.05296,1634836010.20675,1634836010.20928,1634836011.42612,1634836011.42387,1634836506.80861,0
84,4,1,3,7,1,1,c1_WhyFace,1,proud?,104,F_598.jpg,1634835899.56611,1634835899.58033,109.197797527313,4.29226541519165,113.499402036667,115.600184431076,2.10078239440918,115.750240793228,0.666915655136108,116.42001294136,1,left,0.633117914199829,116.417156448364,604.482500066757,607.242500066757,1634836011.52391,1634836011.52644,1634836015.82551,1634836015.83766,1634836017.92629,1634836018.07635,1634836018.08762,1634836018.74612,1634836018.74327,1634836506.80861,1
84,4,1,3,7,2,1,c1_WhyFace,2,proud?,102,F_760.jpg,1634835899.56611,1634835899.58033,109.197797527313,4.29226541519165,113.499402036667,115.600184431076,0.3,116.733941307068,0.967027187347412,117.703346004486,3,right,0.946287870407104,117.700968494415,604.482500066757,607.242500066757,1634836011.52391,1634836011.52644,1634836015.82551,1634836015.83766,1634836017.92629,1634836019.06005,1634836019.06216,1634836020.02945,1634836020.02708,1634836506.80861,0
84,4,1,3,7,3,1,c1_WhyFace,1,proud?,97,F_582.jpg,1634835899.56611,1634835899.58033,109.197797527313,4.29226541519165,113.499402036667,115.600184431076,0.3,118.017753353119,0.600224256515503,118.628355970383,1,left,0.585003852844238,118.617977609634,604.482500066757,607.242500066757,1634836011.52391,1634836011.52644,1634836015.82551,1634836015.83766,1634836017.92629,1634836020.34386,1634836020.3462,1634836020.95446,1634836020.94409,1634836506.80861,1
84,4,1,3,7,4,1,c1_WhyFace,2,proud?,98,F_412.jpg,1634835899.56611,1634835899.58033,109.197797527313,4.29226541519165,113.499402036667,115.600184431076,0.3,118.934762229919,0.633569002151489,119.570588102341,3,right,0.609111070632935,119.568331232071,604.482500066757,607.242500066757,1634836011.52391,1634836011.52644,1634836015.82551,1634836015.83766,1634836017.92629,1634836021.26087,1634836021.26336,1634836021.8967,1634836021.89444,1634836506.80861,0
84,4,1,3,7,5,1,c1_WhyFace,1,proud?,101,F_083.jpg,1634835899.56611,1634835899.58033,109.197797527313,4.29226541519165,113.499402036667,115.600184431076,0.3,119.885116567612,0.766952753067017,120.661455144882,1,left,0.747838020324707,120.652069320679,604.482500066757,607.242500066757,1634836011.52391,1634836011.52644,1634836015.82551,1634836015.83766,1634836017.92629,1634836022.21123,1634836022.21373,1634836022.98756,1634836022.97818,1634836506.80861,1
84,4,1,3,7,6,1,c1_WhyFace,2,proud?,100,F_776.jpg,1634835899.56611,1634835899.58033,109.197797527313,4.29226541519165,113.499402036667,115.600184431076,0.3,120.968853225708,0.950354814529419,121.921220054626,3,right,0.930756092071533,121.919208040237,604.482500066757,607.242500066757,1634836011.52391,1634836011.52644,1634836015.82551,1634836015.83766,1634836017.92629,1634836023.29496,1634836023.29735,1634836024.24733,1634836024.24532,1634836506.80861,0
84,4,1,3,7,7,1,c1_WhyFace,1,proud?,103,F_618.jpg,1634835899.56611,1634835899.58033,109.197797527313,4.29226541519165,113.499402036667,115.600184431076,0.3,122.235992660522,1.16710233688354,123.411597957611,1,left,1.14871287345886,123.403094997406,604.482500066757,607.242500066757,1634836011.52391,1634836011.52644,1634836015.82551,1634836015.83766,1634836017.92629,1634836024.5621,1634836024.56446,1634836025.73771,1634836025.7292,1634836506.80861,1
84,4,1,3,7,8,1,c1_WhyFace,1,proud?,99,F_695.jpg,1634835899.56611,1634835899.58033,109.197797527313,4.29226541519165,113.499402036667,115.600184431076,0.3,123.719879379272,1.25046753883362,124.978391160965,1,left,1.24114394187927,124.970346918106,604.482500066757,607.242500066757,1634836011.52391,1634836011.52644,1634836015.82551,1634836015.83766,1634836017.92629,1634836026.04599,1634836026.04793,1634836027.3045,1634836027.29646,1634836506.80861,1
84,4,1,3,8,1,3,c3_HowFace,1,looking to side?,72,F_590.jpg,1634835899.56611,1634835899.58033,125.070383300781,5.9496648311615,131.039276828766,133.123386135101,2.08410930633545,133.273442020416,0.600224494934082,133.878126134872,1,left,0.576917886734009,133.87366651535,604.482500066757,607.242500066757,1634836027.39649,1634836027.40416,1634836033.36539,1634836033.36742,1634836035.4495,1634836035.59955,1634836035.60384,1634836036.20424,1634836036.19978,1634836506.80861,1
84,4,1,3,8,2,3,c3_HowFace,1,looking to side?,71,F_433.jpg,1634835899.56611,1634835899.58033,125.070383300781,5.9496648311615,131.039276828766,133.123386135101,0.3,134.190451850891,0.616895437240601,134.811772098541,1,left,0.597716093063354,134.807347288132,604.482500066757,607.242500066757,1634836027.39649,1634836027.40416,1634836033.36539,1634836033.36742,1634836035.4495,1634836036.51656,1634836036.52099,1634836037.13788,1634836037.13346,1634836506.80861,1
84,4,1,3,8,3,3,c3_HowFace,1,looking to side?,67,F_716.jpg,1634835899.56611,1634835899.58033,125.070383300781,5.9496648311615,131.039276828766,133.123386135101,0.3,135.124133338928,0.483513116836548,135.609930028915,1,left,0.456058025360107,135.607646455765,604.482500066757,607.242500066757,1634836027.39649,1634836027.40416,1634836033.36539,1634836033.36742,1634836035.4495,1634836037.45024,1634836037.45431,1634836037.93604,1634836037.93376,1634836506.80861,1
84,4,1,3,8,4,3,c3_HowFace,2,looking to side?,70,F_779.jpg,1634835899.56611,1634835899.58033,125.070383300781,5.9496648311615,131.039276828766,133.123386135101,0.3,135.924431791306,0.600223541259766,136.528115024567,1,left,0.586703062057495,136.524655332565,604.482500066757,607.242500066757,1634836027.39649,1634836027.40416,1634836033.36539,1634836033.36742,1634836035.4495,1634836038.25054,1634836038.25429,1634836038.85422,1634836038.85076,1634836506.80861,0
84,4,1,3,8,5,3,c3_HowFace,1,looking to side?,68,F_760.jpg,1634835899.56611,1634835899.58033,125.070383300781,5.9496648311615,131.039276828766,133.123386135101,0.3,136.841439476013,1.13375735282898,137.978132953644,1,left,1.12276005744934,137.975196828842,604.482500066757,607.242500066757,1634836027.39649,1634836027.40416,1634836033.36539,1634836033.36742,1634836035.4495,1634836039.16755,1634836039.17085,1634836040.30424,1634836040.30131,1634836506.80861,1
84,4,1,3,8,6,3,c3_HowFace,2,looking to side?,66,F_111.jpg,1634835899.56611,1634835899.58033,125.070383300781,5.9496648311615,131.039276828766,133.123386135101,0.3,138.291980257034,1.71730804443359,140.229151954651,3,right,1.91206116676331,140.009288301468,604.482500066757,607.242500066757,1634836027.39649,1634836027.40416,1634836033.36539,1634836033.36742,1634836035.4495,1634836040.61809,1634836040.62097,1634836042.55526,1634836042.3354,1634836506.80861,0
84,4,1,3,8,7,3,c3_HowFace,1,looking to side?,69,F_110.jpg,1634835899.56611,1634835899.58033,125.070383300781,5.9496648311615,131.039276828766,133.123386135101,0.3,140.326071491241,0.0166745185852051,140.344985952377,3,right,0.000396966934204102,140.342746009827,604.482500066757,607.242500066757,1634836027.39649,1634836027.40416,1634836033.36539,1634836033.36742,1634836035.4495,1634836042.65218,1634836042.65428,1634836042.67109,1634836042.66885,1634836506.80861,0
84,4,1,3,8,8,3,c3_HowFace,2,looking to side?,65,F_798.jpg,1634835899.56611,1634835899.58033,125.070383300781,5.9496648311615,131.039276828766,133.123386135101,0.3,140.659530153275,0.78362512588501,141.44547914505,1,left,0.773575067520142,141.44315527916,604.482500066757,607.242500066757,1634836027.39649,1634836027.40416,1634836033.36539,1634836033.36742,1634836035.4495,1634836042.98564,1634836042.98757,1634836043.77159,1634836043.76926,1634836506.80861,0
84,4,1,3,9,1,1,c1_WhyFace,1,argument?,43,F_716.jpg,1634835899.56611,1634835899.58033,141.543193569183,8.58487057685852,150.146401395798,152.230512609482,2.08411121368408,152.397240152359,1.1837751865387,153.583772172928,1,left,1.15952205657959,153.581015338898,604.482500066757,607.242500066757,1634836043.8693,1634836043.87153,1634836052.47251,1634836052.47462,1634836054.55662,1634836054.72335,1634836054.72552,1634836055.90988,1634836055.90712,1634836506.80861,1
84,4,1,3,9,2,1,c1_WhyFace,2,argument?,44,F_139.jpg,1634835899.56611,1634835899.58033,141.543193569183,8.58487057685852,150.146401395798,152.230512609482,0.3,153.897799959183,1.13375663757324,155.045298089981,3,right,1.11943101882935,155.031556596756,604.482500066757,607.242500066757,1634836043.8693,1634836043.87153,1634836052.47251,1634836052.47462,1634836054.55662,1634836056.22391,1634836056.22589,1634836057.37141,1634836057.35767,1634836506.80861,0
84,4,1,3,9,3,1,c1_WhyFace,1,argument?,41,F_712.jpg,1634835899.56611,1634835899.58033,141.543193569183,8.58487057685852,150.146401395798,152.230512609482,0.3,155.34834145546,0.716934204101562,156.067846050262,1,left,0.695374011993408,156.065275659561,604.482500066757,607.242500066757,1634836043.8693,1634836043.87153,1634836052.47251,1634836052.47462,1634836054.55662,1634836057.67445,1634836057.67689,1634836058.39395,1634836058.39138,1634836506.80861,1
84,4,1,3,9,4,1,c1_WhyFace,2,argument?,45,F_433.jpg,1634835899.56611,1634835899.58033,141.543193569183,8.58487057685852,150.146401395798,152.230512609482,0.3,156.382060518265,0.650241851806641,157.034528961182,3,right,0.635127067565918,157.032302370071,604.482500066757,607.242500066757,1634836043.8693,1634836043.87153,1634836052.47251,1634836052.47462,1634836054.55662,1634836058.70817,1634836058.7101,1634836059.36064,1634836059.35841,1634836506.80861,0
84,4,1,3,9,5,1,c1_WhyFace,1,argument?,42,F_403.jpg,1634835899.56611,1634835899.58033,141.543193569183,8.58487057685852,150.146401395798,152.230512609482,0.3,157.349086990356,0.616897344589233,157.96885799408,1,left,0.59217095375061,157.965984334946,604.482500066757,607.242500066757,1634836043.8693,1634836043.87153,1634836052.47251,1634836052.47462,1634836054.55662,1634836059.6752,1634836059.67721,1634836060.29497,1634836060.29209,1634836506.80861,1
84,4,1,3,9,6,1,c1_WhyFace,2,argument?,46,F_844.jpg,1634835899.56611,1634835899.58033,141.543193569183,8.58487057685852,150.146401395798,152.230512609482,0.3,158.282768716812,0.616896390914917,158.901966085434,3,right,0.599088907241821,158.899665107727,604.482500066757,607.242500066757,1634836043.8693,1634836043.87153,1634836052.47251,1634836052.47462,1634836054.55662,1634836060.60888,1634836060.61113,1634836061.22808,1634836061.22577,1634836506.80861,0
84,4,1,3,9,7,1,c1_WhyFace,1,argument?,47,F_743.jpg,1634835899.56611,1634835899.58033,141.543193569183,8.58487057685852,150.146401395798,152.230512609482,0.3,159.216451158524,0.650242328643799,159.869237174988,1,left,0.631777048110962,159.866693487167,604.482500066757,607.242500066757,1634836043.8693,1634836043.87153,1634836052.47251,1634836052.47462,1634836054.55662,1634836061.54256,1634836061.54471,1634836062.19535,1634836062.1928,1634836506.80861,1
84,4,1,3,9,8,1,c1_WhyFace,1,argument?,48,F_758.jpg,1634835899.56611,1634835899.58033,141.543193569183,8.58487057685852,150.146401395798,152.230512609482,0.3,160.183478107452,0.616896152496338,160.802639951706,3,right,0.598076105117798,160.800374259949,604.482500066757,607.242500066757,1634836043.8693,1634836043.87153,1634836052.47251,1634836052.47462,1634836054.55662,1634836062.50959,1634836062.5122,1634836063.12875,1634836063.12648,1634836506.80861,0
84,4,1,3,10,1,3,c3_HowFace,1,open mouth?,80,F_844.jpg,1634835899.56611,1634835899.58033,160.900412549973,7.06762957572937,167.986387243271,170.070498218536,2.0841109752655,170.237227430344,0.716934204101562,170.961502065659,1,left,0.70024585723877,170.954161634445,604.482500066757,607.242500066757,1634836063.22652,1634836063.23764,1634836070.3125,1634836070.31534,1634836072.39661,1634836072.56334,1634836072.56549,1634836073.28761,1634836073.28027,1634836506.80861,1
84,4,1,3,10,2,3,c3_HowFace,1,open mouth?,74,F_776.jpg,1634835899.56611,1634835899.58033,160.900412549973,7.06762957572937,167.986387243271,170.070498218536,0.3,171.270946016312,0.450167655944824,171.723433008194,1,left,0.42661714553833,171.721113672256,604.482500066757,607.242500066757,1634836063.22652,1634836063.23764,1634836070.3125,1634836070.31534,1634836072.39661,1634836073.59705,1634836073.59921,1634836074.04954,1634836074.04722,1634836506.80861,1
84,4,1,3,10,3,3,c3_HowFace,2,open mouth?,76,F_544.jpg,1634835899.56611,1634835899.58033,160.900412549973,7.06762957572937,167.986387243271,170.070498218536,0.3,172.037898054123,0.616897106170654,172.661815156937,3,right,0.605969190597534,172.654795160294,604.482500066757,607.242500066757,1634836063.22652,1634836063.23764,1634836070.3125,1634836070.31534,1634836072.39661,1634836074.36401,1634836074.36602,1634836074.98792,1634836074.9809,1634836506.80861,0
84,4,1,3,10,4,3,c3_HowFace,1,open mouth?,78,F_692.jpg,1634835899.56611,1634835899.58033,160.900412549973,7.06762957572937,167.986387243271,170.070498218536,0.3,172.971580257416,0.450168371200562,173.428069105148,1,left,0.439929008483887,173.421748628616,604.482500066757,607.242500066757,1634836063.22652,1634836063.23764,1634836070.3125,1634836070.31534,1634836072.39661,1634836075.29769,1634836075.30002,1634836075.75418,1634836075.74786,1634836506.80861,1
84,4,1,3,10,5,3,c3_HowFace,2,open mouth?,77,F_584.jpg,1634835899.56611,1634835899.58033,160.900412549973,7.06762957572937,167.986387243271,170.070498218536,0.3,173.738532533646,0.633569002151489,174.374408950806,3,right,0.610083103179932,174.372101535797,604.482500066757,607.242500066757,1634836063.22652,1634836063.23764,1634836070.3125,1634836070.31534,1634836072.39661,1634836076.06464,1634836076.06674,1634836076.70052,1634836076.69821,1634836506.80861,0
84,4,1,3,10,6,3,c3_HowFace,1,open mouth?,73,F_403.jpg,1634835899.56611,1634835899.58033,160.900412549973,7.06762957572937,167.986387243271,170.070498218536,0.3,174.688887348175,0.53353214263916,175.225067129135,1,left,0.509526968002319,175.222419490814,604.482500066757,607.242500066757,1634836063.22652,1634836063.23764,1634836070.3125,1634836070.31534,1634836072.39661,1634836077.015,1634836077.01712,1634836077.55118,1634836077.54853,1634836506.80861,1
84,4,1,3,10,7,3,c3_HowFace,1,open mouth?,75,F_086.jpg,1634835899.56611,1634835899.58033,160.900412549973,7.06762957572937,167.986387243271,170.070498218536,0.3,175.539204349518,0.66691517829895,176.211343040466,1,left,0.648650169372559,176.206119527817,604.482500066757,607.242500066757,1634836063.22652,1634836063.23764,1634836070.3125,1634836070.31534,1634836072.39661,1634836077.86531,1634836077.87085,1634836078.53745,1634836078.53223,1634836506.80861,1
84,4,1,3,10,8,3,c3_HowFace,2,open mouth?,79,F_648.jpg,1634835899.56611,1634835899.58033,160.900412549973,7.06762957572937,167.986387243271,170.070498218536,0.3,176.522904148102,0.733607292175293,177.26148103714,3,right,0.715872049331665,177.256511440277,604.482500066757,607.242500066757,1634836063.22652,1634836063.23764,1634836070.3125,1634836070.31534,1634836072.39661,1634836078.84901,1634836078.85419,1634836079.58759,1634836079.58262,1634836506.80861,0
84,4,1,3,11,1,4,c4_HowHand,1,pressing button?,88,H_019.jpg,1634835899.56611,1634835899.58033,177.356548776627,8.50157618522644,185.876392354965,187.960503568649,2.08411121368408,188.127231826782,0.633569717407227,188.762827148438,1,left,0.608949184417725,188.760801544189,604.482500066757,607.242500066757,1634836079.68266,1634836079.68773,1634836088.2025,1634836088.20521,1634836090.28661,1634836090.45334,1634836090.45535,1634836091.08894,1634836091.08691,1634836506.80861,1
84,4,1,3,11,2,4,c4_HowHand,2,pressing button?,87,H_024.jpg,1634835899.56611,1634835899.58033,177.356548776627,8.50157618522644,185.876392354965,187.960503568649,0.3,189.077586641312,0.800298452377319,189.879958143234,3,right,0.777873039245605,189.877885093689,604.482500066757,607.242500066757,1634836079.68266,1634836079.68773,1634836088.2025,1634836088.20521,1634836090.28661,1634836091.4037,1634836091.40568,1634836092.20607,1634836092.20399,1634836506.80861,0
84,4,1,3,11,3,4,c4_HowHand,2,pressing button?,85,H_130.jpg,1634835899.56611,1634835899.58033,177.356548776627,8.50157618522644,185.876392354965,187.960503568649,0.3,190.194669713974,0.66691517829895,190.86401008606,3,right,0.653204917907715,190.861584892273,604.482500066757,607.242500066757,1634836079.68266,1634836079.68773,1634836088.2025,1634836088.20521,1634836090.28661,1634836092.52078,1634836092.52314,1634836093.19012,1634836093.18769,1634836506.80861,0
84,4,1,3,11,4,4,c4_HowHand,1,pressing button?,83,H_502.jpg,1634835899.56611,1634835899.58033,177.356548776627,8.50157618522644,185.876392354965,187.960503568649,0.3,191.178370466232,0.50018572807312,191.680891981125,1,left,0.484890937805176,191.678556194305,604.482500066757,607.242500066757,1634836079.68266,1634836079.68773,1634836088.2025,1634836088.20521,1634836090.28661,1634836093.50448,1634836093.50653,1634836094.007,1634836094.00467,1634836506.80861,1
84,4,1,3,11,5,4,c4_HowHand,2,pressing button?,81,H_261.jpg,1634835899.56611,1634835899.58033,177.356548776627,8.50157618522644,185.876392354965,187.960503568649,0.3,191.995341053009,0.633570194244385,192.631004085541,3,right,0.620339155197144,192.628911247253,604.482500066757,607.242500066757,1634836079.68266,1634836079.68773,1634836088.2025,1634836088.20521,1634836090.28661,1634836094.32145,1634836094.32373,1634836094.95711,1634836094.95502,1634836506.80861,0
84,4,1,3,11,6,4,c4_HowHand,1,pressing button?,86,H_332.jpg,1634835899.56611,1634835899.58033,177.356548776627,8.50157618522644,185.876392354965,187.960503568649,0.3,192.945695867538,0.533532857894897,193.481525173187,1,left,0.51225209236145,193.479228725433,604.482500066757,607.242500066757,1634836079.68266,1634836079.68773,1634836088.2025,1634836088.20521,1634836090.28661,1634836095.2718,1634836095.27399,1634836095.80763,1634836095.80534,1634836506.80861,1
84,4,1,3,11,7,4,c4_HowHand,1,pressing button?,82,H_126.jpg,1634835899.56611,1634835899.58033,177.356548776627,8.50157618522644,185.876392354965,187.960503568649,0.3,193.796013822556,0.816971063613892,194.615271081924,1,left,0.794970989227295,194.612984886169,604.482500066757,607.242500066757,1634836079.68266,1634836079.68773,1634836088.2025,1634836088.20521,1634836090.28661,1634836096.12212,1634836096.12444,1634836096.94138,1634836096.93909,1634836506.80861,1
84,4,1,3,11,8,4,c4_HowHand,1,pressing button?,84,H_483.jpg,1634835899.56611,1634835899.58033,177.356548776627,8.50157618522644,185.876392354965,187.960503568649,0.3,194.929769506454,0.7669517993927,195.711760988235,1,left,0.758030891418457,195.696721305847,604.482500066757,607.242500066757,1634836079.68266,1634836079.68773,1634836088.2025,1634836088.20521,1634836090.28661,1634836097.25588,1634836097.25795,1634836098.03787,1634836098.02283,1634836506.80861,1
84,4,1,3,12,1,2,c2_WhyHand,1,competing?,9,H_261.jpg,1634835899.56611,1634835899.58033,195.813431015015,7.83486413955688,203.66636013031,205.767143478394,2.1007833480835,205.917199602127,0.93368124961853,206.86155008316,3,right,0.923896074295044,206.850880851746,604.482500066757,607.242500066757,1634836098.13954,1634836098.14217,1634836105.99247,1634836105.99456,1634836108.09325,1634836108.24331,1634836108.24613,1634836109.18766,1634836109.17699,1634836506.80861,0
84,4,1,3,12,2,2,c2_WhyHand,2,competing?,12,H_483.jpg,1634835899.56611,1634835899.58033,195.813431015015,7.83486413955688,203.66636013031,205.767143478394,0.3,207.167666664124,1.11708235740662,208.287080039978,3,right,1.09516596794128,208.28474902153,604.482500066757,607.242500066757,1634836098.13954,1634836098.14217,1634836105.99247,1634836105.99456,1634836108.09325,1634836109.49378,1634836109.4959,1634836110.61319,1634836110.61086,1634836506.80861,0
84,4,1,3,12,3,2,c2_WhyHand,1,competing?,14,H_132.jpg,1634835899.56611,1634835899.58033,195.813431015015,7.83486413955688,203.66636013031,205.767143478394,0.3,208.601534357071,0.566877603530884,209.178445091248,1,left,0.550723075866699,209.168411960602,604.482500066757,607.242500066757,1634836098.13954,1634836098.14217,1634836105.99247,1634836105.99456,1634836108.09325,1634836110.92764,1634836110.92983,1634836111.50455,1634836111.49452,1634836506.80861,1
84,4,1,3,12,4,2,c2_WhyHand,2,competing?,10,H_126.jpg,1634835899.56611,1634835899.58033,195.813431015015,7.83486413955688,203.66636013031,205.767143478394,0.3,209.485198011398,0.883661985397339,210.378934135437,3,right,0.86355996131897,210.368859996796,604.482500066757,607.242500066757,1634836098.13954,1634836098.14217,1634836105.99247,1634836105.99456,1634836108.09325,1634836111.81131,1634836111.81382,1634836112.70504,1634836112.69497,1634836506.80861,0
84,4,1,3,12,5,2,c2_WhyHand,1,competing?,16,H_136.jpg,1634835899.56611,1634835899.58033,195.813431015015,7.83486413955688,203.66636013031,205.767143478394,0.3,210.685644378662,0.866989612579346,211.561902036667,1,left,0.848578929901123,211.552633991241,604.482500066757,607.242500066757,1634836098.13954,1634836098.14217,1634836105.99247,1634836105.99456,1634836108.09325,1634836113.01175,1634836113.01394,1634836113.88801,1634836113.87874,1634836506.80861,1
84,4,1,3,12,6,2,c2_WhyHand,2,competing?,11,H_502.jpg,1634835899.56611,1634835899.58033,195.813431015015,7.83486413955688,203.66636013031,205.767143478394,0.3,211.869419565201,0.700260639190674,212.57823299408,3,right,0.681149959564209,212.569680204391,604.482500066757,607.242500066757,1634836098.13954,1634836098.14217,1634836105.99247,1634836105.99456,1634836108.09325,1634836114.19553,1634836114.19787,1634836114.90434,1634836114.89579,1634836506.80861,0
84,4,1,3,12,7,2,c2_WhyHand,1,competing?,13,H_003.jpg,1634835899.56611,1634835899.58033,195.813431015015,7.83486413955688,203.66636013031,205.767143478394,0.3,212.886465301514,0.583550930023193,213.478396167755,1,left,0.566346883773804,213.470016231537,604.482500066757,607.242500066757,1634836098.13954,1634836098.14217,1634836105.99247,1634836105.99456,1634836108.09325,1634836115.21257,1634836115.21468,1634836115.80451,1634836115.79613,1634836506.80861,1
84,4,1,3,12,8,2,c2_WhyHand,1,competing?,15,H_170.jpg,1634835899.56611,1634835899.58033,195.813431015015,7.83486413955688,203.66636013031,205.767143478394,0.3,213.786801328659,0.61689567565918,214.411636104584,1,left,0.603265047073364,214.403697004318,604.482500066757,607.242500066757,1634836098.13954,1634836098.14217,1634836105.99247,1634836105.99456,1634836108.09325,1634836116.11291,1634836116.115,1634836116.73775,1634836116.72981,1634836506.80861,1
84,4,1,3,13,1,1,c1_WhyFace,1,self-doubt?,29,F_544.jpg,1634835899.56611,1634835899.58033,214.503735532761,7.21470260620117,221.723094215393,223.823877086639,2.10078287124634,223.97393201828,1.16710329055786,225.145365943909,3,right,1.1418399810791,225.141035308838,604.482500066757,607.242500066757,1634836116.82984,1634836116.83783,1634836124.0492,1634836124.05413,1634836126.14999,1634836126.30004,1634836126.3044,1634836127.47147,1634836127.46714,1634836506.80861,0
84,4,1,3,13,2,1,c1_WhyFace,2,self-doubt?,27,F_086.jpg,1634835899.56611,1634835899.58033,214.503735532761,7.21470260620117,221.723094215393,223.823877086639,0.3,225.457820644379,1.63394165039062,227.094912042618,3,right,1.60871291160583,227.091762294769,604.482500066757,607.242500066757,1634836116.82984,1634836116.83783,1634836124.0492,1634836124.05413,1634836126.14999,1634836127.78393,1634836127.7876,1634836129.42102,1634836129.41787,1634836506.80861,0
84,4,1,3,13,3,1,c1_WhyFace,1,self-doubt?,25,F_798.jpg,1634835899.56611,1634835899.58033,214.503735532761,7.21470260620117,221.723094215393,223.823877086639,0.3,227.408547391891,0.850317239761353,228.260987033844,1,left,0.823332071304321,228.258864631653,604.482500066757,607.242500066757,1634836116.82984,1634836116.83783,1634836124.0492,1634836124.05413,1634836126.14999,1634836129.73466,1634836129.73758,1634836130.5871,1634836130.58497,1634836506.80861,1
84,4,1,3,13,4,1,c1_WhyFace,1,self-doubt?,26,F_111.jpg,1634835899.56611,1634835899.58033,214.503735532761,7.21470260620117,221.723094215393,223.823877086639,0.3,228.575649251938,0.583551168441772,229.161489953995,1,left,0.555341005325317,229.15920042038,604.482500066757,607.242500066757,1634836116.82984,1634836116.83783,1634836124.0492,1634836124.05413,1634836126.14999,1634836130.90176,1634836130.90437,1634836131.4876,1634836131.48531,1634836506.80861,1
84,4,1,3,13,5,1,c1_WhyFace,2,self-doubt?,31,F_774.jpg,1634835899.56611,1634835899.58033,214.503735532761,7.21470260620117,221.723094215393,223.823877086639,0.3,229.475984563828,0.650242805480957,230.12833117485,3,right,0.628300189971924,230.126227369308,604.482500066757,607.242500066757,1634836116.82984,1634836116.83783,1634836124.0492,1634836124.05413,1634836126.14999,1634836131.80209,1634836131.80429,1634836132.45444,1634836132.45234,1634836506.80861,0
84,4,1,3,13,6,1,c1_WhyFace,1,self-doubt?,28,F_754.jpg,1634835899.56611,1634835899.58033,214.503735532761,7.21470260620117,221.723094215393,223.823877086639,0.3,230.443012704849,0.550204515457153,230.995529165268,1,left,0.528531074523926,230.993217220306,604.482500066757,607.242500066757,1634836116.82984,1634836116.83783,1634836124.0492,1634836124.05413,1634836126.14999,1634836132.76912,1634836132.77115,1634836133.32164,1634836133.31933,1634836506.80861,1
84,4,1,3,13,7,1,c1_WhyFace,2,self-doubt?,32,F_128.jpg,1634835899.56611,1634835899.58033,214.503735532761,7.21470260620117,221.723094215393,223.823877086639,0.3,231.310002317429,0.516860246658325,231.828905096054,3,right,0.493319034576416,231.826862564087,604.482500066757,607.242500066757,1634836116.82984,1634836116.83783,1634836124.0492,1634836124.05413,1634836126.14999,1634836133.63611,1634836133.63821,1634836134.15501,1634836134.15297,1634836506.80861,0
84,4,1,3,13,8,1,c1_WhyFace,1,self-doubt?,30,F_584.jpg,1634835899.56611,1634835899.58033,214.503735532761,7.21470260620117,221.723094215393,223.823877086639,0.3,232.143647422791,0.716933012008667,232.8784100914,1,left,0.707672119140625,232.860580434799,604.482500066757,607.242500066757,1634836116.82984,1634836116.83783,1634836124.0492,1634836124.05413,1634836126.14999,1634836134.46976,1634836134.47173,1634836135.20452,1634836135.18669,1634836506.80861,1
84,4,1,3,14,1,3,c3_HowFace,1,looking at camera?,64,F_128.jpg,1634835899.56611,1634835899.58033,232.977291097641,7.79478001594543,240.780199756622,242.880984296799,2.10078454017639,243.031039943695,0.483514308929443,243.528350105286,1,left,0.469470977783203,243.514554252625,604.482500066757,607.242500066757,1634836135.3034,1634836135.30566,1634836143.10631,1634836143.1087,1634836145.20709,1634836145.35715,1634836145.35915,1634836145.85446,1634836145.84066,1634836506.80861,1
84,4,1,3,14,2,3,c3_HowFace,1,looking at camera?,60,F_618.jpg,1634835899.56611,1634835899.58033,232.977291097641,7.79478001594543,240.780199756622,242.880984296799,0.3,243.831338396072,0.533532857894897,244.367154111862,1,left,0.510065078735352,244.364871253967,604.482500066757,607.242500066757,1634836135.3034,1634836135.30566,1634836143.10631,1634836143.1087,1634836145.20709,1634836146.15745,1634836146.15954,1634836146.69326,1634836146.69098,1634836506.80861,1
84,4,1,3,14,3,3,c3_HowFace,1,looking at camera?,62,F_598.jpg,1634835899.56611,1634835899.58033,232.977291097641,7.79478001594543,240.780199756622,242.880984296799,0.3,244.681655158997,0.500186920166016,245.183984985352,1,left,0.470273017883301,245.181842079163,604.482500066757,607.242500066757,1634836135.3034,1634836135.30566,1634836143.10631,1634836143.1087,1634836145.20709,1634836147.00776,1634836147.00993,1634836147.51009,1634836147.50795,1634836506.80861,1
84,4,1,3,14,4,3,c3_HowFace,2,looking at camera?,63,F_743.jpg,1634835899.56611,1634835899.58033,232.977291097641,7.79478001594543,240.780199756622,242.880984296799,0.3,245.498628129959,0.766952514648438,246.268012990952,3,right,0.751824855804443,246.265580644608,604.482500066757,607.242500066757,1634836135.3034,1634836135.30566,1634836143.10631,1634836143.1087,1634836145.20709,1634836147.82474,1634836147.82671,1634836148.59412,1634836148.59169,1634836506.80861,0
84,4,1,3,14,5,3,c3_HowFace,1,looking at camera?,61,F_774.jpg,1634835899.56611,1634835899.58033,232.977291097641,7.79478001594543,240.780199756622,242.880984296799,0.3,246.582364549637,0.566878795623779,247.151610126495,1,left,0.548227071762085,247.149243345261,604.482500066757,607.242500066757,1634836135.3034,1634836135.30566,1634836143.10631,1634836143.1087,1634836145.20709,1634836148.90847,1634836148.9106,1634836149.47772,1634836149.47535,1634836506.80861,1
84,4,1,3,14,6,3,c3_HowFace,2,looking at camera?,57,F_582.jpg,1634835899.56611,1634835899.58033,232.977291097641,7.79478001594543,240.780199756622,242.880984296799,0.3,247.46602725029,1.05039215087891,248.528321018219,3,right,1.04064106941223,248.516419401169,604.482500066757,607.242500066757,1634836135.3034,1634836135.30566,1634836143.10631,1634836143.1087,1634836145.20709,1634836149.79214,1634836149.7943,1634836150.85443,1634836150.84253,1634836506.80861,0
84,4,1,3,14,7,3,c3_HowFace,2,looking at camera?,58,F_754.jpg,1634835899.56611,1634835899.58033,232.977291097641,7.79478001594543,240.780199756622,242.880984296799,0.3,248.83320306778,0.766953229904175,249.602291097641,3,right,0.745003938674927,249.600156297684,604.482500066757,607.242500066757,1634836135.3034,1634836135.30566,1634836143.10631,1634836143.1087,1634836145.20709,1634836151.15931,1634836151.16171,1634836151.9284,1634836151.92627,1634836506.80861,0
84,4,1,3,14,8,3,c3_HowFace,1,looking at camera?,59,F_129.jpg,1634835899.56611,1634835899.58033,232.977291097641,7.79478001594543,240.780199756622,242.880984296799,0.3,249.916941156387,0.533533096313477,250.461654176712,1,left,0.521059036254883,250.450474252701,604.482500066757,607.242500066757,1634836135.3034,1634836135.30566,1634836143.10631,1634836143.1087,1634836145.20709,1634836152.24305,1634836152.24578,1634836152.78776,1634836152.77658,1634836506.80861,1
84,4,1,3,15,1,4,c4_HowHand,1,both hands?,123,H_167.jpg,1634835899.56611,1634835899.58033,250.567184915543,8.99490904808044,259.570541133881,261.67132519722,2.10078406333923,261.821380367279,0.800298929214478,262.624102106094,1,left,0.770031929016113,262.621679296494,604.482500066757,607.242500066757,1634836152.89329,1634836152.8954,1634836161.89665,1634836161.90424,1634836163.99743,1634836164.14749,1634836164.15427,1634836164.95021,1634836164.94779,1634836506.80861,1
84,4,1,3,15,2,4,c4_HowHand,2,both hands?,121,H_091.jpg,1634835899.56611,1634835899.58033,250.567184915543,8.99490904808044,259.570541133881,261.67132519722,0.3,262.938463916779,0.750280857086182,263.690842142105,3,right,0.727816820144653,263.688744773865,604.482500066757,607.242500066757,1634836152.89329,1634836152.8954,1634836161.89665,1634836161.90424,1634836163.99743,1634836165.26457,1634836165.2667,1634836166.01695,1634836166.01485,1634836506.80861,0
84,4,1,3,15,3,4,c4_HowHand,2,both hands?,125,H_627.jpg,1634835899.56611,1634835899.58033,250.567184915543,8.99490904808044,259.570541133881,261.67132519722,0.3,264.005529155731,1.01704525947571,265.028077116013,3,right,0.998536109924316,265.022574415207,604.482500066757,607.242500066757,1634836152.89329,1634836152.8954,1634836161.89665,1634836161.90424,1634836163.99743,1634836166.33164,1634836166.33379,1634836167.35419,1634836167.34868,1634836506.80861,0
84,4,1,3,15,4,4,c4_HowHand,1,both hands?,128,H_027.jpg,1634835899.56611,1634835899.58033,250.567184915543,8.99490904808044,259.570541133881,261.67132519722,0.3,265.339359035492,0.883663177490234,266.228265037537,1,left,0.858222007751465,266.223022212982,604.482500066757,607.242500066757,1634836152.89329,1634836152.8954,1634836161.89665,1634836161.90424,1634836163.99743,1634836167.66547,1634836167.67135,1634836168.55437,1634836168.54913,1634836506.80861,1
84,4,1,3,15,5,4,c4_HowHand,1,both hands?,122,H_111.jpg,1634835899.56611,1634835899.58033,250.567184915543,8.99490904808044,259.570541133881,261.67132519722,0.3,266.539807786942,0.583550453186035,267.128116121292,1,left,0.565732955932617,267.123358240128,604.482500066757,607.242500066757,1634836152.89329,1634836152.8954,1634836161.89665,1634836161.90424,1634836163.99743,1634836168.86592,1634836168.87107,1634836169.45423,1634836169.44947,1634836506.80861,1
84,4,1,3,15,6,4,c4_HowHand,2,both hands?,126,H_159.jpg,1634835899.56611,1634835899.58033,250.567184915543,8.99490904808044,259.570541133881,261.67132519722,0.3,267.440143098831,0.683588743209839,268.127823104858,3,right,0.668792009353638,268.123731842041,604.482500066757,607.242500066757,1634836152.89329,1634836152.8954,1634836161.89665,1634836161.90424,1634836163.99743,1634836169.76625,1634836169.77123,1634836170.45393,1634836170.44984,1634836506.80861,0
84,4,1,3,15,7,4,c4_HowHand,1,both hands?,124,H_581.jpg,1634835899.56611,1634835899.58033,250.567184915543,8.99490904808044,259.570541133881,261.67132519722,0.3,268.440516223907,0.833644390106201,269.278015127182,1,left,0.822591066360474,269.274160614014,604.482500066757,607.242500066757,1634836152.89329,1634836152.8954,1634836161.89665,1634836161.90424,1634836163.99743,1634836170.76663,1634836170.77097,1634836171.60412,1634836171.60027,1634836506.80861,1
84,4,1,3,15,8,4,c4_HowHand,1,both hands?,127,H_349.jpg,1634835899.56611,1634835899.58033,250.567184915543,8.99490904808044,259.570541133881,261.67132519722,0.3,269.590945472717,0.633569240570068,270.22825097084,1,left,0.608642816543579,270.224514713287,604.482500066757,607.242500066757,1634836152.89329,1634836152.8954,1634836161.89665,1634836161.90424,1634836163.99743,1634836171.91705,1634836171.92119,1634836172.55436,1634836172.55062,1634836506.80861,1
84,4,1,3,16,1,2,c2_WhyHand,1,self-protection?,89,H_443.jpg,1634835899.56611,1634835899.58033,270.324552288055,8.02752375602722,278.360882034302,280.461665620804,2.10078358650208,280.6117212677,1.06706500053406,281.680577983856,1,left,1.05447697639465,281.678786268234,604.482500066757,607.242500066757,1634836172.65066,1634836172.65429,1634836180.68699,1634836180.68929,1634836182.78777,1634836182.93783,1634836182.94033,1634836184.00669,1634836184.0049,1634836506.80861,1
84,4,1,3,16,2,2,c2_WhyHand,2,self-protection?,90,H_006.jpg,1634835899.56611,1634835899.58033,270.324552288055,8.02752375602722,278.360882034302,280.461665620804,0.3,281.995570173264,1.1837751865387,283.181498041153,3,right,1.15773320198059,283.179345359802,604.482500066757,607.242500066757,1634836172.65066,1634836172.65429,1634836180.68699,1634836180.68929,1634836182.78777,1634836184.32168,1634836184.32417,1634836185.50761,1634836185.50545,1634836506.80861,0
84,4,1,3,16,3,2,c2_WhyHand,1,self-protection?,91,H_581.jpg,1634835899.56611,1634835899.58033,270.324552288055,8.02752375602722,278.360882034302,280.461665620804,0.3,283.496129980087,0.600224494934082,284.099063148499,1,left,0.575670957565308,284.096354475021,604.482500066757,607.242500066757,1634836172.65066,1634836172.65429,1634836180.68699,1634836180.68929,1634836182.78777,1634836185.82224,1634836185.82451,1634836186.42517,1634836186.42246,1634836506.80861,1
84,4,1,3,16,4,2,c2_WhyHand,2,self-protection?,92,H_532.jpg,1634835899.56611,1634835899.58033,270.324552288055,8.02752375602722,278.360882034302,280.461665620804,0.3,284.413139572144,1.40052151679993,285.815904130936,3,right,1.38069295883179,285.813661088943,604.482500066757,607.242500066757,1634836172.65066,1634836172.65429,1634836180.68699,1634836180.68929,1634836182.78777,1634836186.73925,1634836186.74141,1634836188.14201,1634836188.13977,1634836506.80861,0
84,4,1,3,16,5,2,c2_WhyHand,1,self-protection?,96,H_027.jpg,1634835899.56611,1634835899.58033,270.324552288055,8.02752375602722,278.360882034302,280.461665620804,0.3,286.130446662903,0.866989850997925,286.999699106216,1,left,0.851454019546509,286.997436513901,604.482500066757,607.242500066757,1634836172.65066,1634836172.65429,1634836180.68699,1634836180.68929,1634836182.78777,1634836188.45656,1634836188.4591,1634836189.32581,1634836189.32355,1634836506.80861,1
84,4,1,3,16,6,2,c2_WhyHand,1,self-protection?,93,H_038.jpg,1634835899.56611,1634835899.58033,270.324552288055,8.02752375602722,278.360882034302,280.461665620804,0.3,287.314221372604,1.30048513412476,288.617213954926,1,left,1.28530597686768,288.614706506729,604.482500066757,607.242500066757,1634836172.65066,1634836172.65429,1634836180.68699,1634836180.68929,1634836182.78777,1634836189.64033,1634836189.64241,1634836190.94332,1634836190.94082,1634836506.80861,1
84,4,1,3,16,7,2,c2_WhyHand,2,self-protection?,95,H_332.jpg,1634835899.56611,1634835899.58033,270.324552288055,8.02752375602722,278.360882034302,280.461665620804,0.3,288.931491365433,1.00037312507629,289.934479942322,3,right,0.981110095977783,289.931864490509,604.482500066757,607.242500066757,1634836172.65066,1634836172.65429,1634836180.68699,1634836180.68929,1634836182.78777,1634836191.2576,1634836191.25976,1634836192.26059,1634836192.25797,1634836506.80861,0
84,4,1,3,16,8,2,c2_WhyHand,1,self-protection?,94,H_189.jpg,1634835899.56611,1634835899.58033,270.324552288055,8.02752375602722,278.360882034302,280.461665620804,0.3,290.248648633957,1.33383083343506,291.595183124542,1,left,1.3207950592041,291.582479467392,604.482500066757,607.242500066757,1634836172.65066,1634836172.65429,1634836180.68699,1634836180.68929,1634836182.78777,1634836192.57476,1634836192.57729,1634836193.92129,1634836193.90859,1634836506.80861,1
84,4,1,3,17,1,3,c3_HowFace,1,smiling?,118,F_759.jpg,1634835899.56611,1634835899.58033,291.699189653397,8.13295435905457,299.835556974411,301.936341753006,2.10078477859497,302.086395969391,0.41682243347168,302.511674156189,1,left,0.396501064300537,302.503218402863,604.482500066757,607.242500066757,1634836194.0253,1634836194.02736,1634836202.16167,1634836202.17068,1634836204.26245,1634836204.4125,1634836204.42118,1634836204.83778,1634836204.82933,1634836506.80861,1
84,4,1,3,17,2,3,c3_HowFace,2,smiling?,114,F_412.jpg,1634835899.56611,1634835899.58033,291.699189653397,8.13295435905457,299.835556974411,301.936341753006,0.3,302.820003738403,0.683587312698364,303.511665096283,3,right,0.665150165557861,303.503591051102,604.482500066757,607.242500066757,1634836194.0253,1634836194.02736,1634836202.16167,1634836202.17068,1634836204.26245,1634836205.14611,1634836205.14844,1634836205.83777,1634836205.8297,1634836506.80861,0
84,4,1,3,17,3,3,c3_HowFace,1,smiling?,117,F_593.jpg,1634835899.56611,1634835899.58033,291.699189653397,8.13295435905457,299.835556974411,301.936341753006,0.3,303.820376386642,0.466840505599976,304.289288988113,1,left,0.442637920379639,304.287216892242,604.482500066757,607.242500066757,1634836194.0253,1634836194.02736,1634836202.16167,1634836202.17068,1634836204.26245,1634836206.14649,1634836206.14861,1634836206.6154,1634836206.61333,1634836506.80861,1
84,4,1,3,17,4,3,c3_HowFace,2,smiling?,113,F_712.jpg,1634835899.56611,1634835899.58033,291.699189653397,8.13295435905457,299.835556974411,301.936341753006,0.3,304.60400270462,0.433494567871094,305.044986000061,3,right,0.414952993392944,305.037497272491,604.482500066757,607.242500066757,1634836194.0253,1634836194.02736,1634836202.16167,1634836202.17068,1634836204.26245,1634836206.93011,1634836206.93242,1634836207.37109,1634836207.36361,1634836506.80861,0
84,4,1,3,17,5,3,c3_HowFace,1,smiling?,115,F_695.jpg,1634835899.56611,1634835899.58033,291.699189653397,8.13295435905457,299.835556974411,301.936341753006,0.3,305.354282846451,0.416821718215942,305.778118124008,1,left,0.406515836715698,305.771104564667,604.482500066757,607.242500066757,1634836194.0253,1634836194.02736,1634836202.16167,1634836202.17068,1634836204.26245,1634836207.68039,1634836207.6828,1634836208.10423,1634836208.09721,1634836506.80861,1
84,4,1,3,17,6,3,c3_HowFace,1,smiling?,119,F_139.jpg,1634835899.56611,1634835899.58033,291.699189653397,8.13295435905457,299.835556974411,301.936341753006,0.3,306.087887992859,0.616897106170654,306.707877149582,1,left,0.59354305267334,306.70478509903,604.482500066757,607.242500066757,1634836194.0253,1634836194.02736,1634836202.16167,1634836202.17068,1634836204.26245,1634836208.414,1634836208.41594,1634836209.03399,1634836209.03089,1634836506.80861,1
84,4,1,3,17,7,3,c3_HowFace,1,smiling?,116,F_083.jpg,1634835899.56611,1634835899.58033,291.699189653397,8.13295435905457,299.835556974411,301.936341753006,0.3,307.021570672989,0.633568525314331,307.657345046997,1,left,0.610399007797241,307.655139198303,604.482500066757,607.242500066757,1634836194.0253,1634836194.02736,1634836202.16167,1634836202.17068,1634836204.26245,1634836209.34768,1634836209.34984,1634836209.98345,1634836209.98125,1634836506.80861,1
84,4,1,3,17,8,3,c3_HowFace,2,smiling?,120,F_758.jpg,1634835899.56611,1634835899.58033,291.699189653397,8.13295435905457,299.835556974411,301.936341753006,0.3,307.971925487518,0.666914463043213,308.645079126358,3,right,0.651769161224365,308.638839950562,604.482500066757,607.242500066757,1634836194.0253,1634836194.02736,1634836202.16167,1634836202.17068,1634836204.26245,1634836210.29803,1634836210.3008,1634836210.97119,1634836210.96495,1634836506.80861,0
84,4,1,3,18,1,1,c1_WhyFace,1,admiring?,1,F_593.jpg,1634835899.56611,1634835899.58033,308.755550613403,8.86653232574463,317.625525226593,319.726307859421,2.10078263282776,319.876364459991,1.06706237792969,320.945523967743,1,left,1.04980206489563,320.943426837921,604.482500066757,607.242500066757,1634836211.08166,1634836211.08389,1634836219.95163,1634836219.95421,1634836222.05242,1634836222.20247,1634836222.20448,1634836223.27163,1634836223.26954,1634836506.80861,1
84,4,1,3,18,2,1,c1_WhyFace,2,admiring?,2,F_129.jpg,1634835899.56611,1634835899.58033,308.755550613403,8.86653232574463,317.625525226593,319.726307859421,0.3,321.260213365555,0.416822195053101,321.679357995987,1,left,0.393203020095825,321.677035560608,604.482500066757,607.242500066757,1634836211.08166,1634836211.08389,1634836219.95163,1634836219.95421,1634836222.05242,1634836223.58632,1634836223.58847,1634836224.00547,1634836224.00314,1634836506.80861,0
84,4,1,3,18,3,1,c1_WhyFace,1,admiring?,5,F_759.jpg,1634835899.56611,1634835899.58033,308.755550613403,8.86653232574463,317.625525226593,319.726307859421,0.3,321.993820896149,0.0166723728179932,322.012472143173,1,left,0.000327110290527344,322.010493268967,604.482500066757,607.242500066757,1634836211.08166,1634836211.08389,1634836219.95163,1634836219.95421,1634836222.05242,1634836224.31993,1634836224.32278,1634836224.33858,1634836224.3366,1634836506.80861,1
84,4,1,3,18,4,1,c1_WhyFace,2,admiring?,6,F_692.jpg,1634835899.56611,1634835899.58033,308.755550613403,8.86653232574463,317.625525226593,319.726307859421,0.3,322.327278604507,0.950353860855103,323.279880990982,3,right,0.930999994277954,323.277632465363,604.482500066757,607.242500066757,1634836211.08166,1634836211.08389,1634836219.95163,1634836219.95421,1634836222.05242,1634836224.65339,1634836224.65546,1634836225.60599,1634836225.60374,1634836506.80861,0
84,4,1,3,18,5,1,c1_WhyFace,1,admiring?,4,F_779.jpg,1634835899.56611,1634835899.58033,308.755550613403,8.86653232574463,317.625525226593,319.726307859421,0.3,323.594417324066,0.633569478988647,324.230303993225,1,left,0.612528085708618,324.227986803055,604.482500066757,607.242500066757,1634836211.08166,1634836211.08389,1634836219.95163,1634836219.95421,1634836222.05242,1634836225.92053,1634836225.92266,1634836226.55641,1634836226.5541,1634836506.80861,1
84,4,1,3,18,6,1,c1_WhyFace,1,admiring?,8,F_590.jpg,1634835899.56611,1634835899.58033,308.755550613403,8.86653232574463,317.625525226593,319.726307859421,0.3,324.544771900177,0.633569955825806,325.180503120422,1,left,0.608543872833252,325.178341856003,604.482500066757,607.242500066757,1634836211.08166,1634836211.08389,1634836219.95163,1634836219.95421,1634836222.05242,1634836226.87088,1634836226.87322,1634836227.50661,1634836227.50445,1634836506.80861,1
84,4,1,3,18,7,1,c1_WhyFace,1,admiring?,7,F_648.jpg,1634835899.56611,1634835899.58033,308.755550613403,8.86653232574463,317.625525226593,319.726307859421,0.3,325.495126237869,0.683588027954102,326.180888166428,1,left,0.659741163253784,326.178714265823,604.482500066757,607.242500066757,1634836211.08166,1634836211.08389,1634836219.95163,1634836219.95421,1634836222.05242,1634836227.82124,1634836227.82288,1634836228.507,1634836228.50482,1634836506.80861,1
84,4,1,3,18,8,1,c1_WhyFace,2,admiring?,3,F_110.jpg,1634835899.56611,1634835899.58033,308.755550613403,8.86653232574463,317.625525226593,319.726307859421,0.3,326.495499601364,0.933680772781372,327.431462993622,3,right,0.914067029953003,327.429180374146,604.482500066757,607.242500066757,1634836211.08166,1634836211.08389,1634836219.95163,1634836219.95421,1634836222.05242,1634836228.82161,1634836228.82373,1634836229.75757,1634836229.75529,1634836506.80861,0
84,4,1,3,19,1,2,c2_WhyHand,1,competing?,9,H_261.jpg,1634835899.56611,1634835899.58033,327.545891275406,7.96619582176208,335.515530338287,337.616313686371,2.1007833480835,337.766369571686,1.7173068523407,NaN,0,NA,0,339.483676424026,604.482500066757,607.242500066757,1634836229.872,1634836229.87443,1634836237.84164,1634836237.85465,1634836239.94242,1634836240.09248,1634836240.10446,NaN,1634836241.80979,1634836506.80861,0
84,4,1,3,19,2,2,c2_WhyHand,1,competing?,15,H_170.jpg,1634835899.56611,1634835899.58033,327.545891275406,7.96619582176208,335.515530338287,337.616313686371,0.3,339.800461521149,1.71730732917786,NaN,0,NA,0,341.517768850327,604.482500066757,607.242500066757,1634836229.872,1634836229.87443,1634836237.84164,1634836237.85465,1634836239.94242,1634836242.12657,1634836242.12929,NaN,1634836243.84388,1634836506.80861,0
84,4,1,3,19,3,2,c2_WhyHand,2,competing?,12,H_483.jpg,1634835899.56611,1634835899.58033,327.545891275406,7.96619582176208,335.515530338287,337.616313686371,0.3,341.83455370903,0.06669020652771,341.90372013092,1,left,0.0423119068145752,341.901243915558,604.482500066757,607.242500066757,1634836229.872,1634836229.87443,1634836237.84164,1634836237.85465,1634836239.94242,1634836244.16066,1634836244.16278,1634836244.22983,1634836244.22735,1634836506.80861,0
84,4,1,3,19,4,2,c2_WhyHand,1,competing?,14,H_132.jpg,1634835899.56611,1634835899.58033,327.545891275406,7.96619582176208,335.515530338287,337.616313686371,0.3,342.218029251099,0.733607292175293,342.954017152786,1,left,0.710454940795898,342.951636543274,604.482500066757,607.242500066757,1634836229.872,1634836229.87443,1634836237.84164,1634836237.85465,1634836239.94242,1634836244.54414,1634836244.54617,1634836245.28013,1634836245.27775,1634836506.80861,1
84,4,1,3,19,5,2,c2_WhyHand,1,competing?,16,H_136.jpg,1634835899.56611,1634835899.58033,327.545891275406,7.96619582176208,335.515530338287,337.616313686371,0.3,343.26842092514,0.633569478988647,343.904416074753,1,left,0.61191201210022,343.901990404129,604.482500066757,607.242500066757,1634836229.872,1634836229.87443,1634836237.84164,1634836237.85465,1634836239.94242,1634836245.59453,1634836245.59666,1634836246.23053,1634836246.2281,1634836506.80861,1
84,4,1,3,19,6,2,c2_WhyHand,1,competing?,13,H_003.jpg,1634835899.56611,1634835899.58033,327.545891275406,7.96619582176208,335.515530338287,337.616313686371,0.3,344.218775024414,0.600224733352661,344.828423013687,1,left,0.587801933288574,344.818999757767,604.482500066757,607.242500066757,1634836229.872,1634836229.87443,1634836237.84164,1634836237.85465,1634836239.94242,1634836246.54488,1634836246.54723,1634836247.15453,1634836247.14511,1634836506.80861,1
84,4,1,3,19,7,2,c2_WhyHand,2,competing?,10,H_126.jpg,1634835899.56611,1634835899.58033,327.545891275406,7.96619582176208,335.515530338287,337.616313686371,0.3,345.135784378052,0.68358850479126,345.828296175003,3,right,0.672952890396118,345.819372882843,604.482500066757,607.242500066757,1634836229.872,1634836229.87443,1634836237.84164,1634836237.85465,1634836239.94242,1634836247.46189,1634836247.46456,1634836248.15441,1634836248.14548,1634836506.80861,0
84,4,1,3,19,8,2,c2_WhyHand,2,competing?,11,H_502.jpg,1634835899.56611,1634835899.58033,327.545891275406,7.96619582176208,335.515530338287,337.616313686371,0.3,346.136157264709,0.766952276229858,346.905327072144,3,right,0.744808912277222,346.903109540939,604.482500066757,607.242500066757,1634836229.872,1634836229.87443,1634836237.84164,1634836237.85465,1634836239.94242,1634836248.46227,1634836248.46474,1634836249.23144,1634836249.22922,1634836506.80861,0
84,4,1,3,20,1,4,c4_HowHand,1,reaching?,111,H_003.jpg,1634835899.56611,1634835899.58033,347.019819488525,9.97227168083191,357.006877174377,359.10766076088,2.10078358650208,359.257717838287,0.933680772781372,360.194425096512,1,left,0.923024892807007,360.191398611069,604.482500066757,607.242500066757,1634836249.34593,1634836249.34817,1634836259.33299,1634836259.33832,1634836261.43377,1634836261.58383,1634836261.58767,1634836262.52053,1634836262.51751,1634836506.80861,1
84,4,1,3,20,2,4,c4_HowHand,1,reaching?,110,H_364.jpg,1634835899.56611,1634835899.58033,347.019819488525,9.97227168083191,357.006877174377,359.10766076088,0.3,360.508183231354,0.533532619476318,361.045298089981,1,left,0.50956392288208,361.04171585083,604.482500066757,607.242500066757,1634836249.34593,1634836249.34817,1634836259.33299,1634836259.33832,1634836261.43377,1634836262.83429,1634836262.83795,1634836263.37141,1634836263.36782,1634836506.80861,1
84,4,1,3,20,3,4,c4_HowHand,2,reaching?,108,H_532.jpg,1634835899.56611,1634835899.58033,347.019819488525,9.97227168083191,357.006877174377,359.10766076088,0.3,361.358500471115,0.433494329452515,361.795097103119,1,left,0.417245864868164,361.791994800568,604.482500066757,607.242500066757,1634836249.34593,1634836249.34817,1634836259.33299,1634836259.33832,1634836261.43377,1634836263.68461,1634836263.68762,1634836264.12121,1634836264.1181,1634836506.80861,0
84,4,1,3,20,4,4,c4_HowHand,1,reaching?,106,H_006.jpg,1634835899.56611,1634835899.58033,347.019819488525,9.97227168083191,357.006877174377,359.10766076088,0.3,362.10877989769,0.0166738033294678,362.128267040253,1,left,0.000348806381225586,362.125453701019,604.482500066757,607.242500066757,1634836249.34593,1634836249.34817,1634836259.33299,1634836259.33832,1634836261.43377,1634836264.43489,1634836264.4376,1634836264.45438,1634836264.45156,1634836506.80861,1
84,4,1,3,20,5,4,c4_HowHand,2,reaching?,105,H_438.jpg,1634835899.56611,1634835899.58033,347.019819488525,9.97227168083191,357.006877174377,359.10766076088,0.3,362.442238082886,0.600223779678345,363.044847002029,1,left,0.576704978942871,363.042461862564,604.482500066757,607.242500066757,1634836249.34593,1634836249.34817,1634836259.33299,1634836259.33832,1634836261.43377,1634836264.76835,1634836264.77116,1634836265.37096,1634836265.36857,1634836506.80861,0
84,4,1,3,20,6,4,c4_HowHand,1,reaching?,107,H_007.jpg,1634835899.56611,1634835899.58033,347.019819488525,9.97227168083191,357.006877174377,359.10766076088,0.3,363.359246959686,0.800297260284424,364.161398162842,1,left,0.79068398475647,364.159544219971,604.482500066757,607.242500066757,1634836249.34593,1634836249.34817,1634836259.33299,1634836259.33832,1634836261.43377,1634836265.68536,1634836265.68756,1634836266.48751,1634836266.48565,1634836506.80861,1
84,4,1,3,20,7,4,c4_HowHand,1,reaching?,109,H_474.jpg,1634835899.56611,1634835899.58033,347.019819488525,9.97227168083191,357.006877174377,359.10766076088,0.3,364.476330509186,0.683587551116943,365.162325134277,1,left,0.659097194671631,365.159918060303,604.482500066757,607.242500066757,1634836249.34593,1634836249.34817,1634836259.33299,1634836259.33832,1634836261.43377,1634836266.80244,1634836266.80496,1634836267.48843,1634836267.48603,1634836506.80861,1
84,4,1,3,20,8,4,c4_HowHand,2,reaching?,112,H_132.jpg,1634835899.56611,1634835899.58033,347.019819488525,9.97227168083191,357.006877174377,359.10766076088,0.3,365.476702203751,1.3171591758728,366.811526050568,3,right,1.30778193473816,366.793861379623,604.482500066757,607.242500066757,1634836249.34593,1634836249.34817,1634836259.33299,1634836259.33832,1634836261.43377,1634836267.80281,1634836267.80493,1634836269.13763,1634836269.11997,1634836506.80861,0
84,4,1,3,21,1,3,c3_HowFace,1,open mouth?,73,F_403.jpg,1634835899.56611,1634835899.58033,366.927244415283,7.90485668182373,374.846863021851,376.94764708519,2.10078406333923,377.097703685761,0.566878318786621,377.66686009407,1,left,0.540449142456055,377.664582004547,604.482500066757,607.242500066757,1634836269.25335,1634836269.25578,1634836277.17297,1634836277.17539,1634836279.27376,1634836279.42381,1634836279.42603,1634836279.99297,1634836279.99069,1634836506.80861,1
84,4,1,3,21,2,3,c3_HowFace,2,open mouth?,79,F_648.jpg,1634835899.56611,1634835899.58033,366.927244415283,7.90485668182373,374.846863021851,376.94764708519,0.3,377.981366147995,0.650241613388062,378.645394077301,3,right,0.640008926391602,378.631607761383,604.482500066757,607.242500066757,1634836269.25335,1634836269.25578,1634836277.17297,1634836277.17539,1634836279.27376,1634836280.30748,1634836280.30984,1634836280.9715,1634836280.95772,1634836506.80861,0
84,4,1,3,21,3,3,c3_HowFace,1,open mouth?,74,F_776.jpg,1634835899.56611,1634835899.58033,366.927244415283,7.90485668182373,374.846863021851,376.94764708519,0.3,378.948393096924,0.483514785766602,379.444772949219,1,left,0.472146034240723,379.43190788269,604.482500066757,607.242500066757,1634836269.25335,1634836269.25578,1634836277.17297,1634836277.17539,1634836279.27376,1634836281.2745,1634836281.27635,1634836281.77088,1634836281.75802,1634836506.80861,1
84,4,1,3,21,4,3,c3_HowFace,2,open mouth?,77,F_584.jpg,1634835899.56611,1634835899.58033,366.927244415283,7.90485668182373,374.846863021851,376.94764708519,0.3,379.748692741394,0.50018572807312,380.251216163635,3,right,0.482276201248169,380.248878469467,604.482500066757,607.242500066757,1634836269.25335,1634836269.25578,1634836277.17297,1634836277.17539,1634836279.27376,1634836282.0748,1634836282.07731,1634836282.57733,1634836282.57499,1634836506.80861,0
84,4,1,3,21,5,3,c3_HowFace,1,open mouth?,80,F_844.jpg,1634835899.56611,1634835899.58033,366.927244415283,7.90485668182373,374.846863021851,376.94764708519,0.3,380.565663089752,0.466841220855713,381.034885158539,1,left,0.446293115615845,381.032504310608,604.482500066757,607.242500066757,1634836269.25335,1634836269.25578,1634836277.17297,1634836277.17539,1634836279.27376,1634836282.89177,1634836282.89392,1634836283.36099,1634836283.35861,1634836506.80861,1
84,4,1,3,21,6,3,c3_HowFace,1,open mouth?,78,F_692.jpg,1634835899.56611,1634835899.58033,366.927244415283,7.90485668182373,374.846863021851,376.94764708519,0.3,381.349289169312,0.333457469940186,381.684890022278,3,right,0.311909914016724,381.682746639252,604.482500066757,607.242500066757,1634836269.25335,1634836269.25578,1634836277.17297,1634836277.17539,1634836279.27376,1634836283.6754,1634836283.67751,1634836284.011,1634836284.00886,1634836506.80861,0
84,4,1,3,21,7,3,c3_HowFace,1,open mouth?,75,F_086.jpg,1634835899.56611,1634835899.58033,366.927244415283,7.90485668182373,374.846863021851,376.94764708519,0.3,381.9995307827,0.700261831283569,382.711632957459,1,left,0.68615198135376,382.699792613983,604.482500066757,607.242500066757,1634836269.25335,1634836269.25578,1634836277.17297,1634836277.17539,1634836279.27376,1634836284.32564,1634836284.32773,1634836285.03774,1634836285.0259,1634836506.80861,1
84,4,1,3,21,8,3,c3_HowFace,2,open mouth?,76,F_544.jpg,1634835899.56611,1634835899.58033,366.927244415283,7.90485668182373,374.846863021851,376.94764708519,0.3,383.016577234268,0.800298452377319,383.828042020798,3,right,0.787479162216187,383.816875686646,604.482500066757,607.242500066757,1634836269.25335,1634836269.25578,1634836277.17297,1634836277.17539,1634836279.27376,1634836285.34269,1634836285.34469,1634836286.15415,1634836286.14298,1634836506.80861,0
84,4,1,3,22,1,1,c1_WhyFace,1,argument?,42,F_403.jpg,1634835899.56611,1634835899.58033,383.933586349487,9.5745267868042,393.520494689941,395.621277084351,2.10078239440918,395.771334161758,1.25046467781067,397.028228034973,1,left,1.22531604766846,397.021798839569,604.482500066757,607.242500066757,1634836286.2597,1634836286.27117,1634836295.8466,1634836295.85432,1634836297.94739,1634836298.09744,1634836298.10437,1634836299.35434,1634836299.34791,1634836506.80861,1
84,4,1,3,22,2,1,c1_WhyFace,2,argument?,46,F_844.jpg,1634835899.56611,1634835899.58033,383.933586349487,9.5745267868042,393.520494689941,395.621277084351,0.3,397.338584413528,0.466840982437134,397.807616939545,1,left,0.445317029953003,397.805425395966,604.482500066757,607.242500066757,1634836286.2597,1634836286.27117,1634836295.8466,1634836295.85432,1634836297.94739,1634836299.66469,1634836299.66666,1634836300.13373,1634836300.13153,1634836506.80861,0
84,4,1,3,22,3,1,c1_WhyFace,1,argument?,41,F_712.jpg,1634835899.56611,1634835899.58033,383.933586349487,9.5745267868042,393.520494689941,395.621277084351,0.3,398.122210254669,0.83364462852478,398.961554040909,1,left,0.814103841781616,398.955854883194,604.482500066757,607.242500066757,1634836286.2597,1634836286.27117,1634836295.8466,1634836295.85432,1634836297.94739,1634836300.44832,1634836300.45047,1634836301.28766,1634836301.28196,1634836506.80861,1
84,4,1,3,22,4,1,c1_WhyFace,1,argument?,48,F_758.jpg,1634835899.56611,1634835899.58033,383.933586349487,9.5745267868042,393.520494689941,395.621277084351,0.3,399.272639503479,0.816971063613892,400.094840993881,1,left,0.798923969268799,400.089610567093,604.482500066757,607.242500066757,1634836286.2597,1634836286.27117,1634836295.8466,1634836295.85432,1634836297.94739,1634836301.59875,1634836301.60455,1634836302.42095,1634836302.41572,1634836506.80861,1
84,4,1,3,22,5,1,c1_WhyFace,2,argument?,45,F_433.jpg,1634835899.56611,1634835899.58033,383.933586349487,9.5745267868042,393.520494689941,395.621277084351,0.3,400.406395664215,0.800298690795898,401.211939086914,3,right,0.776013851165771,401.206694355011,604.482500066757,607.242500066757,1634836286.2597,1634836286.27117,1634836295.8466,1634836295.85432,1634836297.94739,1634836302.7325,1634836302.73752,1634836303.53805,1634836303.5328,1634836506.80861,0
84,4,1,3,22,6,1,c1_WhyFace,1,argument?,43,F_716.jpg,1634835899.56611,1634835899.58033,383.933586349487,9.5745267868042,393.520494689941,395.621277084351,0.3,401.523478498459,0.700261831283569,402.228316059113,1,left,0.680063962936401,402.223740329742,604.482500066757,607.242500066757,1634836286.2597,1634836286.27117,1634836295.8466,1634836295.85432,1634836297.94739,1634836303.84959,1634836303.85418,1634836304.55443,1634836304.54985,1634836506.80861,1
84,4,1,3,22,7,1,c1_WhyFace,2,argument?,44,F_139.jpg,1634835899.56611,1634835899.58033,383.933586349487,9.5745267868042,393.520494689941,395.621277084351,0.3,402.540524950027,0.633569240570068,403.178438177109,3,right,0.621690034866333,403.174094190598,604.482500066757,607.242500066757,1634836286.2597,1634836286.27117,1634836295.8466,1634836295.85432,1634836297.94739,1634836304.86663,1634836304.87103,1634836305.50455,1634836305.5002,1634836506.80861,0
84,4,1,3,22,8,1,c1_WhyFace,1,argument?,47,F_743.jpg,1634835899.56611,1634835899.58033,383.933586349487,9.5745267868042,393.520494689941,395.621277084351,0.3,403.490879526138,0.766952753067017,404.261878957748,1,left,0.740364074707031,404.257832279205,604.482500066757,607.242500066757,1634836286.2597,1634836286.27117,1634836295.8466,1634836295.85432,1634836297.94739,1634836305.81699,1634836305.82082,1634836306.58799,1634836306.58394,1634836506.80861,1
84,4,1,3,23,1,2,c2_WhyHand,1,helping?,39,H_024.jpg,1634835899.56611,1634835899.58033,404.37454246521,7.35355162620544,411.743957271576,413.844740619659,2.1007833480835,413.994796028137,1.26713943481445,415.264146080017,1,left,1.25412917137146,415.261935462952,604.482500066757,607.242500066757,1634836306.70065,1634836306.70445,1634836314.07007,1634836314.07276,1634836316.17085,1634836316.3209,1634836316.32303,1634836317.59026,1634836317.58804,1634836506.80861,1
84,4,1,3,23,2,2,c2_WhyHand,1,helping?,36,H_349.jpg,1634835899.56611,1634835899.58033,404.37454246521,7.35355162620544,411.743957271576,413.844740619659,0.3,415.578720083237,0.583550930023193,416.164579143524,1,left,0.571691989898682,416.16227101326,604.482500066757,607.242500066757,1634836306.70065,1634836306.70445,1634836314.07007,1634836314.07276,1634836316.17085,1634836317.90483,1634836317.90694,1634836318.49069,1634836318.48838,1634836506.80861,1
84,4,1,3,23,3,2,c2_WhyHand,1,helping?,38,H_077.jpg,1634835899.56611,1634835899.58033,404.37454246521,7.35355162620544,411.743957271576,413.844740619659,0.3,416.479056348801,0.650242567062378,417.131433954239,1,left,0.625236034393311,417.129298915863,604.482500066757,607.242500066757,1634836306.70065,1634836306.70445,1634836314.07007,1634836314.07276,1634836316.17085,1634836318.80517,1634836318.80716,1634836319.45754,1634836319.45541,1634836506.80861,1
84,4,1,3,23,4,2,c2_WhyHand,1,helping?,37,H_474.jpg,1634835899.56611,1634835899.58033,404.37454246521,7.35355162620544,411.743957271576,413.844740619659,0.3,417.446082820892,0.666917085647583,418.115267028809,1,left,0.642400979995728,418.11299990654,604.482500066757,607.242500066757,1634836306.70065,1634836306.70445,1634836314.07007,1634836314.07276,1634836316.17085,1634836319.77219,1634836319.77427,1634836320.44138,1634836320.43911,1634836506.80861,1
84,4,1,3,23,5,2,c2_WhyHand,2,helping?,33,H_091.jpg,1634835899.56611,1634835899.58033,404.37454246521,7.35355162620544,411.743957271576,413.844740619659,0.3,418.429783096313,0.933682441711426,419.378575077057,3,right,0.920526027679443,419.363465538025,604.482500066757,607.242500066757,1634836306.70065,1634836306.70445,1634836314.07007,1634836314.07276,1634836316.17085,1634836320.75589,1634836320.75816,1634836321.70468,1634836321.68957,1634836506.80861,0
84,4,1,3,23,6,2,c2_WhyHand,2,helping?,35,H_159.jpg,1634835899.56611,1634835899.58033,404.37454246521,7.35355162620544,411.743957271576,413.844740619659,0.3,419.680250873566,0.800297260284424,420.483177175522,3,right,0.780972957611084,420.48054813385,604.482500066757,607.242500066757,1634836306.70065,1634836306.70445,1634836314.07007,1634836314.07276,1634836316.17085,1634836322.00636,1634836322.00859,1634836322.80929,1634836322.80666,1634836506.80861,0
84,4,1,3,23,7,2,c2_WhyHand,1,helping?,34,H_111.jpg,1634835899.56611,1634835899.58033,404.37454246521,7.35355162620544,411.743957271576,413.844740619659,0.3,420.797332754135,0.5668785572052,421.37831615448,1,left,0.553883075714111,421.36421131134,604.482500066757,607.242500066757,1634836306.70065,1634836306.70445,1634836314.07007,1634836314.07276,1634836316.17085,1634836323.12344,1634836323.12597,1634836323.70443,1634836323.69032,1634836506.80861,1
84,4,1,3,23,8,2,c2_WhyHand,2,helping?,40,H_012.jpg,1634835899.56611,1634835899.58033,404.37454246521,7.35355162620544,411.743957271576,413.844740619659,0.3,421.680996408463,0.850317239761353,422.544954051971,3,right,0.836365938186646,422.531313648224,604.482500066757,607.242500066757,1634836306.70065,1634836306.70445,1634836314.07007,1634836314.07276,1634836316.17085,1634836324.00711,1634836324.00932,1634836324.87106,1634836324.85742,1634836506.80861,0
84,4,1,3,24,1,4,c4_HowHand,1,both hands?,122,H_111.jpg,1634835899.56611,1634835899.58033,422.664696683884,7.13346433639526,429.817363014221,431.901473751068,2.08411073684692,432.051530590057,0.53353214263916,432.587231149673,1,left,0.505341053009033,432.585062732697,604.482500066757,607.242500066757,1634836324.99081,1634836324.99308,1634836332.14347,1634836332.14664,1634836334.22758,1634836334.37764,1634836334.38762,1634836334.91334,1634836334.91117,1634836506.80861,1
84,4,1,3,24,2,4,c4_HowHand,1,both hands?,128,H_027.jpg,1634835899.56611,1634835899.58033,422.664696683884,7.13346433639526,429.817363014221,431.901473751068,0.3,432.9018475914,0.48351263999939,433.394647111893,1,left,0.473629951477051,433.3853602314,604.482500066757,607.242500066757,1634836324.99081,1634836324.99308,1634836332.14347,1634836332.14664,1634836334.22758,1634836335.22796,1634836335.23001,1634836335.72076,1634836335.71147,1634836506.80861,1
84,4,1,3,24,3,4,c4_HowHand,2,both hands?,121,H_091.jpg,1634835899.56611,1634835899.58033,422.664696683884,7.13346433639526,429.817363014221,431.901473751068,0.3,433.702145805359,0.68358850479126,434.388322105408,3,right,0.662060976028442,434.38573431015,604.482500066757,607.242500066757,1634836324.99081,1634836324.99308,1634836332.14347,1634836332.14664,1634836334.22758,1634836336.02825,1634836336.03041,1634836336.71443,1634836336.71184,1634836506.80861,0
84,4,1,3,24,4,4,c4_HowHand,1,both hands?,123,H_167.jpg,1634835899.56611,1634835899.58033,422.664696683884,7.13346433639526,429.817363014221,431.901473751068,0.3,434.702518930435,0.550205707550049,435.261530151367,1,left,0.536564826965332,435.252724637985,604.482500066757,607.242500066757,1634836324.99081,1634836324.99308,1634836332.14347,1634836332.14664,1634836334.22758,1634836337.02863,1634836337.03075,1634836337.58764,1634836337.57883,1634836506.80861,1
84,4,1,3,24,5,4,c4_HowHand,1,both hands?,124,H_581.jpg,1634835899.56611,1634835899.58033,422.664696683884,7.13346433639526,429.817363014221,431.901473751068,0.3,435.569508781433,0.866989374160767,436.445219984055,1,left,0.857597827911377,436.436498155594,604.482500066757,607.242500066757,1634836324.99081,1634836324.99308,1634836332.14347,1634836332.14664,1634836334.22758,1634836337.89562,1634836337.89792,1634836338.77133,1634836338.76261,1634836506.80861,1
84,4,1,3,24,6,4,c4_HowHand,2,both hands?,126,H_159.jpg,1634835899.56611,1634835899.58033,422.664696683884,7.13346433639526,429.817363014221,431.901473751068,0.3,436.753282775879,0.650243282318115,437.41188501358,3,right,0.639711141586304,437.403526058197,604.482500066757,607.242500066757,1634836324.99081,1634836324.99308,1634836332.14347,1634836332.14664,1634836334.22758,1634836339.07939,1634836339.08174,1634836339.73799,1634836339.72964,1634836506.80861,0
84,4,1,3,24,7,4,c4_HowHand,1,both hands?,127,H_349.jpg,1634835899.56611,1634835899.58033,422.664696683884,7.13346433639526,429.817363014221,431.901473751068,0.3,437.720311632156,0.600223064422607,438.328128089905,1,left,0.582956075668335,438.320534696579,604.482500066757,607.242500066757,1634836324.99081,1634836324.99308,1634836332.14347,1634836332.14664,1634836334.22758,1634836340.04642,1634836340.04884,1634836340.65424,1634836340.64664,1634836506.80861,1
84,4,1,3,24,8,4,c4_HowHand,2,both hands?,125,H_627.jpg,1634835899.56611,1634835899.58033,422.664696683884,7.13346433639526,429.817363014221,431.901473751068,0.3,438.637319078445,0.766953229904175,439.406682958603,3,right,0.742408990859985,439.40427230835,604.482500066757,607.242500066757,1634836324.99081,1634836324.99308,1634836332.14347,1634836332.14664,1634836334.22758,1634836340.96343,1634836340.96585,1634836341.73279,1634836341.73038,1634836506.80861,0
84,4,1,3,25,1,2,c2_WhyHand,1,healthy?,18,H_438.jpg,1634835899.56611,1634835899.58033,439.520982494354,7.79410767555237,447.323891868591,449.424675455093,2.10078358650208,449.574731578827,1.35050344467163,450.928084125519,1,left,1.339280128479,450.925235023499,604.482500066757,607.242500066757,1634836341.84709,1634836341.85435,1634836349.65,1634836349.65431,1634836351.75078,1634836351.90084,1634836351.90453,1634836353.25419,1634836353.25134,1634836506.80861,1
84,4,1,3,25,2,2,c2_WhyHand,1,healthy?,23,H_364.jpg,1634835899.56611,1634835899.58033,439.520982494354,7.79410767555237,447.323891868591,449.424675455093,0.3,451.242020120621,0.0166738033294678,451.261589994431,1,left,0.000395059585571289,451.25869392395,604.482500066757,607.242500066757,1634836341.84709,1634836341.85435,1634836349.65,1634836349.65431,1634836351.75078,1634836353.56813,1634836353.57088,1634836353.5877,1634836353.5848,1634836506.80861,1
84,4,1,3,25,3,2,c2_WhyHand,1,healthy?,17,H_362.jpg,1634835899.56611,1634835899.58033,439.520982494354,7.79410767555237,447.323891868591,449.424675455093,0.3,451.575477590561,0.733606576919556,452.311478128433,1,left,0.721058130264282,452.30908416748,604.482500066757,607.242500066757,1634836341.84709,1634836341.85435,1634836349.65,1634836349.65431,1634836351.75078,1634836353.90159,1634836353.90428,1634836354.63759,1634836354.63519,1634836506.80861,1
84,4,1,3,25,4,2,c2_WhyHand,2,healthy?,24,H_019.jpg,1634835899.56611,1634835899.58033,439.520982494354,7.79410767555237,447.323891868591,449.424675455093,0.3,452.625869264603,0.967027187347412,453.594884147644,3,right,0.94773006439209,453.59289645195,604.482500066757,607.242500066757,1634836341.84709,1634836341.85435,1634836349.65,1634836349.65431,1634836351.75078,1634836354.95198,1634836354.95422,1634836355.92099,1634836355.91901,1634836506.80861,0
84,4,1,3,25,5,2,c2_WhyHand,1,healthy?,19,H_167.jpg,1634835899.56611,1634835899.58033,439.520982494354,7.79410767555237,447.323891868591,449.424675455093,0.3,453.909680833817,0.533534049987793,454.445253124237,1,left,0.519523143768311,454.443214883804,604.482500066757,607.242500066757,1634836341.84709,1634836341.85435,1634836349.65,1634836349.65431,1634836351.75078,1634836356.23579,1634836356.238,1634836356.77136,1634836356.76932,1634836506.80861,1
84,4,1,3,25,6,2,c2_WhyHand,2,healthy?,20,H_007.jpg,1634835899.56611,1634835899.58033,439.520982494354,7.79410767555237,447.323891868591,449.424675455093,0.3,454.759998550415,0.500186443328857,455.262170066834,3,right,0.479327201843262,455.260184993744,604.482500066757,607.242500066757,1634836341.84709,1634836341.85435,1634836349.65,1634836349.65431,1634836351.75078,1634836357.08611,1634836357.08819,1634836357.58828,1634836357.58629,1634836506.80861,0
84,4,1,3,25,7,2,c2_WhyHand,1,healthy?,21,H_627.jpg,1634835899.56611,1634835899.58033,439.520982494354,7.79410767555237,447.323891868591,449.424675455093,0.3,455.576969137192,0.550205945968628,456.129273166657,1,left,0.530930042266846,456.12717508316,604.482500066757,607.242500066757,1634836341.84709,1634836341.85435,1634836349.65,1634836349.65431,1634836351.75078,1634836357.90308,1634836357.90492,1634836358.45538,1634836358.45328,1634836506.80861,1
84,4,1,3,25,8,2,c2_WhyHand,2,healthy?,22,H_130.jpg,1634835899.56611,1634835899.58033,439.520982494354,7.79410767555237,447.323891868591,449.424675455093,0.3,456.443959465027,0.566878795623779,457.013432970047,3,right,0.547770023345947,457.010838260651,604.482500066757,607.242500066757,1634836341.84709,1634836341.85435,1634836349.65,1634836349.65431,1634836351.75078,1634836358.77007,1634836358.77233,1634836359.33954,1634836359.33695,1634836506.80861,0
84,4,1,3,26,1,4,c4_HowHand,1,pressing button?,82,H_126.jpg,1634835899.56611,1634835899.58033,457.127548446655,9.24143052101135,466.380999078751,468.481782665253,2.10078358650208,468.631837835312,0.850317716598511,469.484742155075,1,left,0.832466125488281,469.48215555191,604.482500066757,607.242500066757,1634836359.45366,1634836359.45539,1634836368.70711,1634836368.70902,1634836370.80789,1634836370.95795,1634836370.96024,1634836371.81085,1634836371.80826,1634836506.80861,1
84,4,1,3,26,2,4,c4_HowHand,2,pressing button?,85,H_130.jpg,1634835899.56611,1634835899.58033,457.127548446655,9.24143052101135,466.380999078751,468.481782665253,0.3,469.798940172195,0.866990327835083,470.678346147537,3,right,0.856745004653931,470.665930500031,604.482500066757,607.242500066757,1634836359.45366,1634836359.45539,1634836368.70711,1634836368.70902,1634836370.80789,1634836372.12505,1634836372.12717,1634836373.00446,1634836372.99204,1634836506.80861,0
84,4,1,3,26,3,4,c4_HowHand,1,pressing button?,84,H_483.jpg,1634835899.56611,1634835899.58033,457.127548446655,9.24143052101135,466.380999078751,468.481782665253,0.3,470.982715835571,0.716933488845825,471.711899986267,1,left,0.705227851867676,471.699649324417,604.482500066757,607.242500066757,1634836359.45366,1634836359.45539,1634836368.70711,1634836368.70902,1634836370.80789,1634836373.30882,1634836373.31129,1634836374.03801,1634836374.02576,1634836506.80861,1
84,4,1,3,26,4,4,c4_HowHand,2,pressing button?,87,H_024.jpg,1634835899.56611,1634835899.58033,457.127548446655,9.24143052101135,466.380999078751,468.481782665253,0.3,472.016433229446,1.15043020248413,473.178220024109,3,right,1.13517498970032,473.166863431931,604.482500066757,607.242500066757,1634836359.45366,1634836359.45539,1634836368.70711,1634836368.70902,1634836370.80789,1634836374.34254,1634836374.34462,1634836375.50433,1634836375.49297,1634836506.80861,0
84,4,1,3,26,5,4,c4_HowHand,1,pressing button?,86,H_332.jpg,1634835899.56611,1634835899.58033,457.127548446655,9.24143052101135,466.380999078751,468.481782665253,0.3,473.483647813797,1.03371858596802,474.519806137085,1,left,1.01626920700073,474.517366399765,604.482500066757,607.242500066757,1634836359.45366,1634836359.45539,1634836368.70711,1634836368.70902,1634836370.80789,1634836375.80976,1634836375.81196,1634836376.84592,1634836376.84348,1634836506.80861,1
84,4,1,3,26,6,4,c4_HowHand,1,pressing button?,88,H_019.jpg,1634835899.56611,1634835899.58033,457.127548446655,9.24143052101135,466.380999078751,468.481782665253,0.3,474.834151258469,0.917008876800537,475.761650075912,1,left,0.902206182479858,475.751160135269,604.482500066757,607.242500066757,1634836359.45366,1634836359.45539,1634836368.70711,1634836368.70902,1634836370.80789,1634836377.16026,1634836377.16233,1634836378.08776,1634836378.07727,1634836506.80861,1
84,4,1,3,26,7,4,c4_HowHand,2,pressing button?,81,H_261.jpg,1634835899.56611,1634835899.58033,457.127548446655,9.24143052101135,466.380999078751,468.481782665253,0.3,476.06794380188,1.20044875144958,477.278828134537,3,right,1.1883749961853,477.268392553329,604.482500066757,607.242500066757,1634836359.45366,1634836359.45539,1634836368.70711,1634836368.70902,1634836370.80789,1634836378.39405,1634836378.39655,1634836379.60494,1634836379.5945,1634836506.80861,0
84,4,1,3,26,8,4,c4_HowHand,1,pressing button?,83,H_502.jpg,1634835899.56611,1634835899.58033,457.127548446655,9.24143052101135,466.380999078751,468.481782665253,0.3,477.585176935196,1.23379158973694,478.828364124298,1,left,1.22168302536011,478.818968524933,604.482500066757,607.242500066757,1634836359.45366,1634836359.45539,1634836368.70711,1634836368.70902,1634836370.80789,1634836379.91129,1634836379.91335,1634836381.15447,1634836381.14508,1634836506.80861,1
84,4,1,3,27,1,3,c3_HowFace,1,looking at camera?,60,F_618.jpg,1634835899.56611,1634835899.58033,478.952354421616,4.94678473472595,483.904200305939,486.004984846115,2.10078454017639,486.155039300919,0.516860008239746,486.678500165939,1,left,0.501506090164185,486.671899309158,604.482500066757,607.242500066757,1634836381.27846,1634836381.28085,1634836386.23031,1634836386.23771,1634836388.33109,1634836388.48115,1634836388.48768,1634836389.00461,1634836388.99801,1634836506.80861,1
84,4,1,3,27,2,3,c3_HowFace,2,looking at camera?,58,F_754.jpg,1634835899.56611,1634835899.58033,478.952354421616,4.94678473472595,483.904200305939,486.004984846115,0.3,486.988684406281,0.766951560974121,487.76138710022,3,right,0.755201101303101,487.755635967255,604.482500066757,607.242500066757,1634836381.27846,1634836381.28085,1634836386.23031,1634836386.23771,1634836388.33109,1634836389.31479,1634836389.31696,1634836390.0875,1634836390.08174,1634836506.80861,0
84,4,1,3,27,3,3,c3_HowFace,1,looking at camera?,59,F_129.jpg,1634835899.56611,1634835899.58033,478.952354421616,4.94678473472595,483.904200305939,486.004984846115,0.3,488.072420825958,0.516860246658325,488.595183124542,1,left,0.501194953918457,488.589281072617,604.482500066757,607.242500066757,1634836381.27846,1634836381.28085,1634836386.23031,1634836386.23771,1634836388.33109,1634836390.39853,1634836390.4046,1634836390.92129,1634836390.91539,1634836506.80861,1
84,4,1,3,27,4,3,c3_HowFace,1,looking at camera?,62,F_598.jpg,1634835899.56611,1634835899.58033,478.952354421616,4.94678473472595,483.904200305939,486.004984846115,0.3,488.906065692902,0.700261831283569,489.611799945831,1,left,0.686015129089355,489.606327524185,604.482500066757,607.242500066757,1634836381.27846,1634836381.28085,1634836386.23031,1634836386.23771,1634836388.33109,1634836391.23217,1634836391.23735,1634836391.93791,1634836391.93244,1634836506.80861,1
84,4,1,3,27,5,3,c3_HowFace,1,looking at camera?,64,F_128.jpg,1634835899.56611,1634835899.58033,478.952354421616,4.94678473472595,483.904200305939,486.004984846115,0.3,489.923111190796,0.683588981628418,490.611829032898,1,left,0.65926194190979,490.606700172424,604.482500066757,607.242500066757,1634836381.27846,1634836381.28085,1634836386.23031,1634836386.23771,1634836388.33109,1634836392.24922,1634836392.2542,1634836392.93794,1634836392.93281,1634836506.80861,1
84,4,1,3,27,6,3,c3_HowFace,2,looking at camera?,57,F_582.jpg,1634835899.56611,1634835899.58033,478.952354421616,4.94678473472595,483.904200305939,486.004984846115,0.3,490.923484315872,0.716933727264404,491.645082941055,3,right,0.701298952102661,491.640418043137,604.482500066757,607.242500066757,1634836381.27846,1634836381.28085,1634836386.23031,1634836386.23771,1634836388.33109,1634836393.24959,1634836393.25416,1634836393.97119,1634836393.96653,1634836506.80861,0
84,4,1,3,27,7,3,c3_HowFace,1,looking at camera?,61,F_774.jpg,1634835899.56611,1634835899.58033,478.952354421616,4.94678473472595,483.904200305939,486.004984846115,0.3,491.957203140259,0.583551406860352,492.544841995239,1,left,0.56852912902832,492.540754547119,604.482500066757,607.242500066757,1634836381.27846,1634836381.28085,1634836386.23031,1634836386.23771,1634836388.33109,1634836394.28331,1634836394.28747,1634836394.87095,1634836394.86686,1634836506.80861,1
