src_subject_id,session_id,run_id,param_counterbalance_ver,param_block_num,param_trial_num,param_cond_type_num,param_cond_type_string,param_normative_response,param_ques_type_string,param_image_num,param_image_filename,param_trigger_onset,param_start_biopac,event01_fixation,event01_fixation_dur,event01_blockquestion_onset,event01_block_isi_blacksreen,event01_blockquestion_dur,event02_image_onset,event02_image_dur,event03_response_onset,event03_response_key,event03_response_keyname,event03_RT,event04_shortquestion_onset,param_end_instruct_onset,param_experiment_duration,RAW_e1_fixation,RAW_e1_fixation_biopac,RAW_e1_blockquestion_onset,RAW_e1_blockquestion_onset_biopac,RAW_e1_block_isi_blacksreen,RAW_e2_image_onset,RAW_e2_image_onset_biopac,RAW_e3_response_onset,RAW_e4_shortquestion_onset,RAW_param_end_instruct_onset,accuracy
61,4,2,2,1,1,3,c3_HowFace,1,smiling?,115,F_695.jpg,1631133463.81939,1631133463.8218,0.019008626937866,0.0265102386474609,0.0523538494110105,2.11979245185852,2.06743860244751,2.26984762191772,0.950355052947998,3.22150491714478,1,left,0.931638956069946,3.22020267486572,604.494430770874,607.254430770874,1631133466.5984,1631133466.6038,1631133466.63174,1631133466.63434,1631133468.69918,1631133468.84924,1631133468.85163,1631133469.80089,1631133469.79959,1631134071.07382,1
61,4,2,2,1,2,3,c3_HowFace,2,smiling?,114,F_412.jpg,1631133463.81939,1631133463.8218,0.019008626937866,0.0265102386474609,0.0523538494110105,2.11979245185852,0.3,3.5369868183136,1.00037336349487,4.53965901374817,3,right,0.98509693145752,4.53736018180847,604.494430770874,607.254430770874,1631133466.5984,1631133466.6038,1631133466.63174,1631133466.63434,1631133468.69918,1631133470.11638,1631133470.11816,1631133471.11905,1631133471.11675,1631134071.07382,0
61,4,2,2,1,3,3,c3_HowFace,1,smiling?,117,F_593.jpg,1631133463.81939,1631133463.8218,0.019008626937866,0.0265102386474609,0.0523538494110105,2.11979245185852,0.3,4.85414504051209,0.700260877609253,5.55585192680359,1,left,0.68181300163269,5.55440591812134,604.494430770874,607.254430770874,1631133466.5984,1631133466.6038,1631133466.63174,1631133466.63434,1631133468.69918,1631133471.43354,1631133471.43503,1631133472.13524,1631133472.1338,1631134071.07382,1
61,4,2,2,1,4,3,c3_HowFace,1,smiling?,119,F_139.jpg,1631133463.81939,1631133463.8218,0.019008626937866,0.0265102386474609,0.0523538494110105,2.11979245185852,0.3,5.87119149208069,0.750279426574707,6.62272595405579,1,left,0.730880975723267,6.6214709186554,604.494430770874,607.254430770874,1631133466.5984,1631133466.6038,1631133466.63174,1631133466.63434,1631133468.69918,1631133472.45058,1631133472.45264,1631133473.20212,1631133473.20086,1631134071.07382,1
61,4,2,2,1,5,3,c3_HowFace,2,smiling?,113,F_712.jpg,1631133463.81939,1631133463.8218,0.019008626937866,0.0265102386474609,0.0523538494110105,2.11979245185852,0.3,6.93825601577759,0.816971063613892,7.75888394355774,3,right,0.791353940963745,7.75522707939148,604.494430770874,607.254430770874,1631133466.5984,1631133466.6038,1631133466.63174,1631133466.63434,1631133468.69918,1631133473.51765,1631133473.52016,1631133474.33827,1631133474.33462,1631134071.07382,0
61,4,2,2,1,6,3,c3_HowFace,1,smiling?,118,F_759.jpg,1631133463.81939,1631133463.8218,0.019008626937866,0.0265102386474609,0.0523538494110105,2.11979245185852,0.3,8.07201217651367,0.750280141830444,8.82375191688538,1,left,0.733645915985107,8.82229231834412,604.494430770874,607.254430770874,1631133466.5984,1631133466.6038,1631133466.63174,1631133466.63434,1631133468.69918,1631133474.6514,1631133474.65262,1631133475.40314,1631133475.40168,1631134071.07382,1
61,4,2,2,1,7,3,c3_HowFace,2,smiling?,120,F_758.jpg,1631133463.81939,1631133463.8218,0.019008626937866,0.0265102386474609,0.0523538494110105,2.11979245185852,0.3,9.13907646179199,0.833643913269043,9.97390603065491,3,right,0.812942981719971,9.97272037506104,604.494430770874,607.254430770874,1631133466.5984,1631133466.6038,1631133466.63174,1631133466.63434,1631133468.69918,1631133475.71847,1631133475.71997,1631133476.5533,1631133476.55211,1631134071.07382,0
61,4,2,2,1,8,3,c3_HowFace,1,smiling?,116,F_083.jpg,1631133463.81939,1631133463.8218,0.019008626937866,0.0265102386474609,0.0523538494110105,2.11979245185852,0.3,10.2895057106018,0.566877365112305,10.8709149265289,1,left,0.556514978408813,10.8563830757141,604.494430770874,607.254430770874,1631133466.5984,1631133466.6038,1631133466.63174,1631133466.63434,1631133468.69918,1631133476.8689,1631133476.87053,1631133477.4503,1631133477.43577,1631134071.07382,1
61,4,2,2,2,1,1,c1_WhyFace,1,admiring?,4,F_779.jpg,1631133463.81939,1631133463.8218,10.9897665882111,6.85130643844604,17.8589954280853,19.9597785377502,2.10078310966492,20.1098351383209,0.967026710510254,21.0787989997864,1,left,0.942471027374268,21.0768618488312,604.494430770874,607.254430770874,1631133477.56916,1631133477.57073,1631133484.43839,1631133484.44078,1631133486.53917,1631133486.68923,1631133486.69164,1631133487.65819,1631133487.65625,1631134071.07382,1
61,4,2,2,2,2,1,c1_WhyFace,2,admiring?,3,F_110.jpg,1631133463.81939,1631133463.8218,10.9897665882111,6.85130643844604,17.8589954280853,19.9597785377502,0.3,21.3936462306976,0.800299167633057,22.2041978740692,3,right,0.791514873504639,22.1939453983307,604.494430770874,607.254430770874,1631133477.56916,1631133477.57073,1631133484.43839,1631133484.44078,1631133486.53917,1631133487.97304,1631133487.97435,1631133488.78359,1631133488.77334,1631134071.07382,0
61,4,2,2,2,3,1,c1_WhyFace,1,admiring?,8,F_590.jpg,1631133463.81939,1631133463.8218,10.9897665882111,6.85130643844604,17.8589954280853,19.9597785377502,0.3,22.5107300186157,0.566877365112305,23.0791649723053,1,left,0.54413914680481,23.077607383728,604.494430770874,607.254430770874,1631133477.56916,1631133477.57073,1631133484.43839,1631133484.44078,1631133486.53917,1631133489.09012,1631133489.09176,1631133489.65856,1631133489.657,1631134071.07382,1
61,4,2,2,2,4,1,c1_WhyFace,1,admiring?,7,F_648.jpg,1631133463.81939,1631133463.8218,10.9897665882111,6.85130643844604,17.8589954280853,19.9597785377502,0.3,23.3943924808502,0.933681488037109,24.3294858837128,1,left,0.913440942764282,24.3280739688873,604.494430770874,607.254430770874,1631133477.56916,1631133477.57073,1631133484.43839,1631133484.44078,1631133486.53917,1631133489.97378,1631133489.97545,1631133490.90888,1631133490.90746,1631134071.07382,1
61,4,2,2,2,5,1,c1_WhyFace,1,admiring?,5,F_759.jpg,1631133463.81939,1631133463.8218,10.9897665882111,6.85130643844604,17.8589954280853,19.9597785377502,0.3,24.6448588275909,0.866990804672241,25.513246049881,1,left,0.851140022277832,25.5118496322632,604.494430770874,607.254430770874,1631133477.56916,1631133477.57073,1631133484.43839,1631133484.44078,1631133486.53917,1631133491.22425,1631133491.22607,1631133492.09264,1631133492.09124,1631134071.07382,1
61,4,2,2,2,6,1,c1_WhyFace,2,admiring?,2,F_129.jpg,1631133463.81939,1631133463.8218,10.9897665882111,6.85130643844604,17.8589954280853,19.9597785377502,0.3,25.8286330604553,0.633569955825806,26.4709000492096,1,left,0.625342845916748,26.4622030162811,604.494430770874,607.254430770874,1631133477.56916,1631133477.57073,1631133484.43839,1631133484.44078,1631133486.53917,1631133492.40802,1631133492.40959,1631133493.05029,1631133493.04159,1631134071.07382,0
61,4,2,2,2,7,1,c1_WhyFace,1,admiring?,1,F_593.jpg,1631133463.81939,1631133463.8218,10.9897665882111,6.85130643844604,17.8589954280853,19.9597785377502,0.3,26.7789878749847,0.666916370391846,27.4547810459137,1,left,0.655712127685547,27.4459042453766,604.494430770874,607.254430770874,1631133477.56916,1631133477.57073,1631133484.43839,1631133484.44078,1631133486.53917,1631133493.35838,1631133493.3599,1631133494.03417,1631133494.02529,1631134071.07382,1
61,4,2,2,2,8,1,c1_WhyFace,2,admiring?,6,F_692.jpg,1631133463.81939,1631133463.8218,10.9897665882111,6.85130643844604,17.8589954280853,19.9597785377502,0.3,27.7626881504059,0.716933727264404,28.4878489875793,3,right,0.705929040908813,28.4796218776703,604.494430770874,607.254430770874,1631133477.56916,1631133477.57073,1631133484.43839,1631133484.44078,1631133486.53917,1631133494.34208,1631133494.34336,1631133495.06724,1631133495.05901,1631134071.07382,0
61,4,2,2,3,1,2,c2_WhyHand,1,healthy?,23,H_364.jpg,1631133463.81939,1631133463.8218,28.5796589756012,8.31546497344971,36.8994302654266,39.0002119445801,2.10078167915344,39.1502683067322,1.35050320625305,40.5045330429077,3,right,1.33384609222412,40.5007715129852,604.494430770874,607.254430770874,1631133495.15905,1631133495.161,1631133503.47882,1631133503.48504,1631133505.5796,1631133505.72966,1631133505.73442,1631133507.08392,1631133507.08016,1631134071.07382,0
61,4,2,2,3,2,2,c2_WhyHand,2,healthy?,20,H_007.jpg,1631133463.81939,1631133463.8218,28.5796589756012,8.31546497344971,36.8994302654266,39.0002119445801,0.3,40.8175558948517,1.10041117668152,41.9212958717346,3,right,1.07736802101135,41.9179670715332,604.494430770874,607.254430770874,1631133495.15905,1631133495.161,1631133503.47882,1631133503.48504,1631133505.5796,1631133507.39695,1631133507.40082,1631133508.50069,1631133508.49736,1631134071.07382,0
61,4,2,2,3,3,2,c2_WhyHand,1,healthy?,19,H_167.jpg,1631133463.81939,1631133463.8218,28.5796589756012,8.31546497344971,36.8994302654266,39.0002119445801,0.3,42.2347504997253,0.583552598953247,42.8207189941406,1,left,0.574301958084106,42.8183030986786,604.494430770874,607.254430770874,1631133495.15905,1631133495.161,1631133503.47882,1631133503.48504,1631133505.5796,1631133508.81414,1631133508.81765,1631133509.40011,1631133509.39769,1631134071.07382,1
61,4,2,2,3,4,2,c2_WhyHand,2,healthy?,22,H_130.jpg,1631133463.81939,1631133463.8218,28.5796589756012,8.31546497344971,36.8994302654266,39.0002119445801,0.3,43.1350872421265,1.2504665851593,44.3877019786835,3,right,1.23062610626221,44.3855538272858,604.494430770874,607.254430770874,1631133495.15905,1631133495.161,1631133503.47882,1631133503.48504,1631133505.5796,1631133509.71448,1631133509.71741,1631133510.96709,1631133510.96494,1631134071.07382,0
61,4,2,2,3,5,2,c2_WhyHand,1,healthy?,18,H_438.jpg,1631133463.81939,1631133463.8218,28.5796589756012,8.31546497344971,36.8994302654266,39.0002119445801,0.3,44.7023394012451,0.63356876373291,45.3375680351257,1,left,0.618736982345581,45.335908164978,604.494430770874,607.254430770874,1631133495.15905,1631133495.161,1631133503.47882,1631133503.48504,1631133505.5796,1631133511.28173,1631133511.28413,1631133511.91696,1631133511.9153,1631134071.07382,1
61,4,2,2,3,6,2,c2_WhyHand,2,healthy?,24,H_019.jpg,1631133463.81939,1631133463.8218,28.5796589756012,8.31546497344971,36.8994302654266,39.0002119445801,0.3,45.6526935005188,0.833643674850464,46.4873769187927,3,right,0.825318813323975,46.4863371753693,604.494430770874,607.254430770874,1631133495.15905,1631133495.161,1631133503.47882,1631133503.48504,1631133505.5796,1631133512.23208,1631133512.23411,1631133513.06677,1631133513.06573,1631134071.07382,0
61,4,2,2,3,7,2,c2_WhyHand,1,healthy?,17,H_362.jpg,1631133463.81939,1631133463.8218,28.5796589756012,8.31546497344971,36.8994302654266,39.0002119445801,0.3,46.80312251091,0.766952276229858,47.571090927124,1,left,0.743829011917114,47.5700747871399,604.494430770874,607.254430770874,1631133495.15905,1631133495.161,1631133503.47882,1631133503.48504,1631133505.5796,1631133513.38251,1631133513.38446,1631133514.15048,1631133514.14946,1631134071.07382,1
61,4,2,2,3,8,2,c2_WhyHand,1,healthy?,21,H_627.jpg,1631133463.81939,1631133463.8218,28.5796589756012,8.31546497344971,36.8994302654266,39.0002119445801,0.3,47.8868594074249,0.750279903411865,48.6388928794861,1,left,0.742537021636963,48.6371393108368,604.494430770874,607.254430770874,1631133495.15905,1631133495.161,1631133503.47882,1631133503.48504,1631133505.5796,1631133514.46625,1631133514.4679,1631133515.21828,1631133515.21653,1631134071.07382,1
61,4,2,2,4,1,4,c4_HowHand,1,pressing button?,82,H_126.jpg,1631133463.81939,1631133463.8218,48.7038307094574,7.15530228614807,55.8731706047058,57.9739553833008,2.10078477859497,58.1240098381043,0.566878318786621,58.7045800590515,1,left,0.559087038040161,58.6908881568909,604.494430770874,607.254430770874,1631133515.28322,1631133515.28488,1631133522.45256,1631133522.45488,1631133524.55335,1631133524.7034,1631133524.70549,1631133525.28397,1631133525.27028,1631134071.07382,1
61,4,2,2,4,2,4,c4_HowHand,1,pressing button?,86,H_332.jpg,1631133463.81939,1631133463.8218,48.7038307094574,7.15530228614807,55.8731706047058,57.9739553833008,0.3,59.0076739692688,0.550204277038574,59.5590059661865,1,left,0.535463809967041,59.5578782463074,604.494430770874,607.254430770874,1631133515.28322,1631133515.28488,1631133522.45256,1631133522.45488,1631133524.55335,1631133525.58706,1631133525.58878,1631133526.1384,1631133526.13727,1631134071.07382,1
61,4,2,2,4,3,4,c4_HowHand,2,pressing button?,81,H_261.jpg,1631133463.81939,1631133463.8218,48.7038307094574,7.15530228614807,55.8731706047058,57.9739553833008,0.3,59.8746640586853,0.550203800201416,60.438413848877,3,right,0.541534900665283,60.4248678588867,604.494430770874,607.254430770874,1631133515.28322,1631133515.28488,1631133522.45256,1631133522.45488,1631133524.55335,1631133526.45405,1631133526.45551,1631133527.0178,1631133527.00426,1631134071.07382,0
61,4,2,2,4,4,4,c4_HowHand,2,pressing button?,87,H_024.jpg,1631133463.81939,1631133463.8218,48.7038307094574,7.15530228614807,55.8731706047058,57.9739553833008,0.3,60.7416527175903,0.900336503982544,61.6436810398102,3,right,0.880635976791382,61.6419892215729,604.494430770874,607.254430770874,1631133515.28322,1631133515.28488,1631133522.45256,1631133522.45488,1631133524.55335,1631133527.32104,1631133527.32254,1631133528.22307,1631133528.22138,1631134071.07382,0
61,4,2,2,4,5,4,c4_HowHand,1,pressing button?,83,H_502.jpg,1631133463.81939,1631133463.8218,48.7038307094574,7.15530228614807,55.8731706047058,57.9739553833008,0.3,61.9587740802765,0.750279903411865,62.7100689315796,1,left,0.728227853775024,62.7090539836884,604.494430770874,607.254430770874,1631133515.28322,1631133515.28488,1631133522.45256,1631133522.45488,1631133524.55335,1631133528.53816,1631133528.53943,1631133529.28946,1631133529.28844,1631134071.07382,1
61,4,2,2,4,6,4,c4_HowHand,2,pressing button?,85,H_130.jpg,1631133463.81939,1631133463.8218,48.7038307094574,7.15530228614807,55.8731706047058,57.9739553833008,0.3,63.0258386039734,1.0670645236969,64.0940019989014,3,right,1.04468297958374,64.0929031276703,604.494430770874,607.254430770874,1631133515.28322,1631133515.28488,1631133522.45256,1631133522.45488,1631133524.55335,1631133529.60523,1631133529.60671,1631133530.67339,1631133530.67229,1631134071.07382,0
61,4,2,2,4,7,4,c4_HowHand,1,pressing button?,88,H_019.jpg,1631133463.81939,1631133463.8218,48.7038307094574,7.15530228614807,55.8731706047058,57.9739553833008,0.3,64.4096879863739,0.633569955825806,65.0451359653473,1,left,0.615108013153076,65.0432579421997,604.494430770874,607.254430770874,1631133515.28322,1631133515.28488,1631133522.45256,1631133522.45488,1631133524.55335,1631133530.98908,1631133530.99075,1631133531.62453,1631133531.62265,1631134071.07382,1
61,4,2,2,4,8,4,c4_HowHand,1,pressing button?,84,H_483.jpg,1631133463.81939,1631133463.8218,48.7038307094574,7.15530228614807,55.8731706047058,57.9739553833008,0.3,65.360041847229,0.800298929214478,66.1715159320831,1,left,0.789177894592285,66.1603407764435,604.494430770874,607.254430770874,1631133515.28322,1631133515.28488,1631133522.45256,1631133522.45488,1631133524.55335,1631133531.93943,1631133531.94134,1631133532.75091,1631133532.73973,1631134071.07382,1
61,4,2,2,5,1,3,c3_HowFace,1,looking to side?,72,F_590.jpg,1631133463.81939,1631133463.8218,66.2270326519012,7.42300224304199,73.6631390953064,75.7639224433899,2.1007833480835,75.9139785671234,0.583550930023193,76.5048069858551,1,left,0.565861940383911,76.4975294971466,604.494430770874,607.254430770874,1631133532.80642,1631133532.81871,1631133540.24253,1631133540.25262,1631133542.34331,1631133542.49337,1631133542.50088,1631133543.0842,1631133543.07692,1631134071.07382,1
61,4,2,2,5,2,3,c3_HowFace,1,looking to side?,69,F_110.jpg,1631133463.81939,1631133463.8218,66.2270326519012,7.42300224304199,73.6631390953064,75.7639224433899,0.3,76.8143143558502,0.716933727264404,77.538141002655,3,right,0.703886032104492,77.5312480831146,604.494430770874,607.254430770874,1631133532.80642,1631133532.81871,1631133540.24253,1631133540.25262,1631133542.34331,1631133543.3937,1631133543.39518,1631133544.11753,1631133544.11064,1631134071.07382,0
61,4,2,2,5,3,3,c3_HowFace,1,looking to side?,68,F_760.jpg,1631133463.81939,1631133463.8218,66.2270326519012,7.42300224304199,73.6631390953064,75.7639224433899,0.3,77.8480334186554,0.7669517993927,78.6209218406677,1,left,0.754108190536499,78.6149852180481,604.494430770874,607.254430770874,1631133532.80642,1631133532.81871,1631133540.24253,1631133540.25262,1631133542.34331,1631133544.42742,1631133544.42916,1631133545.20031,1631133545.19438,1631134071.07382,1
61,4,2,2,5,4,3,c3_HowFace,2,looking to side?,70,F_779.jpg,1631133463.81939,1631133463.8218,66.2270326519012,7.42300224304199,73.6631390953064,75.7639224433899,0.3,78.9317707920074,0.917008399963379,79.8548328781128,3,right,0.902499914169312,79.8487791919708,604.494430770874,607.254430770874,1631133532.80642,1631133532.81871,1631133540.24253,1631133540.25262,1631133542.34331,1631133545.51116,1631133545.51264,1631133546.43422,1631133546.42817,1631134071.07382,0
61,4,2,2,5,5,3,c3_HowFace,1,looking to side?,71,F_433.jpg,1631133463.81939,1631133463.8218,66.2270326519012,7.42300224304199,73.6631390953064,75.7639224433899,0.3,80.1655640506744,0.650242328643799,80.8211109542847,1,left,0.631109952926636,80.8158063793182,604.494430770874,607.254430770874,1631133532.80642,1631133532.81871,1631133540.24253,1631133540.25262,1631133542.34331,1631133546.74495,1631133546.7467,1631133547.4005,1631133547.3952,1631134071.07382,1
61,4,2,2,5,6,3,c3_HowFace,2,looking to side?,65,F_798.jpg,1631133463.81939,1631133463.8218,66.2270326519012,7.42300224304199,73.6631390953064,75.7639224433899,0.3,81.1325914764404,0.933680772781372,82.0712940597534,3,right,0.925596952438354,82.0662722492218,604.494430770874,607.254430770874,1631133532.80642,1631133532.81871,1631133540.24253,1631133540.25262,1631133542.34331,1631133547.71198,1631133547.71368,1631133548.65068,1631133548.64566,1631134071.07382,0
61,4,2,2,5,7,3,c3_HowFace,1,looking to side?,67,F_716.jpg,1631133463.81939,1631133463.8218,66.2270326519012,7.42300224304199,73.6631390953064,75.7639224433899,0.3,82.3830575847626,0.80029821395874,83.1881890201569,1,left,0.789373874664307,83.1833557987213,604.494430770874,607.254430770874,1631133532.80642,1631133532.81871,1631133540.24253,1631133540.25262,1631133542.34331,1631133548.96245,1631133548.96398,1631133549.76758,1631133549.76275,1631134071.07382,1
61,4,2,2,5,8,3,c3_HowFace,2,looking to side?,66,F_111.jpg,1631133463.81939,1631133463.8218,66.2270326519012,7.42300224304199,73.6631390953064,75.7639224433899,0.3,83.5001411342621,0.800298452377319,84.3042099380493,3,right,0.779650211334229,84.3004395866394,604.494430770874,607.254430770874,1631133532.80642,1631133532.81871,1631133540.24253,1631133540.25262,1631133542.34331,1631133550.07953,1631133550.08415,1631133550.8836,1631133550.87983,1631134071.07382,0
61,4,2,2,6,1,1,c1_WhyFace,1,argument?,42,F_403.jpg,1631133463.81939,1631133463.8218,84.36712931633,8.33583855628967,92.7202451133728,94.821029176712,2.10078406333923,94.9710848236084,0.933681011199951,95.9062738323212,1,left,0.916083097457886,95.9047658348083,604.494430770874,607.254430770874,1631133550.94652,1631133550.95053,1631133559.29964,1631133559.30145,1631133561.40042,1631133561.55047,1631133561.5525,1631133562.48566,1631133562.48416,1631134071.07382,1
61,4,2,2,6,2,1,c1_WhyFace,2,argument?,44,F_139.jpg,1631133463.81939,1631133463.8218,84.36712931633,8.33583855628967,92.7202451133728,94.821029176712,0.3,96.2215509319305,0.750279903411865,96.9729339981079,3,right,0.736298084259033,96.9718308353424,604.494430770874,607.254430770874,1631133550.94652,1631133550.95053,1631133559.29964,1631133559.30145,1631133561.40042,1631133562.80094,1631133562.80263,1631133563.55232,1631133563.55122,1631134071.07382,0
61,4,2,2,6,3,1,c1_WhyFace,1,argument?,47,F_743.jpg,1631133463.81939,1631133463.8218,84.36712931633,8.33583855628967,92.7202451133728,94.821029176712,0.3,97.2886159324646,0.716934680938721,98.0073199176788,1,left,0.697449922561646,98.0055506134033,604.494430770874,607.254430770874,1631133550.94652,1631133550.95053,1631133559.29964,1631133559.30145,1631133561.40042,1631133563.86801,1631133563.86964,1631133564.58671,1631133564.58494,1631134071.07382,1
61,4,2,2,6,4,1,c1_WhyFace,2,argument?,45,F_433.jpg,1631133463.81939,1631133463.8218,84.36712931633,8.33583855628967,92.7202451133728,94.821029176712,0.3,98.3223345184326,0.917008876800537,99.2551000022888,3,right,0.907322883605957,99.2393433952331,604.494430770874,607.254430770874,1631133550.94652,1631133550.95053,1631133559.29964,1631133559.30145,1631133561.40042,1631133564.90172,1631133564.90319,1631133565.83449,1631133565.81873,1631134071.07382,0
61,4,2,2,6,5,1,c1_WhyFace,1,argument?,43,F_716.jpg,1631133463.81939,1631133463.8218,84.36712931633,8.33583855628967,92.7202451133728,94.821029176712,0.3,99.5561284923553,0.900335788726807,100.457857837677,1,left,0.88241982460022,100.456464281082,604.494430770874,607.254430770874,1631133550.94652,1631133550.95053,1631133559.29964,1631133559.30145,1631133561.40042,1631133566.13552,1631133566.13749,1631133567.03725,1631133567.03585,1631134071.07382,1
61,4,2,2,6,6,1,c1_WhyFace,1,argument?,48,F_758.jpg,1631133463.81939,1631133463.8218,84.36712931633,8.33583855628967,92.7202451133728,94.821029176712,0.3,100.773249139786,0.700261354446411,101.474855890274,3,right,0.68740701675415,101.473510494232,604.494430770874,607.254430770874,1631133550.94652,1631133550.95053,1631133559.29964,1631133559.30145,1631133561.40042,1631133567.35264,1631133567.35415,1631133568.05425,1631133568.0529,1631134071.07382,0
61,4,2,2,6,7,1,c1_WhyFace,2,argument?,46,F_844.jpg,1631133463.81939,1631133463.8218,84.36712931633,8.33583855628967,92.7202451133728,94.821029176712,0.3,101.790295114517,1.40052175521851,103.20419095993,3,right,1.39201211929321,103.190816869736,604.494430770874,607.254430770874,1631133550.94652,1631133550.95053,1631133559.29964,1631133559.30145,1631133561.40042,1631133568.36969,1631133568.37121,1631133569.78358,1631133569.77021,1631134071.07382,0
61,4,2,2,6,8,1,c1_WhyFace,1,argument?,41,F_712.jpg,1631133463.81939,1631133463.8218,84.36712931633,8.33583855628967,92.7202451133728,94.821029176712,0.3,103.507602443695,0.833642721176147,104.354240884781,1,left,0.823550939559937,104.341245164871,604.494430770874,607.254430770874,1631133550.94652,1631133550.95053,1631133559.29964,1631133559.30145,1631133561.40042,1631133570.08699,1631133570.08877,1631133570.93363,1631133570.92064,1631134071.07382,1
61,4,2,2,7,1,2,c2_WhyHand,1,self-protection?,94,H_189.jpg,1631133463.81939,1631133463.8218,104.407937040329,10.7769658565521,115.195294132233,117.29607676506,2.10078263282776,117.446133365631,1.10040998458862,118.554237833023,1,left,1.08166909217834,118.54654335022,604.494430770874,607.254430770874,1631133570.98733,1631133570.98844,1631133581.77468,1631133581.78467,1631133583.87547,1631133584.02552,1631133584.03473,1631133585.13363,1631133585.12593,1631134071.07382,1
61,4,2,2,7,2,2,c2_WhyHand,1,self-protection?,93,H_038.jpg,1631133463.81939,1631133463.8218,104.407937040329,10.7769658565521,115.195294132233,117.29607676506,0.3,118.863327970505,0.866989850997925,119.73199795723,1,left,0.849062919616699,119.730317821503,604.494430770874,607.254430770874,1631133570.98733,1631133570.98844,1631133581.77468,1631133581.78467,1631133583.87547,1631133585.44272,1631133585.4442,1631133586.31139,1631133586.30971,1631134071.07382,1
61,4,2,2,7,3,2,c2_WhyHand,1,self-protection?,91,H_581.jpg,1631133463.81939,1631133463.8218,104.407937040329,10.7769658565521,115.195294132233,117.29607676506,0.3,120.047103157043,1.7173068523407,121.777817001343,3,right,1.70028800964355,121.764410009384,604.494430770874,607.254430770874,1631133570.98733,1631133570.98844,1631133581.77468,1631133581.78467,1631133583.87547,1631133586.62649,1631133586.6287,1631133588.35721,1631133588.3438,1631134071.07382,0
61,4,2,2,7,4,2,c2_WhyHand,2,self-protection?,90,H_006.jpg,1631133463.81939,1631133463.8218,104.407937040329,10.7769658565521,115.195294132233,117.29607676506,0.3,122.081195106506,1.25046586990356,123.337460985184,3,right,1.24395108222961,123.33166097641,604.494430770874,607.254430770874,1631133570.98733,1631133570.98844,1631133581.77468,1631133581.78467,1631133583.87547,1631133588.66059,1631133588.66201,1631133589.91685,1631133589.91105,1631134071.07382,0
61,4,2,2,7,5,2,c2_WhyHand,1,self-protection?,96,H_027.jpg,1631133463.81939,1631133463.8218,104.407937040329,10.7769658565521,115.195294132233,117.29607676506,0.3,123.648445835114,0.850317239761353,124.5048229599,1,left,0.830705165863037,124.498763074875,604.494430770874,607.254430770874,1631133570.98733,1631133570.98844,1631133581.77468,1631133581.78467,1631133583.87547,1631133590.22784,1631133590.23003,1631133591.08421,1631133591.07815,1631134071.07382,1
61,4,2,2,7,6,2,c2_WhyHand,2,self-protection?,95,H_332.jpg,1631133463.81939,1631133463.8218,104.407937040329,10.7769658565521,115.195294132233,117.29607676506,0.3,124.815548171997,0.933680772781372,125.754193058014,3,right,0.917045116424561,125.749228944778,604.494430770874,607.254430770874,1631133570.98733,1631133570.98844,1631133581.77468,1631133581.78467,1631133583.87547,1631133591.39494,1631133591.39696,1631133592.33358,1631133592.32862,1631134071.07382,0
61,4,2,2,7,7,2,c2_WhyHand,1,self-protection?,89,H_443.jpg,1631133463.81939,1631133463.8218,104.407937040329,10.7769658565521,115.195294132233,117.29607676506,0.3,126.066013803482,1.36717700958252,127.435000886917,3,right,1.34488487243652,127.433190813065,604.494430770874,607.254430770874,1631133570.98733,1631133570.98844,1631133581.77468,1631133581.78467,1631133583.87547,1631133592.6454,1631133592.64711,1631133594.01439,1631133594.01258,1631134071.07382,0
61,4,2,2,7,8,2,c2_WhyHand,2,self-protection?,92,H_532.jpg,1631133463.81939,1631133463.8218,104.407937040329,10.7769658565521,115.195294132233,117.29607676506,0.3,127.749974956512,1.26714015007019,129.021561851501,3,right,1.25139498710632,129.017115106583,604.494430770874,607.254430770874,1631133570.98733,1631133570.98844,1631133581.77468,1631133581.78467,1631133583.87547,1631133594.32937,1631133594.33415,1631133595.60095,1631133595.59651,1631134071.07382,0
61,4,2,2,8,1,4,c4_HowHand,1,both hands?,124,H_581.jpg,1631133463.81939,1631133463.8218,129.083806028366,3.94111800193787,133.035280218124,135.136064043045,2.10078382492065,135.286120166779,0.933680772781372,136.220924844742,1,left,0.924103975296021,136.21980093956,604.494430770874,607.254430770874,1631133595.6632,1631133595.66736,1631133599.61467,1631133599.61761,1631133601.71545,1631133601.86551,1631133601.86719,1631133602.80031,1631133602.79919,1631134071.07382,1
61,4,2,2,8,2,4,c4_HowHand,1,both hands?,127,H_349.jpg,1631133463.81939,1631133463.8218,129.083806028366,3.94111800193787,133.035280218124,135.136064043045,0.3,136.536586275101,0.683587551116943,137.221122970581,1,left,0.674355983734131,137.220173826218,604.494430770874,607.254430770874,1631133595.6632,1631133595.66736,1631133599.61467,1631133599.61761,1631133601.71545,1631133603.11598,1631133603.11759,1631133603.80051,1631133603.79956,1631134071.07382,1
61,4,2,2,8,3,4,c4_HowHand,2,both hands?,126,H_159.jpg,1631133463.81939,1631133463.8218,129.083806028366,3.94111800193787,133.035280218124,135.136064043045,0.3,137.536959161758,0.967026710510254,138.504996051788,3,right,0.955644130706787,138.503985872269,604.494430770874,607.254430770874,1631133595.6632,1631133595.66736,1631133599.61467,1631133599.61761,1631133601.71545,1631133604.11635,1631133604.11774,1631133605.08439,1631133605.08338,1631134071.07382,0
61,4,2,2,8,4,4,c4_HowHand,1,both hands?,122,H_111.jpg,1631133463.81939,1631133463.8218,129.083806028366,3.94111800193787,133.035280218124,135.136064043045,0.3,138.820770969391,0.81697154045105,139.638758888245,1,left,0.804446935653687,139.637742509842,604.494430770874,607.254430770874,1631133595.6632,1631133595.66736,1631133599.61467,1631133599.61761,1631133601.71545,1631133605.40016,1631133605.4015,1631133606.21815,1631133606.21713,1631134071.07382,1
61,4,2,2,8,5,4,c4_HowHand,2,both hands?,125,H_627.jpg,1631133463.81939,1631133463.8218,129.083806028366,3.94111800193787,133.035280218124,135.136064043045,0.3,139.954527130127,1.00037336349487,140.956281890869,3,right,0.984413146972656,140.954900493622,604.494430770874,607.254430770874,1631133595.6632,1631133595.66736,1631133599.61467,1631133599.61761,1631133601.71545,1631133606.53392,1631133606.53551,1631133607.53567,1631133607.53429,1631134071.07382,0
61,4,2,2,8,6,4,c4_HowHand,1,both hands?,123,H_167.jpg,1631133463.81939,1631133463.8218,129.083806028366,3.94111800193787,133.035280218124,135.136064043045,0.3,141.271685352325,1.05039191246033,142.323096981049,3,right,1.03298401832581,142.322077264786,604.494430770874,607.254430770874,1631133595.6632,1631133595.66736,1631133599.61467,1631133599.61761,1631133601.71545,1631133607.85108,1631133607.85236,1631133608.90249,1631133608.90147,1631134071.07382,0
61,4,2,2,8,7,4,c4_HowHand,1,both hands?,128,H_027.jpg,1631133463.81939,1631133463.8218,129.083806028366,3.94111800193787,133.035280218124,135.136064043045,0.3,142.638861646652,0.883662223815918,143.52341794014,1,left,0.873967885971069,143.522523870468,604.494430770874,607.254430770874,1631133595.6632,1631133595.66736,1631133599.61467,1631133599.61761,1631133601.71545,1631133609.21825,1631133609.2199,1631133610.10281,1631133610.10191,1631134071.07382,1
61,4,2,2,8,8,4,c4_HowHand,2,both hands?,121,H_091.jpg,1631133463.81939,1631133463.8218,129.083806028366,3.94111800193787,133.035280218124,135.136064043045,0.3,143.839308729172,1.56725168228149,145.420949926376,3,right,1.55858397483826,145.406560411453,604.494430770874,607.254430770874,1631133595.6632,1631133595.66736,1631133599.61467,1631133599.61761,1631133601.71545,1631133610.4187,1631133610.42057,1631133612.00034,1631133611.98595,1631134071.07382,0
61,4,2,2,9,1,2,c2_WhyHand,1,competing?,15,H_170.jpg,1631133463.81939,1631133463.8218,145.489923706055,5.32498931884766,150.825247278214,152.926030864716,2.10078358650208,153.076087226868,0.783626079559326,153.861492862701,1,left,0.769103050231934,153.859713306427,604.494430770874,607.254430770874,1631133612.06931,1631133612.07091,1631133617.40464,1631133617.40652,1631133619.50542,1631133619.65548,1631133619.65771,1631133620.44088,1631133620.4391,1631134071.07382,1
61,4,2,2,9,2,2,c2_WhyHand,1,competing?,14,H_132.jpg,1631133463.81939,1631133463.8218,145.489923706055,5.32498931884766,150.825247278214,152.926030864716,0.3,154.176498165131,0.816970586776733,155.004237880707,1,left,0.809335231781006,154.993468751907,604.494430770874,607.254430770874,1631133612.06931,1631133612.07091,1631133617.40464,1631133617.40652,1631133619.50542,1631133620.75589,1631133620.75763,1631133621.58363,1631133621.57286,1631134071.07382,1
61,4,2,2,9,3,2,c2_WhyHand,2,competing?,10,H_126.jpg,1631133463.81939,1631133463.8218,145.489923706055,5.32498931884766,150.825247278214,152.926030864716,0.3,155.310253372192,0.900335550308228,156.212339868546,3,right,0.884021997451782,156.210588922501,604.494430770874,607.254430770874,1631133612.06931,1631133612.07091,1631133617.40464,1631133617.40652,1631133619.50542,1631133621.88964,1631133621.89114,1631133622.79173,1631133622.78998,1631134071.07382,0
61,4,2,2,9,4,2,c2_WhyHand,1,competing?,13,H_003.jpg,1631133463.81939,1631133463.8218,145.489923706055,5.32498931884766,150.825247278214,152.926030864716,0.3,156.52737449646,0.933680772781372,157.471621980667,1,left,0.922981023788452,157.461055269241,604.494430770874,607.254430770874,1631133612.06931,1631133612.07091,1631133617.40464,1631133617.40652,1631133619.50542,1631133623.10676,1631133623.10869,1631133624.05101,1631133624.04045,1631134071.07382,1
61,4,2,2,9,5,2,c2_WhyHand,2,competing?,11,H_502.jpg,1631133463.81939,1631133463.8218,145.489923706055,5.32498931884766,150.825247278214,152.926030864716,0.3,157.777840127945,0.883663177490234,158.671201934814,3,right,0.869173049926758,158.661503305435,604.494430770874,607.254430770874,1631133612.06931,1631133612.07091,1631133617.40464,1631133617.40652,1631133619.50542,1631133624.35723,1631133624.35867,1631133625.25059,1631133625.24089,1631134071.07382,0
61,4,2,2,9,6,2,c2_WhyHand,1,competing?,16,H_136.jpg,1631133463.81939,1631133463.8218,145.489923706055,5.32498931884766,150.825247278214,152.926030864716,0.3,158.978287687302,1.46721458435059,160.454547872543,1,left,1.46002006530762,160.445502271652,604.494430770874,607.254430770874,1631133612.06931,1631133612.07091,1631133617.40464,1631133617.40652,1631133619.50542,1631133625.55768,1631133625.55922,1631133627.03394,1631133627.02489,1631134071.07382,1
61,4,2,2,9,7,2,c2_WhyHand,2,competing?,12,H_483.jpg,1631133463.81939,1631133463.8218,145.489923706055,5.32498931884766,150.825247278214,152.926030864716,0.3,160.762287130356,1.0337176322937,161.797456970215,3,right,1.01442193984985,161.79600476265,604.494430770874,607.254430770874,1631133612.06931,1631133612.07091,1631133617.40464,1631133617.40652,1631133619.50542,1631133627.34168,1631133627.34364,1631133628.37685,1631133628.37539,1631134071.07382,0
61,4,2,2,9,8,2,c2_WhyHand,1,competing?,9,H_261.jpg,1631133463.81939,1631133463.8218,145.489923706055,5.32498931884766,150.825247278214,152.926030864716,0.3,162.112789621353,0.800299406051636,162.92150305748,1,left,0.791340112686157,162.913089027405,604.494430770874,607.254430770874,1631133612.06931,1631133612.07091,1631133617.40464,1631133617.40652,1631133619.50542,1631133628.69218,1631133628.69401,1631133629.50089,1631133629.49248,1631134071.07382,1
61,4,2,2,10,1,4,c4_HowHand,1,lifting?,49,H_362.jpg,1631133463.81939,1631133463.8218,162.996453275681,5.70852756500244,168.715253343582,170.816036214829,2.10078287124634,170.966092338562,0.683587551116943,171.651404848099,1,left,0.657910823822021,171.649679889679,604.494430770874,607.254430770874,1631133629.57584,1631133629.57754,1631133635.29464,1631133635.30103,1631133637.39543,1631133637.54548,1631133637.551,1631133638.23079,1631133638.22907,1631134071.07382,1
61,4,2,2,10,2,4,c4_HowHand,2,lifting?,55,H_012.jpg,1631133463.81939,1631133463.8218,162.996453275681,5.70852756500244,168.715253343582,170.816036214829,0.3,171.966465463638,0.850316762924194,172.821022024155,3,right,0.832305908203125,172.816782226563,604.494430770874,607.254430770874,1631133629.57584,1631133629.57754,1631133635.29464,1631133635.30103,1631133637.39543,1631133638.54586,1631133638.55076,1631133639.40041,1631133639.39617,1631134071.07382,0
61,4,2,2,10,3,4,c4_HowHand,1,lifting?,56,H_136.jpg,1631133463.81939,1631133463.8218,162.996453275681,5.70852756500244,168.715253343582,170.816036214829,0.3,173.133566846848,1.00037360191345,174.137745847702,3,right,0.980345964431763,174.133940448761,604.494430770874,607.254430770874,1631133629.57584,1631133629.57754,1631133635.29464,1631133635.30103,1631133637.39543,1631133639.71296,1631133639.71759,1631133640.71714,1631133640.71333,1631134071.07382,0
61,4,2,2,10,4,4,c4_HowHand,1,lifting?,52,H_189.jpg,1631133463.81939,1631133463.8218,162.996453275681,5.70852756500244,168.715253343582,170.816036214829,0.3,174.450724830627,1.38384938240051,175.838386049271,3,right,1.36194610595703,175.834574213028,604.494430770874,607.254430770874,1631133629.57584,1631133629.57754,1631133635.29464,1631133635.30103,1631133637.39543,1631133641.03011,1631133641.03533,1631133642.41778,1631133642.41396,1631134071.07382,0
61,4,2,2,10,5,4,c4_HowHand,1,lifting?,54,H_170.jpg,1631133463.81939,1631133463.8218,162.996453275681,5.70852756500244,168.715253343582,170.816036214829,0.3,176.15135931015,0.633568525314331,176.788226833344,1,left,0.612500190734863,176.784927835464,604.494430770874,607.254430770874,1631133629.57584,1631133629.57754,1631133635.29464,1631133635.30103,1631133637.39543,1631133642.73075,1631133642.73436,1631133643.36762,1631133643.36432,1631134071.07382,1
61,4,2,2,10,6,4,c4_HowHand,2,lifting?,53,H_077.jpg,1631133463.81939,1631133463.8218,162.996453275681,5.70852756500244,168.715253343582,170.816036214829,0.3,177.10171412468,1.0003719329834,178.104573001862,3,right,0.989439964294434,178.102086057663,604.494430770874,607.254430770874,1631133629.57584,1631133629.57754,1631133635.29464,1631133635.30103,1631133637.39543,1631133643.6811,1631133643.68428,1631133644.68396,1631133644.68148,1631134071.07382,0
61,4,2,2,10,7,4,c4_HowHand,1,lifting?,50,H_443.jpg,1631133463.81939,1631133463.8218,162.996453275681,5.70852756500244,168.715253343582,170.816036214829,0.3,178.418871154785,1.66728830337524,180.088127841949,1,left,1.64278984069824,180.08615945816,604.494430770874,607.254430770874,1631133629.57584,1631133629.57754,1631133635.29464,1631133635.30103,1631133637.39543,1631133644.99826,1631133645.00109,1631133646.66752,1631133646.66555,1631134071.07382,1
61,4,2,2,10,8,4,c4_HowHand,2,lifting?,51,H_038.jpg,1631133463.81939,1631133463.8218,162.996453275681,5.70852756500244,168.715253343582,170.816036214829,0.3,180.402944078445,1.00037264823914,181.404376974106,3,right,0.992684125900269,181.403316726685,604.494430770874,607.254430770874,1631133629.57584,1631133629.57754,1631133635.29464,1631133635.30103,1631133637.39543,1631133646.98233,1631133646.98399,1631133647.98377,1631133647.98271,1631134071.07382,0
61,4,2,2,11,1,3,c3_HowFace,1,open mouth?,73,F_403.jpg,1631133463.81939,1631133463.8218,181.470008840561,5.30490708351135,186.788658847809,188.889442434311,2.10078358650208,189.039499034882,0.733606576919556,189.77477191925,1,left,0.719994068145752,189.773105611801,604.494430770874,607.254430770874,1631133648.0494,1631133648.05039,1631133653.36805,1631133653.37012,1631133655.46883,1631133655.61889,1631133655.6207,1631133656.35416,1631133656.3525,1631134071.07382,1
61,4,2,2,11,2,3,c3_HowFace,1,open mouth?,75,F_086.jpg,1631133463.81939,1631133463.8218,181.470008840561,5.30490708351135,186.788658847809,188.889442434311,0.3,190.089889993668,0.683587789535522,190.787973871231,1,left,0.673585891723633,190.773477783203,604.494430770874,607.254430770874,1631133648.0494,1631133648.05039,1631133653.36805,1631133653.37012,1631133655.46883,1631133656.66928,1631133656.67108,1631133657.36736,1631133657.35287,1631134071.07382,1
61,4,2,2,11,3,3,c3_HowFace,1,open mouth?,80,F_844.jpg,1631133463.81939,1631133463.8218,181.470008840561,5.30490708351135,186.788658847809,188.889442434311,0.3,191.090263118744,0.95035457611084,192.042467823029,1,left,0.9372718334198,192.040617694855,604.494430770874,607.254430770874,1631133648.0494,1631133648.05039,1631133653.36805,1631133653.37012,1631133655.46883,1631133657.66965,1631133657.67165,1631133658.62186,1631133658.62001,1631134071.07382,1
61,4,2,2,11,4,3,c3_HowFace,2,open mouth?,76,F_544.jpg,1631133463.81939,1631133463.8218,181.470008840561,5.30490708351135,186.788658847809,188.889442434311,0.3,192.35740231514,0.73360800743103,193.09241985321,3,right,0.721750020980835,193.091010322571,604.494430770874,607.254430770874,1631133648.0494,1631133648.05039,1631133653.36805,1631133653.37012,1631133655.46883,1631133658.93679,1631133658.93873,1631133659.67181,1631133659.6704,1631134071.07382,0
61,4,2,2,11,5,3,c3_HowFace,1,open mouth?,74,F_776.jpg,1631133463.81939,1631133463.8218,181.470008840561,5.30490708351135,186.788658847809,188.889442434311,0.3,193.4077942276,0.900335788726807,194.309573879242,1,left,0.880354166030884,194.308130016327,604.494430770874,607.254430770874,1631133648.0494,1631133648.05039,1631133653.36805,1631133653.37012,1631133655.46883,1631133659.98718,1631133659.98895,1631133660.88896,1631133660.88752,1631134071.07382,1
61,4,2,2,11,6,3,c3_HowFace,2,open mouth?,79,F_648.jpg,1631133463.81939,1631133463.8218,181.470008840561,5.30490708351135,186.788658847809,188.889442434311,0.3,194.624915113449,0.900335788726807,195.526502838135,3,right,0.880602836608887,195.525250902176,604.494430770874,607.254430770874,1631133648.0494,1631133648.05039,1631133653.36805,1631133653.37012,1631133655.46883,1631133661.20431,1631133661.20571,1631133662.10589,1631133662.10464,1631134071.07382,0
61,4,2,2,11,7,3,c3_HowFace,1,open mouth?,78,F_692.jpg,1631133463.81939,1631133463.8218,181.470008840561,5.30490708351135,186.788658847809,188.889442434311,0.3,195.842034568787,0.86699104309082,196.710701932907,1,left,0.843923091888428,196.709025611877,604.494430770874,607.254430770874,1631133648.0494,1631133648.05039,1631133653.36805,1631133653.37012,1631133655.46883,1631133662.42142,1631133662.42299,1631133663.29009,1631133663.28842,1631134071.07382,1
61,4,2,2,11,8,3,c3_HowFace,2,open mouth?,77,F_584.jpg,1631133463.81939,1631133463.8218,181.470008840561,5.30490708351135,186.788658847809,188.889442434311,0.3,197.025810709,0.883663177490234,197.910506954193,3,right,0.867774963378906,197.90947388649,604.494430770874,607.254430770874,1631133648.0494,1631133648.05039,1631133653.36805,1631133653.37012,1631133655.46883,1631133663.6052,1631133663.60656,1631133664.4899,1631133664.48886,1631134071.07382,0
61,4,2,2,12,1,1,c1_WhyFace,1,proud?,97,F_582.jpg,1631133463.81939,1631133463.8218,198.009510507584,6.2824604511261,204.311859836578,206.395970811844,2.0841109752655,206.546026935577,0.733606576919556,207.287541856766,1,left,0.713258981704712,207.279633512497,604.494430770874,607.254430770874,1631133664.5889,1631133664.60093,1631133670.89125,1631133670.89334,1631133672.97536,1631133673.12542,1631133673.13406,1631133673.86693,1631133673.85902,1631134071.07382,1
61,4,2,2,12,2,1,c1_WhyFace,2,proud?,100,F_776.jpg,1631133463.81939,1631133463.8218,198.009510507584,6.2824604511261,204.311859836578,206.395970811844,0.3,207.596419563293,1.25046563148499,208.854655971527,3,right,1.24025797843933,208.846885194778,604.494430770874,607.254430770874,1631133664.5889,1631133664.60093,1631133670.89125,1631133670.89334,1631133672.97536,1631133674.17581,1631133674.17779,1631133675.43405,1631133675.42628,1631134071.07382,0
61,4,2,2,12,3,1,c1_WhyFace,1,proud?,104,F_598.jpg,1631133463.81939,1631133463.8218,198.009510507584,6.2824604511261,204.311859836578,206.395970811844,0.3,209.163670291901,0.967027187347412,210.132150878906,1,left,0.946506023406982,210.130697479248,604.494430770874,607.254430770874,1631133664.5889,1631133664.60093,1631133670.89125,1631133670.89334,1631133672.97536,1631133675.74306,1631133675.74458,1631133676.71154,1631133676.71009,1631134071.07382,1
61,4,2,2,12,4,1,c1_WhyFace,2,proud?,98,F_412.jpg,1631133463.81939,1631133463.8218,198.009510507584,6.2824604511261,204.311859836578,206.395970811844,0.3,210.447481861115,0.81697154045105,211.265830984116,3,right,0.794579029083252,211.264453401566,604.494430770874,607.254430770874,1631133664.5889,1631133664.60093,1631133670.89125,1631133670.89334,1631133672.97536,1631133677.02687,1631133677.02865,1631133677.84522,1631133677.84384,1631134071.07382,0
61,4,2,2,12,5,1,c1_WhyFace,1,proud?,103,F_618.jpg,1631133463.81939,1631133463.8218,198.009510507584,6.2824604511261,204.311859836578,206.395970811844,0.3,211.581238260269,1.00037240982056,212.588170995712,1,left,0.982238054275513,212.58161067009,604.494430770874,607.254430770874,1631133664.5889,1631133664.60093,1631133670.89125,1631133670.89334,1631133672.97536,1631133678.16063,1631133678.1626,1631133679.16756,1631133679.161,1631134071.07382,1
61,4,2,2,12,6,1,c1_WhyFace,1,proud?,101,F_083.jpg,1631133463.81939,1631133463.8218,198.009510507584,6.2824604511261,204.311859836578,206.395970811844,0.3,212.898396005631,1.25046610832214,214.154271831512,1,left,1.24143815040588,214.148862113953,604.494430770874,607.254430770874,1631133664.5889,1631133664.60093,1631133670.89125,1631133670.89334,1631133672.97536,1631133679.47779,1631133679.47919,1631133680.73366,1631133680.72825,1631134071.07382,1
61,4,2,2,12,7,1,c1_WhyFace,1,proud?,99,F_695.jpg,1631133463.81939,1631133463.8218,198.009510507584,6.2824604511261,204.311859836578,206.395970811844,0.3,214.465646972656,1.03371906280518,215.50454782486,1,left,1.01867198944092,215.499366035461,604.494430770874,607.254430770874,1631133664.5889,1631133664.60093,1631133670.89125,1631133670.89334,1631133672.97536,1631133681.04504,1631133681.04669,1631133682.08394,1631133682.07876,1631134071.07382,1
61,4,2,2,12,8,1,c1_WhyFace,2,proud?,102,F_760.jpg,1631133463.81939,1631133463.8218,198.009510507584,6.2824604511261,204.311859836578,206.395970811844,0.3,215.816150655746,0.700261831283569,216.521507015228,3,right,0.685274124145508,216.51641248703,604.494430770874,607.254430770874,1631133664.5889,1631133664.60093,1631133670.89125,1631133670.89334,1631133672.97536,1631133682.39554,1631133682.3974,1631133683.1009,1631133683.0958,1631134071.07382,0
61,4,2,2,13,1,2,c2_WhyHand,1,helping?,39,H_024.jpg,1631133463.81939,1631133463.8218,216.583103647232,5.92876529693604,222.518650045395,224.619434585571,2.10078454017639,224.769489994049,0.950354099273682,225.721276988983,1,left,0.939316987991333,225.719844093323,604.494430770874,607.254430770874,1631133683.16249,1631133683.16694,1631133689.09804,1631133689.10057,1631133691.19882,1631133691.34888,1631133691.35042,1631133692.30067,1631133692.29923,1631134071.07382,1
61,4,2,2,13,2,2,c2_WhyHand,1,helping?,37,H_474.jpg,1631133463.81939,1631133463.8218,216.583103647232,5.92876529693604,222.518650045395,224.619434585571,0.3,226.036629667282,1.60059642791748,227.638617982864,1,left,1.58659791946411,227.6372260952,604.494430770874,607.254430770874,1631133683.16249,1631133683.16694,1631133689.09804,1631133689.10057,1631133691.19882,1631133692.61602,1631133692.61746,1631133694.21801,1631133694.21662,1631134071.07382,1
61,4,2,2,13,3,2,c2_WhyHand,1,helping?,36,H_349.jpg,1631133463.81939,1631133463.8218,216.583103647232,5.92876529693604,222.518650045395,224.619434585571,0.3,227.95401143074,0.816970825195312,228.772665014267,1,left,0.800235033035278,228.770982255936,604.494430770874,607.254430770874,1631133683.16249,1631133683.16694,1631133689.09804,1631133689.10057,1631133691.19882,1631133694.5334,1631133694.5351,1631133695.35206,1631133695.35037,1631134071.07382,1
61,4,2,2,13,4,2,c2_WhyHand,2,helping?,33,H_091.jpg,1631133463.81939,1631133463.8218,216.583103647232,5.92876529693604,222.518650045395,224.619434585571,0.3,229.087766637802,1.03371930122375,230.122509946823,3,right,1.01809191703796,230.121485939026,604.494430770874,607.254430770874,1631133683.16249,1631133683.16694,1631133689.09804,1631133689.10057,1631133691.19882,1631133695.66716,1631133695.66895,1631133696.7019,1631133696.70088,1631134071.07382,0
61,4,2,2,13,5,2,c2_WhyHand,2,helping?,40,H_012.jpg,1631133463.81939,1631133463.8218,216.583103647232,5.92876529693604,222.518650045395,224.619434585571,0.3,230.438270559311,1.05039167404175,231.489737977982,3,right,1.02881503105164,231.488662233353,604.494430770874,607.254430770874,1631133683.16249,1631133683.16694,1631133689.09804,1631133689.10057,1631133691.19882,1631133697.01766,1631133697.01932,1631133698.06913,1631133698.06805,1631134071.07382,0
61,4,2,2,13,6,2,c2_WhyHand,1,helping?,38,H_077.jpg,1631133463.81939,1631133463.8218,216.583103647232,5.92876529693604,222.518650045395,224.619434585571,0.3,231.805447330475,1.16710186004639,232.973549833298,1,left,1.15577292442322,232.972549190521,604.494430770874,607.254430770874,1631133683.16249,1631133683.16694,1631133689.09804,1631133689.10057,1631133691.19882,1631133698.38484,1631133698.38633,1631133699.55294,1631133699.55194,1631134071.07382,1
61,4,2,2,13,7,2,c2_WhyHand,2,helping?,35,H_159.jpg,1631133463.81939,1631133463.8218,216.583103647232,5.92876529693604,222.518650045395,224.619434585571,0.3,233.289332857132,1.13375735282898,234.424115886688,3,right,1.12137413024902,234.423090209961,604.494430770874,607.254430770874,1631133683.16249,1631133683.16694,1631133689.09804,1631133689.10057,1631133691.19882,1631133699.86872,1631133699.87024,1631133701.00351,1631133701.00248,1631134071.07382,0
61,4,2,2,13,8,2,c2_WhyHand,1,helping?,34,H_111.jpg,1631133463.81939,1631133463.8218,216.583103647232,5.92876529693604,222.518650045395,224.619434585571,0.3,234.739874353409,1.51723265647888,236.271271934509,1,left,1.50648379325867,236.257107009888,604.494430770874,607.254430770874,1631133683.16249,1631133683.16694,1631133689.09804,1631133689.10057,1631133691.19882,1631133701.31926,1631133701.32115,1631133702.85066,1631133702.8365,1631134071.07382,1
61,4,2,2,14,1,4,c4_HowHand,1,reaching?,109,H_474.jpg,1631133463.81939,1631133463.8218,236.340471496582,3.701420545578,240.05852388382,242.159307947159,2.10078406333923,242.309363594055,1.26713967323303,243.587516059875,3,right,1.26065397262573,243.576503267288,604.494430770874,607.254430770874,1631133702.91986,1631133702.92142,1631133706.63791,1631133706.63958,1631133708.7387,1631133708.88875,1631133708.89014,1631133710.16691,1631133710.15589,1631134071.07382,0
61,4,2,2,14,2,4,c4_HowHand,1,reaching?,111,H_003.jpg,1631133463.81939,1631133463.8218,236.340471496582,3.701420545578,240.05852388382,242.159307947159,0.3,243.893287887573,0.800298929214478,244.694998016357,1,left,0.779495000839233,244.693586816788,604.494430770874,607.254430770874,1631133702.91986,1631133702.92142,1631133706.63791,1631133706.63958,1631133708.7387,1631133710.47268,1631133710.47438,1631133711.27439,1631133711.27298,1631134071.07382,1
61,4,2,2,14,3,4,c4_HowHand,2,reaching?,112,H_132.jpg,1631133463.81939,1631133463.8218,236.340471496582,3.701420545578,240.05852388382,242.159307947159,0.3,245.010371437073,1.06706500053406,246.087627878189,3,right,1.05508899688721,246.077436437607,604.494430770874,607.254430770874,1631133702.91986,1631133702.92142,1631133706.63791,1631133706.63958,1631133708.7387,1631133711.58976,1631133711.59137,1631133712.66702,1631133712.65683,1631134071.07382,0
61,4,2,2,14,4,4,c4_HowHand,1,reaching?,110,H_364.jpg,1631133463.81939,1631133463.8218,236.340471496582,3.701420545578,240.05852388382,242.159307947159,0.3,246.39422129631,0.933680295944214,247.337970962524,1,left,0.925987005233765,247.327901592255,604.494430770874,607.254430770874,1631133702.91986,1631133702.92142,1631133706.63791,1631133706.63958,1631133708.7387,1631133712.97361,1631133712.97514,1631133713.91736,1631133713.90729,1631134071.07382,1
61,4,2,2,14,5,4,c4_HowHand,1,reaching?,106,H_006.jpg,1631133463.81939,1631133463.8218,236.340471496582,3.701420545578,240.05852388382,242.159307947159,0.3,247.644687643051,1.11708283424377,248.771489849091,1,left,1.10564804077148,248.761770477295,604.494430770874,607.254430770874,1631133702.91986,1631133702.92142,1631133706.63791,1631133706.63958,1631133708.7387,1631133714.22408,1631133714.22603,1631133715.35088,1631133715.34116,1631134071.07382,1
61,4,2,2,14,6,4,c4_HowHand,2,reaching?,108,H_532.jpg,1631133463.81939,1631133463.8218,236.340471496582,3.701420545578,240.05852388382,242.159307947159,0.3,249.078554859161,1.31715798377991,250.404871931076,3,right,1.30526995658875,250.395712842941,604.494430770874,607.254430770874,1631133702.91986,1631133702.92142,1631133706.63791,1631133706.63958,1631133708.7387,1631133715.65794,1631133715.65968,1631133716.98426,1631133716.9751,1631134071.07382,0
61,4,2,2,14,7,4,c4_HowHand,2,reaching?,105,H_438.jpg,1631133463.81939,1631133463.8218,236.340471496582,3.701420545578,240.05852388382,242.159307947159,0.3,250.712498178482,1.63394141197205,252.347523918152,3,right,1.61064696311951,252.346439590454,604.494430770874,607.254430770874,1631133702.91986,1631133702.92142,1631133706.63791,1631133706.63958,1631133708.7387,1631133717.29189,1631133717.29357,1631133718.92691,1631133718.92583,1631134071.07382,0
61,4,2,2,14,8,4,c4_HowHand,1,reaching?,107,H_007.jpg,1631133463.81939,1631133463.8218,236.340471496582,3.701420545578,240.05852388382,242.159307947159,0.3,252.663225402832,0.983699321746826,253.648628940582,1,left,0.961770057678223,253.646924724579,604.494430770874,607.254430770874,1631133702.91986,1631133702.92142,1631133706.63791,1631133706.63958,1631133708.7387,1631133719.24262,1631133719.24406,1631133720.22802,1631133720.22631,1631134071.07382,1
61,4,2,2,15,1,3,c3_HowFace,1,looking at camera?,60,F_618.jpg,1631133463.81939,1631133463.8218,253.713616600037,5.11828327178955,258.848865499496,260.949649085999,2.10078358650208,261.099704971313,0.683588027954102,261.788162937164,1,left,0.669659852981567,261.783292999268,604.494430770874,607.254430770874,1631133720.29301,1631133720.30093,1631133725.42826,1631133725.43033,1631133727.52904,1631133727.6791,1631133727.6811,1631133728.36755,1631133728.36268,1631134071.07382,1
61,4,2,2,15,2,3,c3_HowFace,2,looking at camera?,63,F_743.jpg,1631133463.81939,1631133463.8218,253.713616600037,5.11828327178955,258.848865499496,260.949649085999,0.3,262.10007809639,0.800297975540161,262.904217948914,3,right,0.779176950454712,262.90037607193,604.494430770874,607.254430770874,1631133720.29301,1631133720.30093,1631133725.42826,1631133725.43033,1631133727.52904,1631133728.67947,1631133728.68401,1631133729.48361,1631133729.47977,1631134071.07382,0
61,4,2,2,15,3,3,c3_HowFace,1,looking at camera?,62,F_598.jpg,1631133463.81939,1631133463.8218,253.713616600037,5.11828327178955,258.848865499496,260.949649085999,0.3,263.217160930634,0.616897106170654,263.83762597084,1,left,0.606410980224609,263.834058036804,604.494430770874,607.254430770874,1631133720.29301,1631133720.30093,1631133725.42826,1631133725.43033,1631133727.52904,1631133729.79655,1631133729.80144,1631133730.41702,1631133730.41345,1631134071.07382,1
61,4,2,2,15,4,3,c3_HowFace,1,looking at camera?,61,F_774.jpg,1631133463.81939,1631133463.8218,253.713616600037,5.11828327178955,258.848865499496,260.949649085999,0.3,264.150843133926,0.700260639190674,264.854636898041,1,left,0.687251091003418,264.851103773117,604.494430770874,607.254430770874,1631133720.29301,1631133720.30093,1631133725.42826,1631133725.43033,1631133727.52904,1631133730.73023,1631133730.73392,1631133731.43403,1631133731.43049,1631134071.07382,1
61,4,2,2,15,5,3,c3_HowFace,1,looking at camera?,59,F_129.jpg,1631133463.81939,1631133463.8218,253.713616600037,5.11828327178955,258.848865499496,260.949649085999,0.3,265.167889108658,0.683587789535522,265.854246845245,1,left,0.67180609703064,265.851476898193,604.494430770874,607.254430770874,1631133720.29301,1631133720.30093,1631133725.42826,1631133725.43033,1631133727.52904,1631133731.74728,1631133731.75115,1631133732.43364,1631133732.43087,1631134071.07382,1
61,4,2,2,15,6,3,c3_HowFace,1,looking at camera?,64,F_128.jpg,1631133463.81939,1631133463.8218,253.713616600037,5.11828327178955,258.848865499496,260.949649085999,0.3,266.168261995316,0.83364462852478,267.004225006104,1,left,0.817418098449707,267.00190662384,604.494430770874,607.254430770874,1631133720.29301,1631133720.30093,1631133725.42826,1631133725.43033,1631133727.52904,1631133732.74765,1631133732.75057,1631133733.58362,1631133733.5813,1631134071.07382,1
61,4,2,2,15,7,3,c3_HowFace,2,looking at camera?,57,F_582.jpg,1631133463.81939,1631133463.8218,253.713616600037,5.11828327178955,258.848865499496,260.949649085999,0.3,267.318691482544,0.833643674850464,268.154264917374,3,right,0.810196161270142,268.152335157394,604.494430770874,607.254430770874,1631133720.29301,1631133720.30093,1631133725.42826,1631133725.43033,1631133727.52904,1631133733.89808,1631133733.90072,1631133734.73365,1631133734.73173,1631134071.07382,0
61,4,2,2,15,8,3,c3_HowFace,2,looking at camera?,58,F_754.jpg,1631133463.81939,1631133463.8218,253.713616600037,5.11828327178955,258.848865499496,260.949649085999,0.3,268.469120254517,1.05039072036743,269.521230926514,3,right,1.04258012771606,269.519510974884,604.494430770874,607.254430770874,1631133720.29301,1631133720.30093,1631133725.42826,1631133725.43033,1631133727.52904,1631133735.04851,1631133735.05099,1631133736.10062,1631133736.0989,1631134071.07382,0
61,4,2,2,16,1,1,c1_WhyFace,1,self-doubt?,25,F_798.jpg,1631133463.81939,1631133463.8218,269.602876176834,10.7090916633606,280.323540916443,282.424324502945,2.10078358650208,282.574380149841,0.983700037002563,283.559097042084,1,left,0.968103170394897,283.558080186844,604.494430770874,607.254430770874,1631133736.18227,1631133736.18426,1631133746.90293,1631133746.90517,1631133749.00371,1631133749.15377,1631133749.15549,1631133750.13849,1631133750.13747,1631134071.07382,1
61,4,2,2,16,2,1,c1_WhyFace,2,self-doubt?,32,F_128.jpg,1631133463.81939,1631133463.8218,269.602876176834,10.7090916633606,280.323540916443,282.424324502945,0.3,283.874865283966,1.00037312507629,284.876289834976,3,right,0.986422777175903,284.875238409042,604.494430770874,607.254430770874,1631133736.18227,1631133736.18426,1631133746.90293,1631133746.90517,1631133749.00371,1631133750.45426,1631133750.45551,1631133751.45568,1631133751.45463,1631134071.07382,0
61,4,2,2,16,3,1,c1_WhyFace,1,self-doubt?,28,F_754.jpg,1631133463.81939,1631133463.8218,269.602876176834,10.7090916633606,280.323540916443,282.424324502945,0.3,285.192023506165,0.917007207870483,286.120980014801,1,left,0.906474113464355,286.109030714035,604.494430770874,607.254430770874,1631133736.18227,1631133736.18426,1631133746.90293,1631133746.90517,1631133749.00371,1631133751.77141,1631133751.77327,1631133752.70037,1631133752.68842,1631134071.07382,1
61,4,2,2,16,4,1,c1_WhyFace,1,self-doubt?,29,F_544.jpg,1631133463.81939,1631133463.8218,269.602876176834,10.7090916633606,280.323540916443,282.424324502945,0.3,286.425816049576,0.883662939071655,287.310683956146,1,left,0.865273952484131,287.309478988647,604.494430770874,607.254430770874,1631133736.18227,1631133736.18426,1631133746.90293,1631133746.90517,1631133749.00371,1631133753.00521,1631133753.00654,1631133753.89007,1631133753.88887,1631134071.07382,1
61,4,2,2,16,5,1,c1_WhyFace,2,self-doubt?,27,F_086.jpg,1631133463.81939,1631133463.8218,269.602876176834,10.7090916633606,280.323540916443,282.424324502945,0.3,287.626264324188,0.933680295944214,288.561044921875,3,right,0.911867141723633,288.559944620132,604.494430770874,607.254430770874,1631133736.18227,1631133736.18426,1631133746.90293,1631133746.90517,1631133749.00371,1631133754.20565,1631133754.20719,1631133755.14043,1631133755.13933,1631134071.07382,0
61,4,2,2,16,6,1,c1_WhyFace,1,self-doubt?,26,F_111.jpg,1631133463.81939,1631133463.8218,269.602876176834,10.7090916633606,280.323540916443,282.424324502945,0.3,288.876729955673,1.0337188243866,289.912025918961,1,left,1.01315593719482,289.91044878006,604.494430770874,607.254430770874,1631133736.18227,1631133736.18426,1631133746.90293,1631133746.90517,1631133749.00371,1631133755.45612,1631133755.45804,1631133756.49142,1631133756.48984,1631134071.07382,1
61,4,2,2,16,7,1,c1_WhyFace,2,self-doubt?,31,F_774.jpg,1631133463.81939,1631133463.8218,269.602876176834,10.7090916633606,280.323540916443,282.424324502945,0.3,290.227233161926,0.783626317977905,291.021492948532,3,right,0.77276611328125,291.010859479904,604.494430770874,607.254430770874,1631133736.18227,1631133736.18426,1631133746.90293,1631133746.90517,1631133749.00371,1631133756.80662,1631133756.80835,1631133757.60088,1631133757.59025,1631134071.07382,0
61,4,2,2,16,8,1,c1_WhyFace,1,self-doubt?,30,F_584.jpg,1631133463.81939,1631133463.8218,269.602876176834,10.7090916633606,280.323540916443,282.424324502945,0.3,291.327644338608,1.03371858596802,292.370972862244,1,left,1.02244806289673,292.361362924576,604.494430770874,607.254430770874,1631133736.18227,1631133736.18426,1631133746.90293,1631133746.90517,1631133749.00371,1631133757.90703,1631133757.90895,1631133758.95036,1631133758.94075,1631134071.07382,1
61,4,2,2,17,1,4,c4_HowHand,1,reaching?,106,H_006.jpg,1631133463.81939,1631133463.8218,292.444726696014,5.75717735290527,298.213545312881,300.314328899384,2.10078358650208,300.464385023117,0.800298690795898,301.266303052902,1,left,0.775000810623169,301.264683713913,604.494430770874,607.254430770874,1631133759.02412,1631133759.02546,1631133764.79294,1631133764.80117,1631133766.89372,1631133767.04378,1631133767.05105,1631133767.84569,1631133767.84407,1631134071.07382,1
61,4,2,2,17,2,4,c4_HowHand,2,reaching?,105,H_438.jpg,1631133463.81939,1631133463.8218,292.444726696014,5.75717735290527,298.213545312881,300.314328899384,0.3,301.581468334198,1.15042877197266,302.73821305275,3,right,1.13757610321045,302.731897106171,604.494430770874,607.254430770874,1631133759.02412,1631133759.02546,1631133764.79294,1631133764.80117,1631133766.89372,1631133768.16086,1631133768.16301,1631133769.3176,1631133769.31129,1631134071.07382,0
61,4,2,2,17,3,4,c4_HowHand,1,reaching?,111,H_003.jpg,1631133463.81939,1631133463.8218,292.444726696014,5.75717735290527,298.213545312881,300.314328899384,0.3,303.048682203293,0.716933488845825,303.771563997269,1,left,0.698802947998047,303.765615692139,604.494430770874,607.254430770874,1631133759.02412,1631133759.02546,1631133764.79294,1631133764.80117,1631133766.89372,1631133769.62807,1631133769.62994,1631133770.35095,1631133770.34501,1631134071.07382,1
61,4,2,2,17,4,4,c4_HowHand,1,reaching?,109,H_474.jpg,1631133463.81939,1631133463.8218,292.444726696014,5.75717735290527,298.213545312881,300.314328899384,0.3,304.082400550842,1.45054173469543,305.537962903976,3,right,1.43447494506836,305.532942285538,604.494430770874,607.254430770874,1631133759.02412,1631133759.02546,1631133764.79294,1631133764.80117,1631133766.89372,1631133770.66179,1631133770.66316,1631133772.11735,1631133772.11233,1631134071.07382,0
61,4,2,2,17,5,4,c4_HowHand,2,reaching?,108,H_532.jpg,1631133463.81939,1631133463.8218,292.444726696014,5.75717735290527,298.213545312881,300.314328899384,0.3,305.849725952148,1.08373808860779,306.937569847107,3,right,1.0656361579895,306.933464040756,604.494430770874,607.254430770874,1631133759.02412,1631133759.02546,1631133764.79294,1631133764.80117,1631133766.89372,1631133772.42912,1631133772.43066,1631133773.51696,1631133773.51285,1631134071.07382,0
61,4,2,2,17,6,4,c4_HowHand,1,reaching?,110,H_364.jpg,1631133463.81939,1631133463.8218,292.444726696014,5.75717735290527,298.213545312881,300.314328899384,0.3,307.25024889946,0.783625602722168,308.037497987747,1,left,0.77132511138916,308.033874502182,604.494430770874,607.254430770874,1631133759.02412,1631133759.02546,1631133764.79294,1631133764.80117,1631133766.89372,1631133773.82964,1631133773.83421,1631133774.61689,1631133774.61326,1631134071.07382,1
61,4,2,2,17,7,4,c4_HowHand,1,reaching?,107,H_007.jpg,1631133463.81939,1631133463.8218,292.444726696014,5.75717735290527,298.213545312881,300.314328899384,0.3,308.35065864563,0.683587789535522,309.038223972321,1,left,0.669096946716309,309.034246435165,604.494430770874,607.254430770874,1631133759.02412,1631133759.02546,1631133764.79294,1631133764.80117,1631133766.89372,1631133774.93005,1631133774.93428,1631133775.61761,1631133775.61364,1631134071.07382,1
61,4,2,2,17,8,4,c4_HowHand,2,reaching?,112,H_132.jpg,1631133463.81939,1631133463.8218,292.444726696014,5.75717735290527,298.213545312881,300.314328899384,0.3,309.351032247543,1.23379325866699,310.585947980881,3,right,1.21030211448669,310.58482550621,604.494430770874,607.254430770874,1631133759.02412,1631133759.02546,1631133764.79294,1631133764.80117,1631133766.89372,1631133775.93042,1631133775.93412,1631133777.16534,1631133777.16422,1631134071.07382,0
61,4,2,2,18,1,2,c2_WhyHand,1,healthy?,18,H_438.jpg,1631133463.81939,1631133463.8218,310.651516904831,10.0324470996857,320.688592662811,322.789377441406,2.10078477859497,322.939432611465,0.833645105361938,323.774536838532,1,left,0.808412075042725,323.773077716827,604.494430770874,607.254430770874,1631133777.23091,1631133777.234,1631133787.26798,1631133787.28428,1631133789.36877,1631133789.51882,1631133789.53451,1631133790.35393,1631133790.35247,1631134071.07382,1
61,4,2,2,18,2,2,c2_WhyHand,2,healthy?,20,H_007.jpg,1631133463.81939,1631133463.8218,310.651516904831,10.0324470996857,320.688592662811,322.789377441406,0.3,324.089862098694,0.900335073471069,325.004818906784,3,right,0.890085935592651,324.990197172165,604.494430770874,607.254430770874,1631133777.23091,1631133777.234,1631133787.26798,1631133787.28428,1631133789.36877,1631133790.66925,1631133790.67112,1631133791.58421,1631133791.56959,1631134071.07382,0
61,4,2,2,18,3,2,c2_WhyHand,1,healthy?,23,H_364.jpg,1631133463.81939,1631133463.8218,310.651516904831,10.0324470996857,320.688592662811,322.789377441406,0.3,325.306982030869,0.950355291366577,326.258362998962,1,left,0.936475992202759,326.257337322235,604.494430770874,607.254430770874,1631133777.23091,1631133777.234,1631133787.26798,1631133787.28428,1631133789.36877,1631133791.88637,1631133791.88793,1631133792.83775,1631133792.83673,1631134071.07382,1
61,4,2,2,18,4,2,c2_WhyHand,2,healthy?,24,H_019.jpg,1631133463.81939,1631133463.8218,310.651516904831,10.0324470996857,320.688592662811,322.789377441406,0.3,326.574122657776,0.800297737121582,327.375460853577,3,right,0.777157068252563,327.374420394897,604.494430770874,607.254430770874,1631133777.23091,1631133777.234,1631133787.26798,1631133787.28428,1631133789.36877,1631133793.15351,1631133793.15515,1631133793.95485,1631133793.95381,1631134071.07382,0
61,4,2,2,18,5,2,c2_WhyHand,1,healthy?,19,H_167.jpg,1631133463.81939,1631133463.8218,310.651516904831,10.0324470996857,320.688592662811,322.789377441406,0.3,327.691203107834,0.750281095504761,328.454622974396,1,left,0.742939949035645,328.441484203339,604.494430770874,607.254430770874,1631133777.23091,1631133777.234,1631133787.26798,1631133787.28428,1631133789.36877,1631133794.27059,1631133794.27225,1631133795.03401,1631133795.02087,1631134071.07382,1
61,4,2,2,18,6,2,c2_WhyHand,2,healthy?,22,H_130.jpg,1631133463.81939,1631133463.8218,310.651516904831,10.0324470996857,320.688592662811,322.789377441406,0.3,328.758268585205,0.917009353637695,329.6766979599,3,right,0.898196935653687,329.675277938843,604.494430770874,607.254430770874,1631133777.23091,1631133777.234,1631133787.26798,1631133787.28428,1631133789.36877,1631133795.33766,1631133795.33897,1631133796.25609,1631133796.25467,1631134071.07382,0
61,4,2,2,18,7,2,c2_WhyHand,1,healthy?,21,H_627.jpg,1631133463.81939,1631133463.8218,310.651516904831,10.0324470996857,320.688592662811,322.789377441406,0.3,329.992063035965,0.950354099273682,330.943516960144,1,left,0.93745493888855,330.942417135239,604.494430770874,607.254430770874,1631133777.23091,1631133777.234,1631133787.26798,1631133787.28428,1631133789.36877,1631133796.57145,1631133796.57319,1631133797.52291,1631133797.52181,1631134071.07382,1
61,4,2,2,18,8,2,c2_WhyHand,1,healthy?,17,H_362.jpg,1631133463.81939,1631133463.8218,310.651516904831,10.0324470996857,320.688592662811,322.789377441406,0.3,331.259201993942,0.0166730880737305,331.276969900131,1,left,0.000428915023803711,331.275875082016,604.494430770874,607.254430770874,1631133777.23091,1631133777.234,1631133787.26798,1631133787.28428,1631133789.36877,1631133797.83859,1631133797.84055,1631133797.85636,1631133797.85527,1631134071.07382,1
61,4,2,2,19,1,1,c1_WhyFace,1,proud?,101,F_083.jpg,1631133463.81939,1631133463.8218,331.342566003799,7.41147184371948,338.762000074387,340.862782945633,2.10078287124634,341.012839069366,0.750279664993286,341.764948835373,1,left,0.724449872970581,341.76311873436,604.494430770874,607.254430770874,1631133797.92196,1631133797.93425,1631133805.34139,1631133805.35122,1631133807.44217,1631133807.59223,1631133807.60141,1631133808.34434,1631133808.34251,1631134071.07382,1
61,4,2,2,19,2,1,c1_WhyFace,2,proud?,98,F_412.jpg,1631133463.81939,1631133463.8218,331.342566003799,7.41147184371948,338.762000074387,340.862782945633,0.3,342.079904069901,0.816971302032471,342.904590835571,3,right,0.805360078811646,342.896875371933,604.494430770874,607.254430770874,1631133797.92196,1631133797.93425,1631133805.34139,1631133805.35122,1631133807.44217,1631133808.65929,1631133808.66091,1631133809.48398,1631133809.47627,1631134071.07382,0
61,4,2,2,19,3,1,c1_WhyFace,1,proud?,99,F_695.jpg,1631133463.81939,1631133463.8218,331.342566003799,7.41147184371948,338.762000074387,340.862782945633,0.3,343.213660230637,0.733607053756714,343.95468091011,1,left,0.722388029098511,343.947267284393,604.494430770874,607.254430770874,1631133797.92196,1631133797.93425,1631133805.34139,1631133805.35122,1631133807.44217,1631133809.79305,1631133809.79463,1631133810.53407,1631133810.52666,1631134071.07382,1
61,4,2,2,19,4,1,c1_WhyFace,1,proud?,104,F_598.jpg,1631133463.81939,1631133463.8218,331.342566003799,7.41147184371948,338.762000074387,340.862782945633,0.3,344.264052381516,0.733606815338135,345.004585018158,1,left,0.718801021575928,344.997659196854,604.494430770874,607.254430770874,1631133797.92196,1631133797.93425,1631133805.34139,1631133805.35122,1631133807.44217,1631133810.84344,1631133810.84523,1631133811.58398,1631133811.57705,1631134071.07382,1
61,4,2,2,19,5,1,c1_WhyFace,1,proud?,103,F_618.jpg,1631133463.81939,1631133463.8218,331.342566003799,7.41147184371948,338.762000074387,340.862782945633,0.3,345.314442625046,0.783626317977905,346.099138965607,1,left,0.763528108596802,346.098068943024,604.494430770874,607.254430770874,1631133797.92196,1631133797.93425,1631133805.34139,1631133805.35122,1631133807.44217,1631133811.89383,1631133811.89559,1631133812.67853,1631133812.67746,1631134071.07382,1
61,4,2,2,19,6,1,c1_WhyFace,1,proud?,97,F_582.jpg,1631133463.81939,1631133463.8218,331.342566003799,7.41147184371948,338.762000074387,340.862782945633,0.3,346.414854516983,0.733606815338135,347.154334058762,1,left,0.726791858673096,347.148461332321,604.494430770874,607.254430770874,1631133797.92196,1631133797.93425,1631133805.34139,1631133805.35122,1631133807.44217,1631133812.99424,1631133812.99609,1631133813.73372,1631133813.72785,1631134071.07382,1
61,4,2,2,19,7,1,c1_WhyFace,2,proud?,102,F_760.jpg,1631133463.81939,1631133463.8218,331.342566003799,7.41147184371948,338.762000074387,340.862782945633,0.3,347.465246429443,0.866990327835083,348.338155975342,3,right,0.850160837173462,348.332236757278,604.494430770874,607.254430770874,1631133797.92196,1631133797.93425,1631133805.34139,1631133805.35122,1631133807.44217,1631133814.04464,1631133814.04617,1631133814.91755,1631133814.91163,1631134071.07382,0
61,4,2,2,19,8,1,c1_WhyFace,2,proud?,100,F_776.jpg,1631133463.81939,1631133463.8218,331.342566003799,7.41147184371948,338.762000074387,340.862782945633,0.3,348.649020423889,0.983699321746826,349.634279003143,3,right,0.962195158004761,349.632719745636,604.494430770874,607.254430770874,1631133797.92196,1631133797.93425,1631133805.34139,1631133805.35122,1631133807.44217,1631133815.22841,1631133815.23034,1631133816.21367,1631133816.21211,1631134071.07382,0
61,4,2,2,20,1,3,c3_HowFace,1,smiling?,115,F_695.jpg,1631133463.81939,1631133463.8218,349.716085186005,10.5177948474884,360.253348340988,362.337459316254,2.0841109752655,362.487514486313,0.783625602722168,363.272073020935,1,left,0.75632905960083,363.271140089035,604.494430770874,607.254430770874,1631133816.29548,1631133816.29709,1631133826.83274,1631133826.83449,1631133828.91685,1631133829.0669,1631133829.08515,1631133829.85146,1631133829.85053,1631134071.07382,1
61,4,2,2,20,2,3,c3_HowFace,2,smiling?,114,F_412.jpg,1631133463.81939,1631133463.8218,349.716085186005,10.5177948474884,360.253348340988,362.337459316254,0.3,363.587925186157,0.766952991485596,364.355975856781,3,right,0.755539894104004,364.354878177643,604.494430770874,607.254430770874,1631133816.29548,1631133816.29709,1631133826.83274,1631133826.83449,1631133828.91685,1631133830.16732,1631133830.16879,1631133830.93537,1631133830.93427,1631134071.07382,0
61,4,2,2,20,3,3,c3_HowFace,1,smiling?,116,F_083.jpg,1631133463.81939,1631133463.8218,349.716085186005,10.5177948474884,360.253348340988,362.337459316254,0.3,364.671662082672,0.733607292175293,365.406791915894,1,left,0.716744899749756,365.405269374847,604.494430770874,607.254430770874,1631133816.29548,1631133816.29709,1631133826.83274,1631133826.83449,1631133828.91685,1631133831.25105,1631133831.25257,1631133831.98618,1631133831.98466,1631134071.07382,1
61,4,2,2,20,4,3,c3_HowFace,1,smiling?,117,F_593.jpg,1631133463.81939,1631133463.8218,349.716085186005,10.5177948474884,360.253348340988,362.337459316254,0.3,365.722053995132,0.866990089416504,366.590528001785,1,left,0.853564023971558,366.589044084549,604.494430770874,607.254430770874,1631133816.29548,1631133816.29709,1631133826.83274,1631133826.83449,1631133828.91685,1631133832.30144,1631133832.30303,1631133833.16992,1631133833.16843,1631134071.07382,1
61,4,2,2,20,5,3,c3_HowFace,2,smiling?,113,F_712.jpg,1631133463.81939,1631133463.8218,349.716085186005,10.5177948474884,360.253348340988,362.337459316254,0.3,366.905828466415,0.816972017288208,367.723829021454,3,right,0.802062034606934,367.722800483704,604.494430770874,607.254430770874,1631133816.29548,1631133816.29709,1631133826.83274,1631133826.83449,1631133828.91685,1631133833.48522,1631133833.48681,1631133834.30322,1631133834.30219,1631134071.07382,0
61,4,2,2,20,6,3,c3_HowFace,1,smiling?,119,F_139.jpg,1631133463.81939,1631133463.8218,349.716085186005,10.5177948474884,360.253348340988,362.337459316254,0.3,368.03958486557,1.01704573631287,369.071526041031,1,left,1.00762391090393,369.056630601883,604.494430770874,607.254430770874,1631133816.29548,1631133816.29709,1631133826.83274,1631133826.83449,1631133828.91685,1631133834.61897,1631133834.62044,1631133835.65092,1631133835.63602,1631134071.07382,1
61,4,2,2,20,7,3,c3_HowFace,1,smiling?,118,F_759.jpg,1631133463.81939,1631133463.8218,349.716085186005,10.5177948474884,360.253348340988,362.337459316254,0.3,369.373416175842,0.950353860855103,370.324810018539,1,left,0.932991027832031,370.323770036697,604.494430770874,607.254430770874,1631133816.29548,1631133816.29709,1631133826.83274,1631133826.83449,1631133828.91685,1631133835.95281,1631133835.95478,1631133836.9042,1631133836.90316,1631134071.07382,1
61,4,2,2,20,8,3,c3_HowFace,2,smiling?,120,F_758.jpg,1631133463.81939,1631133463.8218,349.716085186005,10.5177948474884,360.253348340988,362.337459316254,0.3,370.64055513382,0.866990089416504,371.5086419487,3,right,0.850945949554443,371.507545223236,604.494430770874,607.254430770874,1631133816.29548,1631133816.29709,1631133826.83274,1631133826.83449,1631133828.91685,1631133837.21995,1631133837.22157,1631133838.08803,1631133838.08694,1631134071.07382,0
61,4,2,2,21,1,4,c4_HowHand,1,both hands?,123,H_167.jpg,1631133463.81939,1631133463.8218,371.59090970993,7.75096035003662,379.360474815369,381.444584121704,2.08410930633545,381.594640007019,0.650242328643799,382.254883041382,1,left,0.626652002334595,382.244882335663,604.494430770874,607.254430770874,1631133838.1703,1631133838.17193,1631133845.93986,1631133845.94155,1631133848.02397,1631133848.17403,1631133848.18467,1631133848.83427,1631133848.82427,1631134071.07382,1
61,4,2,2,21,2,4,c4_HowHand,2,both hands?,126,H_159.jpg,1631133463.81939,1631133463.8218,371.59090970993,7.75096035003662,379.360474815369,381.444584121704,0.3,382.561666955948,1.03371858596802,383.604641904831,3,right,1.02153086662292,383.595385541916,604.494430770874,607.254430770874,1631133838.1703,1631133838.17193,1631133845.93986,1631133845.94155,1631133848.02397,1631133849.14106,1631133849.14294,1631133850.18403,1631133850.17478,1631134071.07382,0
61,4,2,2,21,3,4,c4_HowHand,1,both hands?,128,H_027.jpg,1631133463.81939,1631133463.8218,371.59090970993,7.75096035003662,379.360474815369,381.444584121704,0.3,383.912171115875,1.00037336349487,384.921064844131,1,left,0.990228176116943,384.91254447937,604.494430770874,607.254430770874,1631133838.1703,1631133838.17193,1631133845.93986,1631133845.94155,1631133848.02397,1631133850.49156,1631133850.49358,1631133851.50045,1631133851.49193,1631134071.07382,1
61,4,2,2,21,4,4,c4_HowHand,1,both hands?,124,H_581.jpg,1631133463.81939,1631133463.8218,371.59090970993,7.75096035003662,379.360474815369,381.444584121704,0.3,385.229329099655,0.0166723728179932,385.255106916428,1,left,0.000481128692626953,385.246001472473,604.494430770874,607.254430770874,1631133838.1703,1631133838.17193,1631133845.93986,1631133845.94155,1631133848.02397,1631133851.80872,1631133851.81093,1631133851.8345,1631133851.82539,1631134071.07382,1
61,4,2,2,21,5,4,c4_HowHand,2,both hands?,121,H_091.jpg,1631133463.81939,1631133463.8218,371.59090970993,7.75096035003662,379.360474815369,381.444584121704,0.3,385.562785615921,0.900336503982544,386.47095703125,3,right,0.887614011764526,386.463122119904,604.494430770874,607.254430770874,1631133838.1703,1631133838.17193,1631133845.93986,1631133845.94155,1631133848.02397,1631133852.14218,1631133852.14444,1631133853.05035,1631133853.04251,1631134071.07382,0
61,4,2,2,21,6,4,c4_HowHand,1,both hands?,122,H_111.jpg,1631133463.81939,1631133463.8218,371.59090970993,7.75096035003662,379.360474815369,381.444584121704,0.3,386.779907217026,0.850316762924194,387.638005008698,1,left,0.835256099700928,387.63022397995,604.494430770874,607.254430770874,1631133838.1703,1631133838.17193,1631133845.93986,1631133845.94155,1631133848.02397,1631133853.3593,1631133853.36092,1631133854.2174,1631133854.20961,1631134071.07382,1
61,4,2,2,21,7,4,c4_HowHand,2,both hands?,125,H_627.jpg,1631133463.81939,1631133463.8218,371.59090970993,7.75096035003662,379.360474815369,381.444584121704,0.3,387.947009077072,1.20044803619385,389.149252882004,3,right,1.17829608917236,389.147457113266,604.494430770874,607.254430770874,1631133838.1703,1631133838.17193,1631133845.93986,1631133845.94155,1631133848.02397,1631133854.5264,1631133854.52793,1631133855.72864,1631133855.72685,1631134071.07382,0
61,4,2,2,21,8,4,c4_HowHand,1,both hands?,127,H_349.jpg,1631133463.81939,1631133463.8218,371.59090970993,7.75096035003662,379.360474815369,381.444584121704,0.3,389.464241256714,0.833644390106201,390.304846038818,1,left,0.816665172576904,390.29788564682,604.494430770874,607.254430770874,1631133838.1703,1631133838.17193,1631133845.93986,1631133845.94155,1631133848.02397,1631133856.04363,1631133856.04539,1631133856.88424,1631133856.87728,1631134071.07382,1
61,4,2,2,22,1,2,c2_WhyHand,1,helping?,34,H_111.jpg,1631133463.81939,1631133463.8218,390.381250610352,6.4907853603363,396.883674612045,398.98445772171,2.10078310966492,399.134513607025,0.967028379440308,400.104193916321,1,left,0.949462890625,400.101541986465,604.494430770874,607.254430770874,1631133856.96064,1631133856.9675,1631133863.46306,1631133863.46778,1631133865.56385,1631133865.7139,1631133865.7175,1631133866.68358,1631133866.68093,1631134071.07382,1
61,4,2,2,22,2,2,c2_WhyHand,1,helping?,38,H_077.jpg,1631133463.81939,1631133463.8218,390.381250610352,6.4907853603363,396.883674612045,398.98445772171,0.3,400.418326368332,0.733606576919556,401.154309024811,1,left,0.712985992431641,401.151932945251,604.494430770874,607.254430770874,1631133856.96064,1631133856.9675,1631133863.46306,1631133863.46778,1631133865.56385,1631133866.99772,1631133867.00111,1631133867.7337,1631133867.73132,1631134071.07382,1
61,4,2,2,22,3,2,c2_WhyHand,2,helping?,35,H_159.jpg,1631133463.81939,1631133463.8218,390.381250610352,6.4907853603363,396.883674612045,398.98445772171,0.3,401.468717327118,0.917009830474854,402.387949934006,3,right,0.894879817962646,402.385727157593,604.494430770874,607.254430770874,1631133856.96064,1631133856.9675,1631133863.46306,1631133863.46778,1631133865.56385,1631133868.04811,1631133868.05079,1631133868.96734,1631133868.96512,1631134071.07382,0
61,4,2,2,22,4,2,c2_WhyHand,1,helping?,37,H_474.jpg,1631133463.81939,1631133463.8218,390.381250610352,6.4907853603363,396.883674612045,398.98445772171,0.3,402.702512254715,0.967027187347412,403.670999994278,1,left,0.956167936325073,403.669539442062,604.494430770874,607.254430770874,1631133856.96064,1631133856.9675,1631133863.46306,1631133863.46778,1631133865.56385,1631133869.2819,1631133869.28427,1631133870.25039,1631133870.24893,1631134071.07382,1
61,4,2,2,22,5,2,c2_WhyHand,2,helping?,40,H_012.jpg,1631133463.81939,1631133463.8218,390.381250610352,6.4907853603363,396.883674612045,398.98445772171,0.3,403.986324300766,0.716934204101562,404.70497297287,3,right,0.69519305229187,404.703258504868,604.494430770874,607.254430770874,1631133856.96064,1631133856.9675,1631133863.46306,1631133863.46778,1631133865.56385,1631133870.56571,1631133870.56719,1631133871.28436,1631133871.28265,1631134071.07382,0
61,4,2,2,22,6,2,c2_WhyHand,1,helping?,39,H_024.jpg,1631133463.81939,1631133463.8218,390.381250610352,6.4907853603363,396.883674612045,398.98445772171,0.3,405.020041456223,1.56725215911865,406.589032878876,1,left,1.54698896408081,406.587293615341,604.494430770874,607.254430770874,1631133856.96064,1631133856.9675,1631133863.46306,1631133863.46778,1631133865.56385,1631133871.59943,1631133871.60111,1631133873.16842,1631133873.16668,1631134071.07382,1
61,4,2,2,22,7,2,c2_WhyHand,2,helping?,33,H_091.jpg,1631133463.81939,1631133463.8218,390.381250610352,6.4907853603363,396.883674612045,398.98445772171,0.3,406.904078474045,1.20044779777527,408.106116046906,3,right,1.18791198730469,408.10452627182,604.494430770874,607.254430770874,1631133856.96064,1631133856.9675,1631133863.46306,1631133863.46778,1631133865.56385,1631133873.48347,1631133873.48511,1631133874.68551,1631133874.68392,1631134071.07382,0
61,4,2,2,22,8,2,c2_WhyHand,1,helping?,36,H_349.jpg,1631133463.81939,1631133463.8218,390.381250610352,6.4907853603363,396.883674612045,398.98445772171,0.3,408.421311130524,1.66728806495667,410.090214958191,1,left,1.64732599258423,410.08859919548,604.494430770874,607.254430770874,1631133856.96064,1631133856.9675,1631133863.46306,1631133863.46778,1631133865.56385,1631133875.0007,1631133875.00205,1631133876.66961,1631133876.66799,1631134071.07382,1
61,4,2,2,23,1,1,c1_WhyFace,1,self-doubt?,28,F_754.jpg,1631133463.81939,1631133463.8218,410.171964635849,4.22992420196533,414.406876554489,416.507659664154,2.10078310966492,416.657716264725,0.61689567565918,417.275614967346,1,left,0.592779874801636,417.274611940384,604.494430770874,607.254430770874,1631133876.75135,1631133876.75302,1631133880.98627,1631133881.00108,1631133883.08705,1631133883.23711,1631133883.25095,1631133883.85501,1631133883.854,1631134071.07382,1
61,4,2,2,23,2,1,c1_WhyFace,2,self-doubt?,32,F_128.jpg,1631133463.81939,1631133463.8218,410.171964635849,4.22992420196533,414.406876554489,416.507659664154,0.3,417.591397514343,0.883662939071655,418.476498832703,3,right,0.869184970855713,418.475060453415,604.494430770874,607.254430770874,1631133876.75135,1631133876.75302,1631133880.98627,1631133881.00108,1631133883.08705,1631133884.17079,1631133884.1728,1631133885.05589,1631133885.05445,1631134071.07382,0
61,4,2,2,23,3,1,c1_WhyFace,1,self-doubt?,29,F_544.jpg,1631133463.81939,1631133463.8218,410.171964635849,4.22992420196533,414.406876554489,416.507659664154,0.3,418.791845788956,1.05039143562317,419.843615045547,1,left,1.03547310829163,419.842237224579,604.494430770874,607.254430770874,1631133876.75135,1631133876.75302,1631133880.98627,1631133881.00108,1631133883.08705,1631133885.37124,1631133885.37294,1631133886.42301,1631133886.42163,1631134071.07382,1
61,4,2,2,23,4,1,c1_WhyFace,2,self-doubt?,27,F_086.jpg,1631133463.81939,1631133463.8218,410.171964635849,4.22992420196533,414.406876554489,416.507659664154,0.3,420.159021129608,0.733607053756714,420.8941659832,3,right,0.720208168029785,420.892628183365,604.494430770874,607.254430770874,1631133876.75135,1631133876.75302,1631133880.98627,1631133881.00108,1631133883.08705,1631133886.73841,1631133886.73991,1631133887.47356,1631133887.47202,1631134071.07382,0
61,4,2,2,23,5,1,c1_WhyFace,1,self-doubt?,25,F_798.jpg,1631133463.81939,1631133463.8218,410.171964635849,4.22992420196533,414.406876554489,416.507659664154,0.3,421.209413042068,0.900336503982544,422.111315956116,1,left,0.883023977279663,422.109749546051,604.494430770874,607.254430770874,1631133876.75135,1631133876.75302,1631133880.98627,1631133881.00108,1631133883.08705,1631133887.7888,1631133887.79042,1631133888.69071,1631133888.68914,1631134071.07382,1
61,4,2,2,23,6,1,c1_WhyFace,1,self-doubt?,30,F_584.jpg,1631133463.81939,1631133463.8218,410.171964635849,4.22992420196533,414.406876554489,416.507659664154,0.3,422.426532735825,1.26714015007019,423.704494943619,1,left,1.25722289085388,423.693672885895,604.494430770874,607.254430770874,1631133876.75135,1631133876.75302,1631133880.98627,1631133881.00108,1631133883.08705,1631133889.00592,1631133889.0078,1631133890.28389,1631133890.27306,1631134071.07382,1
61,4,2,2,23,7,1,c1_WhyFace,1,self-doubt?,26,F_111.jpg,1631133463.81939,1631133463.8218,410.171964635849,4.22992420196533,414.406876554489,416.507659664154,0.3,424.010458698273,0.75027871131897,424.770951976776,1,left,0.736166954040527,424.760737409592,604.494430770874,607.254430770874,1631133876.75135,1631133876.75302,1631133880.98627,1631133881.00108,1631133883.08705,1631133890.58985,1631133890.59162,1631133891.35034,1631133891.34013,1631134071.07382,1
61,4,2,2,23,8,1,c1_WhyFace,2,self-doubt?,31,F_774.jpg,1631133463.81939,1631133463.8218,410.171964635849,4.22992420196533,414.406876554489,416.507659664154,0.3,425.077522268295,0.800299167633057,425.887533893585,3,right,0.788485050201416,425.877821435928,604.494430770874,607.254430770874,1631133876.75135,1631133876.75302,1631133880.98627,1631133881.00108,1631133883.08705,1631133891.65691,1631133891.65866,1631133892.46692,1631133892.45721,1631134071.07382,0
61,4,2,2,24,1,3,c3_HowFace,1,looking to side?,71,F_433.jpg,1631133463.81939,1631133463.8218,425.961184968948,7.23069286346436,433.197216978073,435.297999849319,2.10078287124634,435.44805644989,0.750279426574707,436.204859008789,1,left,0.727097988128662,436.198335876465,604.494430770874,607.254430770874,1631133892.54058,1631133892.55096,1631133899.77661,1631133899.78433,1631133901.87739,1631133902.02745,1631133902.03414,1631133902.78425,1631133902.77773,1631134071.07382,1
61,4,2,2,24,2,3,c3_HowFace,2,looking to side?,70,F_779.jpg,1631133463.81939,1631133463.8218,425.961184968948,7.23069286346436,433.197216978073,435.297999849319,0.3,436.515119066238,0.933683156967163,437.454910030365,1,left,0.917176961898804,437.448802223206,604.494430770874,607.254430770874,1631133892.54058,1631133892.55096,1631133899.77661,1631133899.78433,1631133901.87739,1631133903.09451,1631133903.09622,1631133904.0343,1631133904.02819,1631134071.07382,0
61,4,2,2,24,3,3,c3_HowFace,1,looking to side?,68,F_760.jpg,1631133463.81939,1631133463.8218,425.961184968948,7.23069286346436,433.197216978073,435.297999849319,0.3,437.765586843491,1.00037336349487,438.771535863876,1,left,0.985365867614746,438.765960206985,604.494430770874,607.254430770874,1631133892.54058,1631133892.55096,1631133899.77661,1631133899.78433,1631133901.87739,1631133904.34498,1631133904.34658,1631133905.35093,1631133905.34535,1631134071.07382,1
61,4,2,2,24,4,3,c3_HowFace,2,looking to side?,66,F_111.jpg,1631133463.81939,1631133463.8218,425.961184968948,7.23069286346436,433.197216978073,435.297999849319,0.3,439.082744588852,0.783626794815063,439.870946874619,3,right,0.775005102157593,439.866371383667,604.494430770874,607.254430770874,1631133892.54058,1631133892.55096,1631133899.77661,1631133899.78433,1631133901.87739,1631133905.66213,1631133905.66391,1631133906.45034,1631133906.44576,1631134071.07382,0
61,4,2,2,24,5,3,c3_HowFace,2,looking to side?,65,F_798.jpg,1631133463.81939,1631133463.8218,425.961184968948,7.23069286346436,433.197216978073,435.297999849319,0.3,440.183155765533,1.3338303565979,441.521008005142,3,right,1.31837201118469,441.516986122131,604.494430770874,607.254430770874,1631133892.54058,1631133892.55096,1631133899.77661,1631133899.78433,1631133901.87739,1631133906.76255,1631133906.76445,1631133908.1004,1631133908.09638,1631134071.07382,0
61,4,2,2,24,6,3,c3_HowFace,1,looking to side?,67,F_716.jpg,1631133463.81939,1631133463.8218,425.961184968948,7.23069286346436,433.197216978073,435.297999849319,0.3,441.833771696091,0.783625841140747,442.621592988968,1,left,0.770353078842163,442.617397537231,604.494430770874,607.254430770874,1631133892.54058,1631133892.55096,1631133899.77661,1631133899.78433,1631133901.87739,1631133908.41316,1631133908.41768,1631133909.20098,1631133909.19679,1631134071.07382,1
61,4,2,2,24,7,3,c3_HowFace,1,looking to side?,72,F_590.jpg,1631133463.81939,1631133463.8218,425.961184968948,7.23069286346436,433.197216978073,435.297999849319,0.3,442.934181919098,1.50055980682373,444.438333024979,1,left,1.47905397415161,444.434741725922,604.494430770874,607.254430770874,1631133892.54058,1631133892.55096,1631133899.77661,1631133899.78433,1631133901.87739,1631133909.51357,1631133909.5176,1631133911.01772,1631133911.01413,1631134071.07382,1
61,4,2,2,24,8,3,c3_HowFace,1,looking to side?,69,F_110.jpg,1631133463.81939,1631133463.8218,425.961184968948,7.23069286346436,433.197216978073,435.297999849319,0.3,444.751526107788,1.06706500053406,445.821581830978,1,left,1.04478287696838,445.818591108322,604.494430770874,607.254430770874,1631133892.54058,1631133892.55096,1631133899.77661,1631133899.78433,1631133901.87739,1631133911.33092,1631133911.33393,1631133912.40097,1631133912.39798,1631134071.07382,1
61,4,2,2,25,1,1,c1_WhyFace,1,argument?,43,F_716.jpg,1631133463.81939,1631133463.8218,445.918628444672,5.14829754829407,451.070548763275,453.171332826614,2.10078406333923,453.321387996674,0.716934442520142,454.040185918808,1,left,0.698361873626709,454.038322439194,604.494430770874,607.254430770874,1631133912.49802,1631133912.50096,1631133917.64994,1631133917.668,1631133919.75072,1631133919.90078,1631133919.90255,1631133920.61958,1631133920.61771,1631134071.07382,1
61,4,2,2,25,2,1,c1_WhyFace,2,argument?,44,F_139.jpg,1631133463.81939,1631133463.8218,445.918628444672,5.14829754829407,451.070548763275,453.171332826614,0.3,454.355107297897,0.733606815338135,455.090157022476,3,right,0.714771032333374,455.088714113235,604.494430770874,607.254430770874,1631133912.49802,1631133912.50096,1631133917.64994,1631133917.668,1631133919.75072,1631133920.9345,1631133920.93591,1631133921.66955,1631133921.6681,1631134071.07382,0
61,4,2,2,25,3,1,c1_WhyFace,1,argument?,47,F_743.jpg,1631133463.81939,1631133463.8218,445.918628444672,5.14829754829407,451.070548763275,453.171332826614,0.3,455.405499210358,1.13375616073608,456.540765991211,1,left,1.12214303016663,456.539255371094,604.494430770874,607.254430770874,1631133912.49802,1631133912.50096,1631133917.64994,1631133917.668,1631133919.75072,1631133921.98489,1631133921.98641,1631133923.12016,1631133923.11865,1631134071.07382,1
61,4,2,2,25,4,1,c1_WhyFace,1,argument?,42,F_403.jpg,1631133463.81939,1631133463.8218,445.918628444672,5.14829754829407,451.070548763275,453.171332826614,0.3,456.856040229797,0.833644151687622,457.690774908066,1,left,0.818131923675537,457.689684381485,604.494430770874,607.254430770874,1631133912.49802,1631133912.50096,1631133917.64994,1631133917.668,1631133919.75072,1631133923.43543,1631133923.43735,1631133924.27016,1631133924.26907,1631134071.07382,1
61,4,2,2,25,5,1,c1_WhyFace,1,argument?,48,F_758.jpg,1631133463.81939,1631133463.8218,445.918628444672,5.14829754829407,451.070548763275,453.171332826614,0.3,458.006469240189,0.967027187347412,458.974881877899,1,left,0.950567960739136,458.973496427536,604.494430770874,607.254430770874,1631133912.49802,1631133912.50096,1631133917.64994,1631133917.668,1631133919.75072,1631133924.58586,1631133924.58745,1631133925.55427,1631133925.55289,1631134071.07382,1
61,4,2,2,25,6,1,c1_WhyFace,2,argument?,46,F_844.jpg,1631133463.81939,1631133463.8218,445.918628444672,5.14829754829407,451.070548763275,453.171332826614,0.3,459.29028128624,0.833643913269043,460.137637844086,3,right,0.824657917022705,460.123925199509,604.494430770874,607.254430770874,1631133912.49802,1631133912.50096,1631133917.64994,1631133917.668,1631133919.75072,1631133925.86967,1631133925.87105,1631133926.71703,1631133926.70332,1631134071.07382,0
61,4,2,2,25,7,1,c1_WhyFace,1,argument?,41,F_712.jpg,1631133463.81939,1631133463.8218,445.918628444672,5.14829754829407,451.070548763275,453.171332826614,0.3,460.440710058212,0.883662939071655,461.325793972015,1,left,0.871912956237793,461.324372997284,604.494430770874,607.254430770874,1631133912.49802,1631133912.50096,1631133917.64994,1631133917.668,1631133919.75072,1631133927.0201,1631133927.02167,1631133927.90518,1631133927.90376,1631134071.07382,1
61,4,2,2,25,8,1,c1_WhyFace,2,argument?,45,F_433.jpg,1631133463.81939,1631133463.8218,445.918628444672,5.14829754829407,451.070548763275,453.171332826614,0.3,461.641158094406,0.967027425765991,462.609560003281,3,right,0.95504903793335,462.608185520172,604.494430770874,607.254430770874,1631133912.49802,1631133912.50096,1631133917.64994,1631133917.668,1631133919.75072,1631133928.22055,1631133928.22206,1631133929.18895,1631133929.18758,1631134071.07382,0
61,4,2,2,26,1,3,c3_HowFace,1,open mouth?,80,F_844.jpg,1631133463.81939,1631133463.8218,462.691548814774,7.48344922065735,470.194346895218,472.278458108902,2.08411121368408,472.428513994217,0.616896629333496,473.054951896667,1,left,0.598303079605103,473.04541062355,604.494430770874,607.254430770874,1631133929.27094,1631133929.27196,1631133936.77374,1631133936.77539,1631133938.85785,1631133939.0079,1631133939.01775,1631133939.63434,1631133939.6248,1631134071.07382,1
61,4,2,2,26,2,3,c3_HowFace,1,open mouth?,78,F_692.jpg,1631133463.81939,1631133463.8218,462.691548814774,7.48344922065735,470.194346895218,472.278458108902,0.3,473.362195243835,0.616897106170654,473.987910022736,1,left,0.603823184967041,473.979092350006,604.494430770874,607.254430770874,1631133929.27094,1631133929.27196,1631133936.77374,1631133936.77539,1631133938.85785,1631133939.94159,1631133939.94312,1631133940.5673,1631133940.55848,1631134071.07382,1
61,4,2,2,26,3,3,c3_HowFace,2,open mouth?,77,F_584.jpg,1631133463.81939,1631133463.8218,462.691548814774,7.48344922065735,470.194346895218,472.278458108902,0.3,474.295877447128,0.983699798583984,475.287559022903,3,right,0.972871065139771,475.279577245712,604.494430770874,607.254430770874,1631133929.27094,1631133929.27196,1631133936.77374,1631133936.77539,1631133938.85785,1631133940.87527,1631133940.8772,1631133941.86695,1631133941.85897,1631134071.07382,0
61,4,2,2,26,4,3,c3_HowFace,1,open mouth?,75,F_086.jpg,1631133463.81939,1631133463.8218,462.691548814774,7.48344922065735,470.194346895218,472.278458108902,0.3,475.596361865997,0.866990327835083,476.465095033646,1,left,0.844361066818237,476.463352193832,604.494430770874,607.254430770874,1631133929.27094,1631133929.27196,1631133936.77374,1631133936.77539,1631133938.85785,1631133942.17575,1631133942.17763,1631133943.04449,1631133943.04274,1631134071.07382,1
61,4,2,2,26,5,3,c3_HowFace,1,open mouth?,73,F_403.jpg,1631133463.81939,1631133463.8218,462.691548814774,7.48344922065735,470.194346895218,472.278458108902,0.3,476.780137052536,1.26713919639587,478.049030056,1,left,1.24427485466003,478.047276248932,604.494430770874,607.254430770874,1631133929.27094,1631133929.27196,1631133936.77374,1631133936.77539,1631133938.85785,1631133943.35953,1631133943.36144,1631133944.62842,1631133944.62667,1631134071.07382,1
61,4,2,2,26,6,3,c3_HowFace,2,open mouth?,76,F_544.jpg,1631133463.81939,1631133463.8218,462.691548814774,7.48344922065735,470.194346895218,472.278458108902,0.3,478.364061107636,0.983700037002563,479.348819961548,3,right,0.962610006332397,479.347761144638,604.494430770874,607.254430770874,1631133929.27094,1631133929.27196,1631133936.77374,1631133936.77539,1631133938.85785,1631133944.94345,1631133944.94493,1631133945.92821,1631133945.92715,1631134071.07382,0
61,4,2,2,26,7,3,c3_HowFace,2,open mouth?,79,F_648.jpg,1631133463.81939,1631133463.8218,462.691548814774,7.48344922065735,470.194346895218,472.278458108902,0.3,479.664545764923,0.983700513839722,480.654243936539,3,right,0.973212003707886,480.648246278763,604.494430770874,607.254430770874,1631133929.27094,1631133929.27196,1631133936.77374,1631133936.77539,1631133938.85785,1631133946.24394,1631133946.24573,1631133947.23363,1631133947.22764,1631134071.07382,0
61,4,2,2,26,8,3,c3_HowFace,1,open mouth?,74,F_776.jpg,1631133463.81939,1631133463.8218,462.691548814774,7.48344922065735,470.194346895218,472.278458108902,0.3,480.965030422211,0.883662462234497,481.854560842514,1,left,0.876559019088745,481.848692884445,604.494430770874,607.254430770874,1631133929.27094,1631133929.27196,1631133936.77374,1631133936.77539,1631133938.85785,1631133947.54442,1631133947.54595,1631133948.43395,1631133948.42808,1631134071.07382,1
61,4,2,2,27,1,4,c4_HowHand,1,lifting?,54,H_170.jpg,1631133463.81939,1631133463.8218,481.932057847977,7.206866979599,489.151417245865,491.252201070786,2.10078382492065,491.402256002426,1.71730709075928,NaN,0,NA,0,493.119563093185,604.494430770874,607.254430770874,1631133948.51145,1631133948.51732,1631133955.73081,1631133955.73441,1631133957.83159,1631133957.98165,1631133957.98446,NaN,1631133959.69895,1631134071.07382,0
61,4,2,2,27,2,4,c4_HowHand,2,lifting?,53,H_077.jpg,1631133463.81939,1631133463.8218,481.932057847977,7.206866979599,489.151417245865,491.252201070786,0.3,493.436348190308,0.983700513839722,494.421071996689,3,right,0.967453956604004,494.420048704147,604.494430770874,607.254430770874,1631133948.51145,1631133948.51732,1631133955.73081,1631133955.73441,1631133957.83159,1631133960.01574,1631133960.01797,1631133961.00046,1631133960.99944,1631134071.07382,0
61,4,2,2,27,3,4,c4_HowHand,1,lifting?,52,H_189.jpg,1631133463.81939,1631133463.8218,481.932057847977,7.206866979599,489.151417245865,491.252201070786,0.3,494.736832847595,0.917009353637695,495.65556596756,1,left,0.894724130630493,495.653842201233,604.494430770874,607.254430770874,1631133948.51145,1631133948.51732,1631133955.73081,1631133955.73441,1631133957.83159,1631133961.31622,1631133961.31754,1631133962.23496,1631133962.23323,1631134071.07382,1
61,4,2,2,27,4,4,c4_HowHand,1,lifting?,49,H_362.jpg,1631133463.81939,1631133463.8218,481.932057847977,7.206866979599,489.151417245865,491.252201070786,0.3,495.970626583099,0.733606338500977,496.705641975403,1,left,0.717478036880493,496.7042329216,604.494430770874,607.254430770874,1631133948.51145,1631133948.51732,1631133955.73081,1631133955.73441,1631133957.83159,1631133962.55002,1631133962.55152,1631133963.28503,1631133963.28362,1631134071.07382,1
61,4,2,2,27,5,4,c4_HowHand,2,lifting?,55,H_012.jpg,1631133463.81939,1631133463.8218,481.932057847977,7.206866979599,489.151417245865,491.252201070786,0.3,497.021018733978,0.983699083328247,498.00561999321,3,right,0.974390983581543,498.004717817307,604.494430770874,607.254430770874,1631133948.51145,1631133948.51732,1631133955.73081,1631133955.73441,1631133957.83159,1631133963.60041,1631133963.6018,1631133964.58501,1631133964.58411,1631134071.07382,0
61,4,2,2,27,6,4,c4_HowHand,1,lifting?,50,H_443.jpg,1631133463.81939,1631133463.8218,481.932057847977,7.206866979599,489.151417245865,491.252201070786,0.3,498.321503152847,1.41719579696655,499.739804973602,1,left,1.40075993537903,499.738698949814,604.494430770874,607.254430770874,1631133948.51145,1631133948.51732,1631133955.73081,1631133955.73441,1631133957.83159,1631133964.90089,1631133964.9023,1631133966.3192,1631133966.31809,1631134071.07382,1
61,4,2,2,27,7,4,c4_HowHand,1,lifting?,56,H_136.jpg,1631133463.81939,1631133463.8218,481.932057847977,7.206866979599,489.151417245865,491.252201070786,0.3,500.05548500061,0.950352191925049,501.021581878662,1,left,0.941606998443604,501.005837192535,604.494430770874,607.254430770874,1631133948.51145,1631133948.51732,1631133955.73081,1631133955.73441,1631133957.83159,1631133966.63488,1631133966.63666,1631133967.60097,1631133967.58523,1631134071.07382,1
61,4,2,2,27,8,4,c4_HowHand,2,lifting?,51,H_038.jpg,1631133463.81939,1631133463.8218,481.932057847977,7.206866979599,489.151417245865,491.252201070786,0.3,501.322622051239,1.06706523895264,502.39136384964,3,right,1.04343891143799,502.389687290192,604.494430770874,607.254430770874,1631133948.51145,1631133948.51732,1631133955.73081,1631133955.73441,1631133957.83159,1631133967.90201,1631133967.90327,1631133968.97075,1631133968.96908,1631134071.07382,0
