src_subject_id,session_id,run_id,param_counterbalance_ver,param_block_num,param_trial_num,param_cond_type_num,param_cond_type_string,param_normative_response,param_ques_type_string,param_image_num,param_image_filename,param_trigger_onset,param_start_biopac,event01_fixation,event01_fixation_dur,event01_blockquestion_onset,event01_block_isi_blacksreen,event01_blockquestion_dur,event02_image_onset,event02_image_dur,event03_response_onset,event03_response_key,event03_response_keyname,event03_RT,event04_shortquestion_onset,param_end_instruct_onset,param_experiment_duration,RAW_e1_fixation,RAW_e1_fixation_biopac,RAW_e1_blockquestion_onset,RAW_e1_blockquestion_onset_biopac,RAW_e1_block_isi_blacksreen,RAW_e2_image_onset,RAW_e2_image_onset_biopac,RAW_e3_response_onset,RAW_e4_shortquestion_onset,RAW_param_end_instruct_onset,accuracy
25,4,1,3,1,1,4,c4_HowHand,1,reaching?,107,H_007.jpg,1622128293.23532,1622128293.24724,0.0335974597930906,0.0269246101379395,0.0669433975219724,2.11770843505859,2.05076503753662,2.26776384353638,1.3338303565979,3.60367702484131,1,left,1.31210398674011,3.60159420013428,604.475674381256,607.235674381256,1622128296.02892,1622128296.03197,1622128296.06227,1622128296.06447,1622128298.11303,1622128298.26309,1622128298.26513,1622128299.599,1622128299.59692,1622128900.471,1
25,4,1,3,1,2,4,c4_HowHand,2,reaching?,108,H_532.jpg,1622128293.23532,1622128293.24724,0.0335974597930906,0.0269246101379395,0.0669433975219724,2.11770843505859,0.3,3.91838048934937,1.38384866714478,5.30346797943115,3,right,1.37162280082703,5.30222915649414,604.475674381256,607.235674381256,1622128296.02892,1622128296.03197,1622128296.06227,1622128296.06447,1622128298.11303,1622128299.9137,1622128299.91557,1622128301.29879,1622128301.29755,1622128900.471,0
25,4,1,3,1,3,4,c4_HowHand,1,reaching?,109,H_474.jpg,1622128293.23532,1622128293.24724,0.0335974597930906,0.0269246101379395,0.0669433975219724,2.11770843505859,0.3,5.61901282310486,1.26714038848877,6.8891379737854,1,left,1.24886298179626,6.88615321159363,604.475674381256,607.235674381256,1622128296.02892,1622128296.03197,1622128296.06227,1622128296.06447,1622128298.11303,1622128301.61433,1622128301.61603,1622128302.88446,1622128302.88148,1622128900.471,1
25,4,1,3,1,4,4,c4_HowHand,2,reaching?,105,H_438.jpg,1622128293.23532,1622128293.24724,0.0335974597930906,0.0269246101379395,0.0669433975219724,2.11770843505859,0.3,7.2029385471344,0.967026472091675,8.17192005157471,3,right,0.946288824081421,8.16996501922607,604.475674381256,607.235674381256,1622128296.02892,1622128296.03197,1622128296.06227,1622128296.06447,1622128298.11303,1622128303.19826,1622128303.20043,1622128304.16724,1622128304.16529,1622128900.471,0
25,4,1,3,1,5,4,c4_HowHand,1,reaching?,110,H_364.jpg,1622128293.23532,1622128293.24724,0.0335974597930906,0.0269246101379395,0.0669433975219724,2.11770843505859,0.3,8.48674987792969,0.967027902603149,9.45718311309814,1,left,0.948869943618774,9.45377778053284,604.475674381256,607.235674381256,1622128296.02892,1622128296.03197,1622128296.06227,1622128296.06447,1622128298.11303,1622128304.48207,1622128304.48471,1622128305.45251,1622128305.4491,1622128900.471,1
25,4,1,3,1,6,4,c4_HowHand,1,reaching?,106,H_006.jpg,1622128293.23532,1622128293.24724,0.0335974597930906,0.0269246101379395,0.0669433975219724,2.11770843505859,0.3,9.77056240081787,0.917008876800537,10.6887819671631,1,left,0.9028480052948,10.6875712776184,604.475674381256,607.235674381256,1622128296.02892,1622128296.03197,1622128296.06227,1622128296.06447,1622128298.11303,1622128305.76588,1622128305.76792,1622128306.6841,1622128306.68289,1622128900.471,1
25,4,1,3,1,7,4,c4_HowHand,1,reaching?,111,H_003.jpg,1622128293.23532,1622128293.24724,0.0335974597930906,0.0269246101379395,0.0669433975219724,2.11770843505859,0.3,11.0043547058105,1.0837390422821,12.102517118454,1,left,1.07325196266174,12.0880937480927,604.475674381256,607.235674381256,1622128296.02892,1622128296.03197,1622128296.06227,1622128296.06447,1622128298.11303,1622128306.99968,1622128307.00155,1622128308.09784,1622128308.08342,1622128900.471,1
25,4,1,3,1,8,4,c4_HowHand,2,reaching?,112,H_132.jpg,1622128293.23532,1622128293.24724,0.0335974597930906,0.0269246101379395,0.0669433975219724,2.11770843505859,0.3,12.4048781299591,0.983700037002563,13.4024629497528,3,right,0.973315954208374,13.3885781669617,604.475674381256,607.235674381256,1622128296.02892,1622128296.03197,1622128296.06227,1622128296.06447,1622128298.11303,1622128308.4002,1622128308.4021,1622128309.39778,1622128309.3839,1622128900.471,0
25,4,1,3,2,1,2,c2_WhyHand,1,healthy?,21,H_627.jpg,1622128293.23532,1622128293.24724,13.5886523628235,3.94251370429993,17.5401260757446,19.6409101390839,2.10078406333923,19.7909662628174,1.73397970199585,21.5711650753021,1,left,1.74035997390747,21.5249459648132,604.475674381256,607.235674381256,1622128309.58397,1622128309.58615,1622128313.53545,1622128313.54815,1622128315.63623,1622128315.78629,1622128315.7982,1622128317.56649,1622128317.52027,1622128900.471,1
25,4,1,3,2,2,2,c2_WhyHand,1,healthy?,18,H_438.jpg,1622128293.23532,1622128293.24724,13.5886523628235,3.94251370429993,17.5401260757446,19.6409101390839,0.3,21.8417303466797,1.71730661392212,NaN,0,NA,0,23.5590369606018,604.475674381256,607.235674381256,1622128309.58397,1622128309.58615,1622128313.53545,1622128313.54815,1622128315.63623,1622128317.83705,1622128317.8383,NaN,1622128319.55436,1622128900.471,0
25,4,1,3,2,3,2,c2_WhyHand,1,healthy?,23,H_364.jpg,1622128293.23532,1622128293.24724,13.5886523628235,3.94251370429993,17.5401260757446,19.6409101390839,0.3,23.8758225345612,0.967026948928833,24.8441080951691,1,left,0.948077917098999,24.84284948349,604.475674381256,607.235674381256,1622128309.58397,1622128309.58615,1622128313.53545,1622128313.54815,1622128315.63623,1622128319.87114,1622128319.87298,1622128320.83943,1622128320.83817,1622128900.471,1
25,4,1,3,2,4,2,c2_WhyHand,2,healthy?,22,H_130.jpg,1622128293.23532,1622128293.24724,13.5886523628235,3.94251370429993,17.5401260757446,19.6409101390839,0.3,25.1596338653564,1.53390526771545,26.7018809223175,3,right,1.51795983314514,26.6935391330719,604.475674381256,607.235674381256,1622128309.58397,1622128309.58615,1622128313.53545,1622128313.54815,1622128315.63623,1622128321.15496,1622128321.15695,1622128322.6972,1622128322.68886,1622128900.471,0
25,4,1,3,2,5,2,c2_WhyHand,1,healthy?,17,H_362.jpg,1622128293.23532,1622128293.24724,13.5886523628235,3.94251370429993,17.5401260757446,19.6409101390839,0.3,27.0103244686127,0.866989850997925,27.8858311080933,1,left,0.8593590259552,27.8773143196106,604.475674381256,607.235674381256,1622128309.58397,1622128309.58615,1622128313.53545,1622128313.54815,1622128315.63623,1622128323.00565,1622128323.00727,1622128323.88115,1622128323.87264,1622128900.471,1
25,4,1,3,2,6,2,c2_WhyHand,2,healthy?,20,H_007.jpg,1622128293.23532,1622128293.24724,13.5886523628235,3.94251370429993,17.5401260757446,19.6409101390839,0.3,28.1940994167328,1.05039191246033,29.2526829147339,3,right,1.04133200645447,29.2444913291931,604.475674381256,607.235674381256,1622128309.58397,1622128309.58615,1622128313.53545,1622128313.54815,1622128315.63623,1622128324.18942,1622128324.19105,1622128325.248,1622128325.23981,1622128900.471,0
25,4,1,3,2,7,2,c2_WhyHand,1,healthy?,19,H_167.jpg,1622128293.23532,1622128293.24724,13.5886523628235,3.94251370429993,17.5401260757446,19.6409101390839,0.3,29.5612766647339,0.716933250427246,30.2855179214478,1,left,0.705608129501343,30.2782099151611,604.475674381256,607.235674381256,1622128309.58397,1622128309.58615,1622128313.53545,1622128313.54815,1622128315.63623,1622128325.5566,1622128325.55858,1622128326.28084,1622128326.27353,1622128900.471,1
25,4,1,3,2,8,2,c2_WhyHand,2,healthy?,24,H_019.jpg,1622128293.23532,1622128293.24724,13.5886523628235,3.94251370429993,17.5401260757446,19.6409101390839,0.3,30.5949957275391,1.38384819030762,31.979914894104,3,right,1.36395883560181,31.9788439178467,604.475674381256,607.235674381256,1622128309.58397,1622128309.58615,1622128313.53545,1622128313.54815,1622128315.63623,1622128326.59032,1622128326.59203,1622128327.97524,1622128327.97417,1622128900.471,0
25,4,1,3,3,1,1,c1_WhyFace,1,admiring?,4,F_779.jpg,1622128293.23532,1622128293.24724,32.0622076892853,4.57696437835693,36.6472508811951,38.7480351829529,2.10078430175781,38.8980913066864,0.716933965682983,39.6191890144348,1,left,0.69420313835144,39.6150252723694,604.475674381256,607.235674381256,1622128328.05753,1622128328.06455,1622128332.64257,1622128332.64815,1622128334.74336,1622128334.89341,1622128334.89817,1622128335.61451,1622128335.61035,1622128900.471,1
25,4,1,3,3,2,1,c1_WhyFace,1,admiring?,1,F_593.jpg,1622128293.23532,1622128293.24724,32.0622076892853,4.57696437835693,36.6472508811951,38.7480351829529,0.3,39.9318096542358,0.816971302032471,40.7521159553528,1,left,0.799219131469727,40.7487809562683,604.475674381256,607.235674381256,1622128328.05753,1622128328.06455,1622128332.64257,1622128332.64815,1622128334.74336,1622128335.92713,1622128335.93105,1622128336.74744,1622128336.7441,1622128900.471,1
25,4,1,3,3,3,1,c1_WhyFace,2,admiring?,3,F_110.jpg,1622128293.23532,1622128293.24724,32.0622076892853,4.57696437835693,36.6472508811951,38.7480351829529,0.3,41.0655660533905,0.917008399963379,41.9858770275116,3,right,0.893168926239014,41.9825744533539,604.475674381256,607.235674381256,1622128328.05753,1622128328.06455,1622128332.64257,1622128332.64815,1622128334.74336,1622128337.06089,1622128337.06443,1622128337.9812,1622128337.9779,1622128900.471,0
25,4,1,3,3,4,1,c1_WhyFace,1,admiring?,8,F_590.jpg,1622128293.23532,1622128293.24724,32.0622076892853,4.57696437835693,36.6472508811951,38.7480351829529,0.3,42.2993593120575,0.83364462852478,43.1355030441284,1,left,0.817611217498779,43.1330039405823,604.475674381256,607.235674381256,1622128328.05753,1622128328.06455,1622128332.64257,1622128332.64815,1622128334.74336,1622128338.29468,1622128338.2979,1622128339.13083,1622128339.12833,1622128900.471,1
25,4,1,3,3,5,1,c1_WhyFace,2,admiring?,6,F_692.jpg,1622128293.23532,1622128293.24724,32.0622076892853,4.57696437835693,36.6472508811951,38.7480351829529,0.3,43.4497895145416,0.950353860855103,44.4024360084534,3,right,0.928591966629028,44.4001433753967,604.475674381256,607.235674381256,1622128328.05753,1622128328.06455,1622128332.64257,1622128332.64815,1622128334.74336,1622128339.44511,1622128339.44769,1622128340.39776,1622128340.39547,1622128900.471,0
25,4,1,3,3,6,1,c1_WhyFace,1,admiring?,5,F_759.jpg,1622128293.23532,1622128293.24724,32.0622076892853,4.57696437835693,36.6472508811951,38.7480351829529,0.3,44.7169282341003,0.700261354446411,45.4183840656281,1,left,0.692472219467163,45.4171895885468,604.475674381256,607.235674381256,1622128328.05753,1622128328.06455,1622128332.64257,1622128332.64815,1622128334.74336,1622128340.71225,1622128340.71432,1622128341.41371,1622128341.41251,1622128900.471,1
25,4,1,3,3,7,1,c1_WhyFace,1,admiring?,7,F_648.jpg,1622128293.23532,1622128293.24724,32.0622076892853,4.57696437835693,36.6472508811951,38.7480351829529,0.3,45.7339727783203,0.766953706741333,46.5026059055328,1,left,0.746086120605469,46.5009264850616,604.475674381256,607.235674381256,1622128328.05753,1622128328.06455,1622128332.64257,1622128332.64815,1622128334.74336,1622128341.72929,1622128341.73097,1622128342.49793,1622128342.49625,1622128900.471,1
25,4,1,3,3,8,1,c1_WhyFace,2,admiring?,2,F_129.jpg,1622128293.23532,1622128293.24724,32.0622076892853,4.57696437835693,36.6472508811951,38.7480351829529,0.3,46.8177115821838,0.800298690795898,47.618937959671,3,right,0.791012048721313,47.6180102729797,604.475674381256,607.235674381256,1622128328.05753,1622128328.06455,1622128332.64257,1622128332.64815,1622128334.74336,1622128342.81303,1622128342.81477,1622128343.61426,1622128343.61333,1622128900.471,0
25,4,1,3,4,1,3,c3_HowFace,1,smiling?,119,F_139.jpg,1622128293.23532,1622128293.24724,47.7013742828369,7.90176582336426,55.6209943199158,57.7217781448364,2.10078382492065,57.8718321228027,0.650244235992432,58.523145904541,1,left,0.633100986480713,58.5220763587952,604.475674381256,607.235674381256,1622128343.6967,1622128343.69856,1622128351.61632,1622128351.61846,1622128353.7171,1622128353.86715,1622128353.86895,1622128354.51847,1622128354.5174,1622128900.471,1
25,4,1,3,4,2,3,c3_HowFace,2,smiling?,113,F_712.jpg,1622128293.23532,1622128293.24724,47.7013742828369,7.90176582336426,55.6209943199158,57.7217781448364,0.3,58.8388600254059,0.750280380249023,59.5908269786835,3,right,0.735820055007935,59.5891404056549,604.475674381256,607.235674381256,1622128343.6967,1622128343.69856,1622128351.61632,1622128351.61846,1622128353.7171,1622128354.83418,1622128354.83581,1622128355.58615,1622128355.58446,1622128900.471,0
25,4,1,3,4,3,3,c3_HowFace,1,smiling?,115,F_695.jpg,1622128293.23532,1622128293.24724,47.7013742828369,7.90176582336426,55.6209943199158,57.7217781448364,0.3,59.9059257411957,0.800298690795898,60.7074661159515,1,left,0.778568983078003,60.7062244319916,604.475674381256,607.235674381256,1622128343.6967,1622128343.69856,1622128351.61632,1622128351.61846,1622128353.7171,1622128355.90125,1622128355.9031,1622128356.70279,1622128356.70155,1622128900.471,1
25,4,1,3,4,4,3,c3_HowFace,2,smiling?,120,F_758.jpg,1622128293.23532,1622128293.24724,47.7013742828369,7.90176582336426,55.6209943199158,57.7217781448364,0.3,61.0230083370209,0.800299167633057,61.8243501091003,3,right,0.782337188720703,61.8233075046539,604.475674381256,607.235674381256,1622128343.6967,1622128343.69856,1622128351.61632,1622128351.61846,1622128353.7171,1622128357.01833,1622128357.02005,1622128357.81967,1622128357.81863,1622128900.471,0
25,4,1,3,4,5,3,c3_HowFace,1,smiling?,116,F_083.jpg,1622128293.23532,1622128293.24724,47.7013742828369,7.90176582336426,55.6209943199158,57.7217781448364,0.3,62.1400923633575,0.616896152496338,62.7586500549316,1,left,0.600435018539429,62.7569885158539,604.475674381256,607.235674381256,1622128343.6967,1622128343.69856,1622128351.61632,1622128351.61846,1622128353.7171,1622128358.13541,1622128358.13698,1622128358.75397,1622128358.75231,1622128900.471,1
25,4,1,3,4,6,3,c3_HowFace,1,smiling?,118,F_759.jpg,1622128293.23532,1622128293.24724,47.7013742828369,7.90176582336426,55.6209943199158,57.7217781448364,0.3,63.0737733745575,0.633569955825806,63.7088060283661,1,left,0.616329193115234,63.7073433303833,604.475674381256,607.235674381256,1622128343.6967,1622128343.69856,1622128351.61632,1622128351.61846,1622128353.7171,1622128359.0691,1622128359.07065,1622128359.70413,1622128359.70267,1622128900.471,1
25,4,1,3,4,7,3,c3_HowFace,2,smiling?,114,F_412.jpg,1622128293.23532,1622128293.24724,47.7013742828369,7.90176582336426,55.6209943199158,57.7217781448364,0.3,64.0241281890869,0.600222826004028,64.6253709697723,3,right,0.581938982009888,64.6243510150909,604.475674381256,607.235674381256,1622128343.6967,1622128343.69856,1622128351.61632,1622128351.61846,1622128353.7171,1622128360.01945,1622128360.02111,1622128360.62069,1622128360.61967,1622128900.471,0
25,4,1,3,4,8,3,c3_HowFace,1,smiling?,117,F_593.jpg,1622128293.23532,1622128293.24724,47.7013742828369,7.90176582336426,55.6209943199158,57.7217781448364,0.3,64.9411358737946,0.700262069702148,65.6431229019165,1,left,0.676064014434814,65.6413979434967,604.475674381256,607.235674381256,1622128343.6967,1622128343.69856,1622128351.61632,1622128351.61846,1622128353.7171,1622128360.93646,1622128360.93801,1622128361.63844,1622128361.63672,1622128900.471,1
25,4,1,3,5,1,4,c4_HowHand,1,lifting?,56,H_136.jpg,1622128293.23532,1622128293.24724,65.7080893421173,7.42578458786011,73.1441948318481,75.2449796104431,2.10078477859497,75.3950350189209,0.933681488037109,76.3351399803162,1,left,0.911119937896729,76.328716506958,604.475674381256,607.235674381256,1622128361.70341,1622128361.71543,1622128369.13952,1622128369.14909,1622128371.2403,1622128371.39036,1622128371.39801,1622128372.33046,1622128372.32404,1622128900.471,1
25,4,1,3,5,2,4,c4_HowHand,2,lifting?,51,H_038.jpg,1622128293.23532,1622128293.24724,65.7080893421173,7.42578458786011,73.1441948318481,75.2449796104431,0.3,76.6455016040802,1.00037240982056,77.6526009941101,3,right,0.986196994781494,77.6458740139008,604.475674381256,607.235674381256,1622128361.70341,1622128361.71543,1622128369.13952,1622128369.14909,1622128371.2403,1622128372.64082,1622128372.64268,1622128373.64792,1622128373.6412,1622128900.471,0
25,4,1,3,5,3,4,c4_HowHand,1,lifting?,52,H_189.jpg,1622128293.23532,1622128293.24724,65.7080893421173,7.42578458786011,73.1441948318481,75.2449796104431,0.3,77.9626591110229,1.28381180763245,79.2525210285187,1,left,1.26788592338562,79.2464709186554,604.475674381256,607.235674381256,1622128361.70341,1622128361.71543,1622128369.13952,1622128369.14909,1622128371.2403,1622128373.95798,1622128373.95992,1622128375.24784,1622128375.24179,1622128900.471,1
25,4,1,3,5,4,4,c4_HowHand,2,lifting?,53,H_077.jpg,1622128293.23532,1622128293.24724,65.7080893421173,7.42578458786011,73.1441948318481,75.2449796104431,0.3,79.5632548236847,1.03372120857239,80.6024138832092,3,right,1.01880598068237,80.5969760322571,604.475674381256,607.235674381256,1622128361.70341,1622128361.71543,1622128369.13952,1622128369.14909,1622128371.2403,1622128375.55858,1622128375.56071,1622128376.59774,1622128376.5923,1622128900.471,0
25,4,1,3,5,5,4,c4_HowHand,1,lifting?,50,H_443.jpg,1622128293.23532,1622128293.24724,65.7080893421173,7.42578458786011,73.1441948318481,75.2449796104431,0.3,80.9137596988678,1.13375544548035,82.0522889995575,1,left,1.12691187858582,82.0475151443481,604.475674381256,607.235674381256,1622128361.70341,1622128361.71543,1622128369.13952,1622128369.14909,1622128371.2403,1622128376.90908,1622128376.91071,1622128378.04761,1622128378.04284,1622128900.471,1
25,4,1,3,5,6,4,c4_HowHand,2,lifting?,55,H_012.jpg,1622128293.23532,1622128293.24724,65.7080893421173,7.42578458786011,73.1441948318481,75.2449796104431,0.3,82.3643002414703,0.883662939071655,83.2523450756073,3,right,0.867746829986572,83.247963180542,604.475674381256,607.235674381256,1622128361.70341,1622128361.71543,1622128369.13952,1622128369.14909,1622128371.2403,1622128378.35962,1622128378.36478,1622128379.24767,1622128379.24329,1622128900.471,0
25,4,1,3,5,7,4,c4_HowHand,1,lifting?,49,H_362.jpg,1622128293.23532,1622128293.24724,65.7080893421173,7.42578458786011,73.1441948318481,75.2449796104431,0.3,83.564747800827,0.683588743209839,84.2519800567627,1,left,0.662374973297119,84.2483365440369,604.475674381256,607.235674381256,1622128361.70341,1622128361.71543,1622128369.13952,1622128369.14909,1622128371.2403,1622128379.56007,1622128379.56457,1622128380.2473,1622128380.24366,1622128900.471,1
25,4,1,3,5,8,4,c4_HowHand,1,lifting?,54,H_170.jpg,1622128293.23532,1622128293.24724,65.7080893421173,7.42578458786011,73.1441948318481,75.2449796104431,0.3,84.5651214027405,1.31715798377991,85.883296957016,3,right,1.29258894920349,85.8822793865204,604.475674381256,607.235674381256,1622128361.70341,1622128361.71543,1622128369.13952,1622128369.14909,1622128371.2403,1622128380.56044,1622128380.56481,1622128381.87862,1622128381.8776,1622128900.471,0
25,4,1,3,6,1,2,c2_WhyHand,1,helping?,38,H_077.jpg,1622128293.23532,1622128293.24724,85.9656426811218,9.64931631088257,95.6192436122894,97.7200276756287,2.10078406333923,97.870083322525,1.28381085395813,99.1550431156158,1,left,1.25092101097107,99.1538941764831,604.475674381256,607.235674381256,1622128381.96096,1622128381.96457,1622128391.61457,1622128391.63159,1622128393.71535,1622128393.86541,1622128393.8816,1622128395.15037,1622128395.14922,1622128900.471,1
25,4,1,3,6,2,2,c2_WhyHand,1,helping?,36,H_349.jpg,1622128293.23532,1622128293.24724,85.9656426811218,9.64931631088257,95.6192436122894,97.7200276756287,0.3,99.4706807041168,0.950353622436523,100.435835113525,1,left,0.942577123641968,100.421034326553,604.475674381256,607.235674381256,1622128381.96096,1622128381.96457,1622128391.61457,1622128391.63159,1622128393.71535,1622128395.466,1622128395.46758,1622128396.43116,1622128396.41636,1622128900.471,1
25,4,1,3,6,3,2,c2_WhyHand,1,helping?,37,H_474.jpg,1622128293.23532,1622128293.24724,85.9656426811218,9.64931631088257,95.6192436122894,97.7200276756287,0.3,100.737819423676,0.917007923126221,101.65598200798,1,left,0.903271913528442,101.654827346802,604.475674381256,607.235674381256,1622128381.96096,1622128381.96457,1622128391.61457,1622128391.63159,1622128393.71535,1622128396.73314,1622128396.73453,1622128397.6513,1622128397.65015,1622128900.471,1
25,4,1,3,6,4,2,c2_WhyHand,1,helping?,39,H_024.jpg,1622128293.23532,1622128293.24724,85.9656426811218,9.64931631088257,95.6192436122894,97.7200276756287,0.3,101.971612205505,0.866989374160767,102.84044503212,3,right,0.848911046981812,102.838601579666,604.475674381256,607.235674381256,1622128381.96096,1622128381.96457,1622128391.61457,1622128391.63159,1622128393.71535,1622128397.96693,1622128397.96868,1622128398.83577,1622128398.83392,1622128900.471,0
25,4,1,3,6,5,2,c2_WhyHand,2,helping?,40,H_012.jpg,1622128293.23532,1622128293.24724,85.9656426811218,9.64931631088257,95.6192436122894,97.7200276756287,0.3,103.155387392044,0.967027425765991,104.123457899094,3,right,0.947585105895996,104.12241481781,604.475674381256,607.235674381256,1622128381.96096,1622128381.96457,1622128391.61457,1622128391.63159,1622128393.71535,1622128399.15071,1622128399.15256,1622128400.11878,1622128400.11774,1622128900.471,0
25,4,1,3,6,6,2,c2_WhyHand,2,helping?,35,H_159.jpg,1622128293.23532,1622128293.24724,85.9656426811218,9.64931631088257,95.6192436122894,97.7200276756287,0.3,104.439198961258,1.26713943481445,105.707375993729,3,right,1.2488899230957,105.706338396072,604.475674381256,607.235674381256,1622128381.96096,1622128381.96457,1622128391.61457,1622128391.63159,1622128393.71535,1622128400.43452,1622128400.43601,1622128401.7027,1622128401.70166,1622128900.471,0
25,4,1,3,6,7,2,c2_WhyHand,1,helping?,34,H_111.jpg,1622128293.23532,1622128293.24724,85.9656426811218,9.64931631088257,95.6192436122894,97.7200276756287,0.3,106.023123493195,0.983700037002563,107.007885923386,1,left,0.965705871582031,107.006823530197,604.475674381256,607.235674381256,1622128381.96096,1622128381.96457,1622128391.61457,1622128391.63159,1622128393.71535,1622128402.01845,1622128402.02025,1622128403.00321,1622128403.00215,1622128900.471,1
25,4,1,3,6,8,2,c2_WhyHand,2,helping?,33,H_091.jpg,1622128293.23532,1622128293.24724,85.9656426811218,9.64931631088257,95.6192436122894,97.7200276756287,0.3,107.323608388901,1.00037288665771,108.335838069916,3,right,0.987869024276733,108.323981275558,604.475674381256,607.235674381256,1622128381.96096,1622128381.96457,1622128391.61457,1622128391.63159,1622128393.71535,1622128403.31893,1622128403.32076,1622128404.33116,1622128404.3193,1622128900.471,0
25,4,1,3,7,1,1,c1_WhyFace,1,proud?,104,F_598.jpg,1622128293.23532,1622128293.24724,108.40734623909,5.08261179924011,113.509247770309,115.593359222412,2.08411145210266,115.743415346146,0.900336265563965,116.645144929886,1,left,0.873342037200928,116.64375161171,604.475674381256,607.235674381256,1622128404.40267,1622128404.40426,1622128409.50457,1622128409.50665,1622128411.58868,1622128411.73874,1622128411.74798,1622128412.64047,1622128412.63907,1622128900.471,1
25,4,1,3,7,2,1,c1_WhyFace,2,proud?,102,F_760.jpg,1622128293.23532,1622128293.24724,108.40734623909,5.08261179924011,113.509247770309,115.593359222412,0.3,116.960535755157,0.850317001342773,117.811897983551,3,right,0.828497886657715,117.8108527565,604.475674381256,607.235674381256,1622128404.40267,1622128404.40426,1622128409.50457,1622128409.50665,1622128411.58868,1622128412.95586,1622128412.95757,1622128413.80722,1622128413.80617,1622128900.471,0
25,4,1,3,7,3,1,c1_WhyFace,1,proud?,97,F_582.jpg,1622128293.23532,1622128293.24724,108.40734623909,5.08261179924011,113.509247770309,115.593359222412,0.3,118.127637376785,0.950354099273682,119.079405059814,1,left,0.931595087051392,119.077991476059,604.475674381256,607.235674381256,1622128404.40267,1622128404.40426,1622128409.50457,1622128409.50665,1622128411.58868,1622128414.12296,1622128414.12477,1622128415.07473,1622128415.07331,1622128900.471,1
25,4,1,3,7,4,1,c1_WhyFace,2,proud?,98,F_412.jpg,1622128293.23532,1622128293.24724,108.40734623909,5.08261179924011,113.509247770309,115.593359222412,0.3,119.394777526855,0.88366174697876,120.285177936554,3,right,0.874728202819824,120.278439273834,604.475674381256,607.235674381256,1622128404.40267,1622128404.40426,1622128409.50457,1622128409.50665,1622128411.58868,1622128415.3901,1622128415.39168,1622128416.2805,1622128416.27376,1622128900.471,0
25,4,1,3,7,5,1,c1_WhyFace,1,proud?,101,F_083.jpg,1622128293.23532,1622128293.24724,108.40734623909,5.08261179924011,113.509247770309,115.593359222412,0.3,120.595224370956,0.850316524505615,121.452460041046,1,left,0.839828014373779,121.445540895462,604.475674381256,607.235674381256,1622128404.40267,1622128404.40426,1622128409.50457,1622128409.50665,1622128411.58868,1622128416.59055,1622128416.59218,1622128417.44778,1622128417.44086,1622128900.471,1
25,4,1,3,7,6,1,c1_WhyFace,2,proud?,100,F_776.jpg,1622128293.23532,1622128293.24724,108.40734623909,5.08261179924011,113.509247770309,115.593359222412,0.3,121.762326469421,1.05039143562317,122.814420928955,3,right,1.02966904640198,122.812717905045,604.475674381256,607.235674381256,1622128404.40267,1622128404.40426,1622128409.50457,1622128409.50665,1622128411.58868,1622128417.75765,1622128417.75938,1622128418.80974,1622128418.80804,1622128900.471,0
25,4,1,3,7,7,1,c1_WhyFace,1,proud?,103,F_618.jpg,1622128293.23532,1622128293.24724,108.40734623909,5.08261179924011,113.509247770309,115.593359222412,0.3,123.129502286911,1.05039167404175,124.180995931625,1,left,1.03081297874451,124.179893960953,604.475674381256,607.235674381256,1622128404.40267,1622128404.40426,1622128409.50457,1622128409.50665,1622128411.58868,1622128419.12482,1622128419.12671,1622128420.17632,1622128420.17522,1622128900.471,1
25,4,1,3,7,8,1,c1_WhyFace,1,proud?,99,F_695.jpg,1622128293.23532,1622128293.24724,108.40734623909,5.08261179924011,113.509247770309,115.593359222412,0.3,124.496679773331,1.20044779777527,125.701844921112,1,left,1.18687701225281,125.697127571106,604.475674381256,607.235674381256,1622128404.40267,1622128404.40426,1622128409.50457,1622128409.50665,1622128411.58868,1622128420.492,1622128420.49378,1622128421.69717,1622128421.69245,1622128900.471,1
25,4,1,3,8,1,3,c3_HowFace,1,looking to side?,72,F_590.jpg,1622128293.23532,1622128293.24724,125.763818731308,5.25629115104675,131.032449474335,133.133233299255,2.10078382492065,133.283290138245,0.816970586776733,134.102220048904,1,left,0.798509120941162,134.100260725021,604.475674381256,607.235674381256,1622128421.75914,1622128421.76439,1622128427.02777,1622128427.03131,1622128429.12856,1622128429.27861,1622128429.28102,1622128430.09754,1622128430.09558,1622128900.471,1
25,4,1,3,8,2,3,c3_HowFace,1,looking to side?,71,F_433.jpg,1622128293.23532,1622128293.24724,125.763818731308,5.25629115104675,131.032449474335,133.133233299255,0.3,134.417045583725,0.683588743209839,135.102425088882,1,left,0.671183109283447,135.100634326935,604.475674381256,607.235674381256,1622128421.75914,1622128421.76439,1622128427.02777,1622128427.03131,1622128429.12856,1622128430.41237,1622128430.41439,1622128431.09775,1622128431.09596,1622128900.471,1
25,4,1,3,8,3,3,c3_HowFace,1,looking to side?,67,F_716.jpg,1622128293.23532,1622128293.24724,125.763818731308,5.25629115104675,131.032449474335,133.133233299255,0.3,135.417417993546,0.650243520736694,136.069133987427,1,left,0.630686044692993,136.067661514282,604.475674381256,607.235674381256,1622128421.75914,1622128421.76439,1622128427.02777,1622128427.03131,1622128429.12856,1622128431.41274,1622128431.4146,1622128432.06446,1622128432.06298,1622128900.471,1
25,4,1,3,8,4,3,c3_HowFace,2,looking to side?,70,F_779.jpg,1622128293.23532,1622128293.24724,125.763818731308,5.25629115104675,131.032449474335,133.133233299255,0.3,136.384446611404,0.800297737121582,137.202609052658,1,left,0.792942047119141,137.184744348526,604.475674381256,607.235674381256,1622128421.75914,1622128421.76439,1622128427.02777,1622128427.03131,1622128429.12856,1622128432.37977,1622128432.38158,1622128433.19793,1622128433.18007,1622128900.471,0
25,4,1,3,8,5,3,c3_HowFace,1,looking to side?,68,F_760.jpg,1622128293.23532,1622128293.24724,125.763818731308,5.25629115104675,131.032449474335,133.133233299255,0.3,137.50152920723,1.11708307266235,138.619897117615,1,left,1.09645414352417,138.618612279892,604.475674381256,607.235674381256,1622128421.75914,1622128421.76439,1622128427.02777,1622128427.03131,1622128429.12856,1622128433.49685,1622128433.49858,1622128434.61522,1622128434.61393,1622128900.471,1
25,4,1,3,8,6,3,c3_HowFace,2,looking to side?,66,F_111.jpg,1622128293.23532,1622128293.24724,125.763818731308,5.25629115104675,131.032449474335,133.133233299255,0.3,138.935397377014,0.983700037002563,139.920043935776,3,right,0.972257137298584,139.919097414017,604.475674381256,607.235674381256,1622128421.75914,1622128421.76439,1622128427.02777,1622128427.03131,1622128429.12856,1622128434.93072,1622128434.93265,1622128435.91537,1622128435.91442,1622128900.471,0
25,4,1,3,8,7,3,c3_HowFace,1,looking to side?,69,F_110.jpg,1622128293.23532,1622128293.24724,125.763818731308,5.25629115104675,131.032449474335,133.133233299255,0.3,140.23588227272,1.21712136268616,141.454559078217,1,left,1.19591307640076,141.453003635407,604.475674381256,607.235674381256,1622128421.75914,1622128421.76439,1622128427.02777,1622128427.03131,1622128429.12856,1622128436.2312,1622128436.23273,1622128437.44988,1622128437.44833,1622128900.471,1
25,4,1,3,8,8,3,c3_HowFace,2,looking to side?,65,F_798.jpg,1622128293.23532,1622128293.24724,125.763818731308,5.25629115104675,131.032449474335,133.133233299255,0.3,141.769788255692,1.03371787071228,142.804508914948,3,right,1.02190089225769,142.803506126404,604.475674381256,607.235674381256,1622128421.75914,1622128421.76439,1622128427.02777,1622128427.03131,1622128429.12856,1622128437.76511,1622128437.76673,1622128438.79983,1622128438.79883,1622128900.471,0
25,4,1,3,9,1,1,c1_WhyFace,1,argument?,43,F_716.jpg,1622128293.23532,1622128293.24724,142.870198955536,7.25776100158691,150.139575233459,152.240358819962,2.10078358650208,152.390415420532,0.816971063613892,153.219149103165,1,left,0.807555913925171,153.207386484146,604.475674381256,607.235674381256,1622128438.86552,1622128438.86684,1622128446.1349,1622128446.13678,1622128448.23568,1622128448.38574,1622128448.38776,1622128449.21447,1622128449.20271,1622128900.471,1
25,4,1,3,9,2,1,c1_WhyFace,2,argument?,44,F_139.jpg,1622128293.23532,1622128293.24724,142.870198955536,7.25776100158691,150.139575233459,152.240358819962,0.3,153.524171104431,0.933681488037109,154.468554964066,3,right,0.924253940582275,154.457852592468,604.475674381256,607.235674381256,1622128438.86552,1622128438.86684,1622128446.1349,1622128446.13678,1622128448.23568,1622128449.51949,1622128449.5211,1622128450.46388,1622128450.45317,1622128900.471,0
25,4,1,3,9,3,1,c1_WhyFace,1,argument?,41,F_712.jpg,1622128293.23532,1622128293.24724,142.870198955536,7.25776100158691,150.139575233459,152.240358819962,0.3,154.774636735916,0.800298929214478,155.576488962173,1,left,0.777005910873413,155.574935665131,604.475674381256,607.235674381256,1622128438.86552,1622128438.86684,1622128446.1349,1622128446.13678,1622128448.23568,1622128450.76996,1622128450.77163,1622128451.57181,1622128451.57026,1622128900.471,1
25,4,1,3,9,4,1,c1_WhyFace,2,argument?,45,F_433.jpg,1622128293.23532,1622128293.24724,142.870198955536,7.25776100158691,150.139575233459,152.240358819962,0.3,155.891720046997,0.866990566253662,156.760370006561,3,right,0.847352027893066,156.758710613251,604.475674381256,607.235674381256,1622128438.86552,1622128438.86684,1622128446.1349,1622128446.13678,1622128448.23568,1622128451.88704,1622128451.8891,1622128452.75569,1622128452.75403,1622128900.471,0
25,4,1,3,9,5,1,c1_WhyFace,1,argument?,42,F_403.jpg,1622128293.23532,1622128293.24724,142.870198955536,7.25776100158691,150.139575233459,152.240358819962,0.3,157.075494756699,0.783626556396484,157.860862960815,1,left,0.767625093460083,157.859121313095,604.475674381256,607.235674381256,1622128438.86552,1622128438.86684,1622128446.1349,1622128446.13678,1622128448.23568,1622128453.07082,1622128453.07255,1622128453.85618,1622128453.85444,1622128900.471,1
25,4,1,3,9,6,1,c1_WhyFace,2,argument?,46,F_844.jpg,1622128293.23532,1622128293.24724,142.870198955536,7.25776100158691,150.139575233459,152.240358819962,0.3,158.175906171799,1.1837739944458,159.361412992477,3,right,1.16368699073792,159.359680166245,604.475674381256,607.235674381256,1622128438.86552,1622128438.86684,1622128446.1349,1622128446.13678,1622128448.23568,1622128454.17123,1622128454.17296,1622128455.35673,1622128455.355,1622128900.471,0
25,4,1,3,9,7,1,c1_WhyFace,1,argument?,47,F_743.jpg,1622128293.23532,1622128293.24724,142.870198955536,7.25776100158691,150.139575233459,152.240358819962,0.3,159.676465263367,0.866989374160767,160.552750101089,1,left,0.852244138717651,160.543454637527,604.475674381256,607.235674381256,1622128438.86552,1622128438.86684,1622128446.1349,1622128446.13678,1622128448.23568,1622128455.67179,1622128455.6736,1622128456.54807,1622128456.53878,1622128900.471,1
25,4,1,3,9,8,1,c1_WhyFace,1,argument?,48,F_758.jpg,1622128293.23532,1622128293.24724,142.870198955536,7.25776100158691,150.139575233459,152.240358819962,0.3,160.860240211487,0.967026948928833,161.82876991272,1,left,0.946376800537109,161.827267160416,604.475674381256,607.235674381256,1622128438.86552,1622128438.86684,1622128446.1349,1622128446.13678,1622128448.23568,1622128456.85556,1622128456.85763,1622128457.82409,1622128457.82259,1622128900.471,1
25,4,1,3,10,1,3,c3_HowFace,1,open mouth?,80,F_844.jpg,1622128293.23532,1622128293.24724,161.893959274292,6.07396864891052,167.979562034607,170.08034538269,2.1007833480835,170.23040055275,0.666915655136108,170.902547111511,1,left,0.644488096237183,170.897316207886,604.475674381256,607.235674381256,1622128457.88928,1622128457.89758,1622128463.97488,1622128463.98139,1622128466.07567,1622128466.22572,1622128466.23127,1622128466.89787,1622128466.89264,1622128900.471,1
25,4,1,3,10,2,3,c3_HowFace,1,open mouth?,74,F_776.jpg,1622128293.23532,1622128293.24724,161.893959274292,6.07396864891052,167.979562034607,170.08034538269,0.3,171.214102020264,0.566877126693726,171.782752027512,1,left,0.545828819274902,171.780979146957,604.475674381256,607.235674381256,1622128457.88928,1622128457.89758,1622128463.97488,1622128463.98139,1622128466.07567,1622128467.20942,1622128467.21095,1622128467.77807,1622128467.7763,1622128900.471,1
25,4,1,3,10,3,3,c3_HowFace,2,open mouth?,76,F_544.jpg,1622128293.23532,1622128293.24724,161.893959274292,6.07396864891052,167.979562034607,170.08034538269,0.3,172.09776424408,0.866989850997925,172.969001998901,3,right,0.846952199935913,172.964754095078,604.475674381256,607.235674381256,1622128457.88928,1622128457.89758,1622128463.97488,1622128463.98139,1622128466.07567,1622128468.09309,1622128468.09768,1622128468.96432,1622128468.96008,1622128900.471,0
25,4,1,3,10,4,3,c3_HowFace,1,open mouth?,78,F_692.jpg,1622128293.23532,1622128293.24724,161.893959274292,6.07396864891052,167.979562034607,170.08034538269,0.3,173.2815391922,0.683588266372681,173.968996992111,1,left,0.672524213790894,173.965127458572,604.475674381256,607.235674381256,1622128457.88928,1622128457.89758,1622128463.97488,1622128463.98139,1622128466.07567,1622128469.27686,1622128469.28082,1622128469.96432,1622128469.96045,1622128900.471,1
25,4,1,3,10,5,3,c3_HowFace,2,open mouth?,77,F_584.jpg,1622128293.23532,1622128293.24724,161.893959274292,6.07396864891052,167.979562034607,170.08034538269,0.3,174.281911125183,0.833645105361938,175.118555059433,3,right,0.809854984283447,175.115556230545,604.475674381256,607.235674381256,1622128457.88928,1622128457.89758,1622128463.97488,1622128463.98139,1622128466.07567,1622128470.27723,1622128470.28166,1622128471.11388,1622128471.11088,1622128900.471,0
25,4,1,3,10,6,3,c3_HowFace,1,open mouth?,73,F_403.jpg,1622128293.23532,1622128293.24724,161.893959274292,6.07396864891052,167.979562034607,170.08034538269,0.3,175.432340373993,0.60022497177124,176.035150995255,1,left,0.586145877838135,176.032565345764,604.475674381256,607.235674381256,1622128457.88928,1622128457.89758,1622128463.97488,1622128463.98139,1622128466.07567,1622128471.42766,1622128471.43115,1622128472.03047,1622128472.02789,1622128900.471,1
25,4,1,3,10,7,3,c3_HowFace,1,open mouth?,75,F_086.jpg,1622128293.23532,1622128293.24724,161.893959274292,6.07396864891052,167.979562034607,170.08034538269,0.3,176.349350204468,0.600222110748291,176.951318969727,1,left,0.576112985610962,176.949572315216,604.475674381256,607.235674381256,1622128457.88928,1622128457.89758,1622128463.97488,1622128463.98139,1622128466.07567,1622128472.34467,1622128472.34791,1622128472.94664,1622128472.94489,1622128900.471,1
25,4,1,3,10,8,3,c3_HowFace,2,open mouth?,79,F_648.jpg,1622128293.23532,1622128293.24724,161.893959274292,6.07396864891052,167.979562034607,170.08034538269,0.3,177.266358604431,0.650242805480957,177.919086923599,3,right,0.635071992874146,177.916601409912,604.475674381256,607.235674381256,1622128457.88928,1622128457.89758,1622128463.97488,1622128463.98139,1622128466.07567,1622128473.26168,1622128473.26469,1622128473.91441,1622128473.91192,1622128900.471,0
25,4,1,3,11,1,4,c4_HowHand,1,pressing button?,88,H_019.jpg,1622128293.23532,1622128293.24724,177.999965181351,7.85802984237671,185.86956738472,187.970350494385,2.10078310966492,188.120406141281,0.850316762924194,188.972129096985,1,left,0.836059093475342,188.970722904205,604.475674381256,607.235674381256,1622128473.99529,1622128473.99779,1622128481.86489,1622128481.86644,1622128483.96567,1622128484.11573,1622128484.11758,1622128484.96745,1622128484.96604,1622128900.471,1
25,4,1,3,11,2,4,c4_HowHand,2,pressing button?,87,H_024.jpg,1622128293.23532,1622128293.24724,177.999965181351,7.85802984237671,185.86956738472,187.970350494385,0.3,189.287508001328,0.850317716598511,190.138937940598,3,right,0.838091135025024,190.137825717926,604.475674381256,607.235674381256,1622128473.99529,1622128473.99779,1622128481.86489,1622128481.86644,1622128483.96567,1622128485.28283,1622128485.28477,1622128486.13426,1622128486.13315,1622128900.471,0
25,4,1,3,11,3,4,c4_HowHand,2,pressing button?,85,H_130.jpg,1622128293.23532,1622128293.24724,177.999965181351,7.85802984237671,185.86956738472,187.970350494385,0.3,190.45461057663,0.783624887466431,191.240058889389,3,right,0.768525123596191,191.238235464096,604.475674381256,607.235674381256,1622128473.99529,1622128473.99779,1622128481.86489,1622128481.86644,1622128483.96567,1622128486.44993,1622128486.45181,1622128487.23538,1622128487.23356,1622128900.471,0
25,4,1,3,11,4,4,c4_HowHand,1,pressing button?,83,H_502.jpg,1622128293.23532,1622128293.24724,177.999965181351,7.85802984237671,185.86956738472,187.970350494385,0.3,191.555020561218,0.716934204101562,192.273222913742,1,left,0.696304082870483,192.27195476532,604.475674381256,607.235674381256,1622128473.99529,1622128473.99779,1622128481.86489,1622128481.86644,1622128483.96567,1622128487.55034,1622128487.55226,1622128488.26854,1622128488.26728,1622128900.471,1
25,4,1,3,11,5,4,c4_HowHand,2,pressing button?,81,H_261.jpg,1622128293.23532,1622128293.24724,177.999965181351,7.85802984237671,185.86956738472,187.970350494385,0.3,192.588738908768,0.900336503982544,193.490122070313,3,right,0.882678985595703,193.48907541275,604.475674381256,607.235674381256,1622128473.99529,1622128473.99779,1622128481.86489,1622128481.86644,1622128483.96567,1622128488.58406,1622128488.58588,1622128489.48544,1622128489.4844,1622128900.471,0
25,4,1,3,11,6,4,c4_HowHand,1,pressing button?,86,H_332.jpg,1622128293.23532,1622128293.24724,177.999965181351,7.85802984237671,185.86956738472,187.970350494385,0.3,193.805859079361,0.633570194244385,194.451896896362,1,left,0.625307083129883,194.439429273605,604.475674381256,607.235674381256,1622128473.99529,1622128473.99779,1622128481.86489,1622128481.86644,1622128483.96567,1622128489.80118,1622128489.80255,1622128490.44722,1622128490.43475,1622128900.471,1
25,4,1,3,11,7,4,c4_HowHand,1,pressing button?,82,H_126.jpg,1622128293.23532,1622128293.24724,177.999965181351,7.85802984237671,185.86956738472,187.970350494385,0.3,194.756214132309,0.700260400772095,195.469214906693,1,left,0.693196058273315,195.456474533081,604.475674381256,607.235674381256,1622128473.99529,1622128473.99779,1622128481.86489,1622128481.86644,1622128483.96567,1622128490.75154,1622128490.75325,1622128491.46454,1622128491.4518,1622128900.471,1
25,4,1,3,11,8,4,c4_HowHand,1,pressing button?,84,H_483.jpg,1622128293.23532,1622128293.24724,177.999965181351,7.85802984237671,185.86956738472,187.970350494385,0.3,195.773260345459,0.750280857086182,196.535200109482,1,left,0.741535902023315,196.523541202545,604.475674381256,607.235674381256,1622128473.99529,1622128473.99779,1622128481.86489,1622128481.86644,1622128483.96567,1622128491.76858,1622128491.77037,1622128492.53052,1622128492.51886,1622128900.471,1
25,4,1,3,12,1,2,c2_WhyHand,1,competing?,9,H_261.jpg,1622128293.23532,1622128293.24724,196.606904258728,7.04098463058472,203.65953420639,205.760318031311,2.10078382492065,205.910373916626,1.1837739944458,207.10189699173,1,left,1.17052412033081,207.094147911072,604.475674381256,607.235674381256,1622128492.60223,1622128492.61431,1622128499.65486,1622128499.66479,1622128501.75564,1622128501.9057,1622128501.90759,1622128503.09722,1622128503.08947,1622128900.471,1
25,4,1,3,12,2,2,c2_WhyHand,2,competing?,12,H_483.jpg,1622128293.23532,1622128293.24724,196.606904258728,7.04098463058472,203.65953420639,205.760318031311,0.3,207.41093372345,0.750279664993286,208.162333955765,3,right,0.731649160385132,208.161213388443,604.475674381256,607.235674381256,1622128492.60223,1622128492.61431,1622128499.65486,1622128499.66479,1622128501.75564,1622128503.40626,1622128503.40811,1622128504.15766,1622128504.15654,1622128900.471,0
25,4,1,3,12,3,2,c2_WhyHand,1,competing?,14,H_132.jpg,1622128293.23532,1622128293.24724,196.606904258728,7.04098463058472,203.65953420639,205.760318031311,0.3,208.477998247147,0.666915416717529,209.152055015564,1,left,0.653824090957642,209.144913663864,604.475674381256,607.235674381256,1622128492.60223,1622128492.61431,1622128499.65486,1622128499.66479,1622128501.75564,1622128504.47332,1622128504.47479,1622128505.14738,1622128505.14024,1622128900.471,1
25,4,1,3,12,4,2,c2_WhyHand,2,competing?,10,H_126.jpg,1622128293.23532,1622128293.24724,196.606904258728,7.04098463058472,203.65953420639,205.760318031311,0.3,209.461698045731,0.800297975540161,210.268669118881,3,right,0.783470869064331,210.261996021271,604.475674381256,607.235674381256,1622128492.60223,1622128492.61431,1622128499.65486,1622128499.66479,1622128501.75564,1622128505.45702,1622128505.45894,1622128506.26399,1622128506.25732,1622128900.471,0
25,4,1,3,12,5,2,c2_WhyHand,1,competing?,16,H_136.jpg,1622128293.23532,1622128293.24724,196.606904258728,7.04098463058472,203.65953420639,205.760318031311,0.3,210.578780641556,0.86699104309082,211.452378025055,1,left,0.857987880706787,211.445771684647,604.475674381256,607.235674381256,1622128492.60223,1622128492.61431,1622128499.65486,1622128499.66479,1622128501.75564,1622128506.5741,1622128506.5757,1622128507.4477,1622128507.44109,1622128900.471,1
25,4,1,3,12,6,2,c2_WhyHand,2,competing?,11,H_502.jpg,1622128293.23532,1622128293.24724,196.606904258728,7.04098463058472,203.65953420639,205.760318031311,0.3,211.762555828094,1.03371906280518,212.797318925858,3,right,1.01096701622009,212.7962748909,604.475674381256,607.235674381256,1622128492.60223,1622128492.61431,1622128499.65486,1622128499.66479,1622128501.75564,1622128507.75788,1622128507.7597,1622128508.79264,1622128508.7916,1622128900.471,0
25,4,1,3,12,7,2,c2_WhyHand,1,competing?,13,H_003.jpg,1622128293.23532,1622128293.24724,196.606904258728,7.04098463058472,203.65953420639,205.760318031311,0.3,213.113059272766,0.650242805480957,213.768529882431,1,left,0.640205860137939,213.763302078247,604.475674381256,607.235674381256,1622128492.60223,1622128492.61431,1622128499.65486,1622128499.66479,1622128501.75564,1622128509.10838,1622128509.11004,1622128509.76385,1622128509.75862,1622128900.471,1
25,4,1,3,12,8,2,c2_WhyHand,1,competing?,15,H_170.jpg,1622128293.23532,1622128293.24724,196.606904258728,7.04098463058472,203.65953420639,205.760318031311,0.3,214.080087413788,0.616896629333496,214.698390951157,1,left,0.596774101257324,214.696984043121,604.475674381256,607.235674381256,1622128492.60223,1622128492.61431,1622128499.65486,1622128499.66479,1622128501.75564,1622128510.07541,1622128510.07713,1622128510.69371,1622128510.69231,1622128900.471,1
25,4,1,3,13,1,1,c1_WhyFace,1,self-doubt?,29,F_544.jpg,1622128293.23532,1622128293.24724,214.763674964905,6.95418310165405,221.732941141129,223.833724250793,2.10078310966492,223.98377989769,0.750280857086182,224.735795965195,1,left,0.734992980957031,224.734060754776,604.475674381256,607.235674381256,1622128510.759,1622128510.76383,1622128517.72826,1622128517.73118,1622128519.82905,1622128519.9791,1622128519.98146,1622128520.73112,1622128520.72938,1622128900.471,1
25,4,1,3,13,2,1,c1_WhyFace,2,self-doubt?,27,F_086.jpg,1622128293.23532,1622128293.24724,214.763674964905,6.95418310165405,221.732941141129,223.833724250793,0.3,225.05084394455,1.1004114151001,226.152720918655,3,right,1.08526515960693,226.15125535965,604.475674381256,607.235674381256,1622128510.759,1622128510.76383,1622128517.72826,1622128517.73118,1622128519.82905,1622128521.04617,1622128521.04794,1622128522.14804,1622128522.14658,1622128900.471,0
25,4,1,3,13,3,1,c1_WhyFace,1,self-doubt?,25,F_798.jpg,1622128293.23532,1622128293.24724,214.763674964905,6.95418310165405,221.732941141129,223.833724250793,0.3,226.468040218353,0.883663177490234,227.353377094269,1,left,0.867533922195435,227.351703395844,604.475674381256,607.235674381256,1622128510.759,1622128510.76383,1622128517.72826,1622128517.73118,1622128519.82905,1622128522.46336,1622128522.46504,1622128523.3487,1622128523.34703,1622128900.471,1
25,4,1,3,13,4,1,c1_WhyFace,1,self-doubt?,26,F_111.jpg,1622128293.23532,1622128293.24724,214.763674964905,6.95418310165405,221.732941141129,223.833724250793,0.3,227.668488016129,0.666915655136108,228.336339941025,1,left,0.65603494644165,228.335403671265,604.475674381256,607.235674381256,1622128510.759,1622128510.76383,1622128517.72826,1622128517.73118,1622128519.82905,1622128523.66381,1622128523.66561,1622128524.33166,1622128524.33073,1622128900.471,1
25,4,1,3,13,5,1,c1_WhyFace,2,self-doubt?,31,F_774.jpg,1622128293.23532,1622128293.24724,214.763674964905,6.95418310165405,221.732941141129,223.833724250793,0.3,228.652187337875,0.766952991485596,229.420282115936,3,right,0.752007961273193,229.419140329361,604.475674381256,607.235674381256,1622128510.759,1622128510.76383,1622128517.72826,1622128517.73118,1622128519.82905,1622128524.64751,1622128524.64914,1622128525.4156,1622128525.41446,1622128900.471,0
25,4,1,3,13,6,1,c1_WhyFace,1,self-doubt?,28,F_754.jpg,1622128293.23532,1622128293.24724,214.763674964905,6.95418310165405,221.732941141129,223.833724250793,0.3,229.73592423439,1.30048561096191,231.052855005264,1,left,1.29222083091736,231.036409845352,604.475674381256,607.235674381256,1622128510.759,1622128510.76383,1622128517.72826,1622128517.73118,1622128519.82905,1622128525.73125,1622128525.73286,1622128527.04818,1622128527.03173,1622128900.471,1
25,4,1,3,13,7,1,c1_WhyFace,2,self-doubt?,32,F_128.jpg,1622128293.23532,1622128293.24724,214.763674964905,6.95418310165405,221.732941141129,223.833724250793,0.3,231.353195180893,0.967026710510254,232.335604896545,3,right,0.959183931350708,232.320221891403,604.475674381256,607.235674381256,1622128510.759,1622128510.76383,1622128517.72826,1622128517.73118,1622128519.82905,1622128527.34852,1622128527.34952,1622128528.33093,1622128528.31554,1622128900.471,0
25,4,1,3,13,8,1,c1_WhyFace,1,self-doubt?,30,F_584.jpg,1622128293.23532,1622128293.24724,214.763674964905,6.95418310165405,221.732941141129,223.833724250793,0.3,232.637007465363,1.5172324180603,234.155326118469,3,right,1.50206589698792,234.154239883423,604.475674381256,607.235674381256,1622128510.759,1622128510.76383,1622128517.72826,1622128517.73118,1622128519.82905,1622128528.63233,1622128528.63382,1622128530.15065,1622128530.14956,1622128900.471,0
25,4,1,3,14,1,3,c3_HowFace,1,looking at camera?,64,F_128.jpg,1622128293.23532,1622128293.24724,234.220931282043,6.55103278160095,240.790046920776,242.890830984116,2.10078406333923,243.040887584686,0.716933488845825,243.768640031815,1,left,0.708019018173218,243.757821073532,604.475674381256,607.235674381256,1622128530.21625,1622128530.21727,1622128536.78537,1622128536.78717,1622128538.88615,1622128539.03621,1622128539.03816,1622128539.76396,1622128539.75314,1622128900.471,1
25,4,1,3,14,2,3,c3_HowFace,1,looking at camera?,60,F_618.jpg,1622128293.23532,1622128293.24724,234.220931282043,6.55103278160095,240.790046920776,242.890830984116,0.3,244.074606170654,0.616897344589233,244.692686071396,1,left,0.594074010848999,244.691503515244,604.475674381256,607.235674381256,1622128530.21625,1622128530.21727,1622128536.78537,1622128536.78717,1622128538.88615,1622128540.06993,1622128540.0712,1622128540.68801,1622128540.68683,1622128900.471,1
25,4,1,3,14,3,3,c3_HowFace,1,looking at camera?,62,F_598.jpg,1622128293.23532,1622128293.24724,234.220931282043,6.55103278160095,240.790046920776,242.890830984116,0.3,245.008286705017,0.666915655136108,245.676456918716,1,left,0.649795055389404,245.675202360153,604.475674381256,607.235674381256,1622128530.21625,1622128530.21727,1622128536.78537,1622128536.78717,1622128538.88615,1622128541.00361,1622128541.00558,1622128541.67178,1622128541.67052,1622128900.471,1
25,4,1,3,14,4,3,c3_HowFace,2,looking at camera?,63,F_743.jpg,1622128293.23532,1622128293.24724,234.220931282043,6.55103278160095,240.790046920776,242.890830984116,0.3,245.991987695694,0.666914939880371,246.660250892639,3,right,0.647231817245483,246.658902635574,604.475674381256,607.235674381256,1622128530.21625,1622128530.21727,1622128536.78537,1622128536.78717,1622128538.88615,1622128541.98731,1622128541.9891,1622128542.65557,1622128542.65422,1622128900.471,0
25,4,1,3,14,5,3,c3_HowFace,1,looking at camera?,61,F_774.jpg,1622128293.23532,1622128293.24724,234.220931282043,6.55103278160095,240.790046920776,242.890830984116,0.3,246.975688686371,0.716933488845825,247.693672885895,1,left,0.697683811187744,247.692622175217,604.475674381256,607.235674381256,1622128530.21625,1622128530.21727,1622128536.78537,1622128536.78717,1622128538.88615,1622128542.97101,1622128542.97284,1622128543.68899,1622128543.68794,1622128900.471,1
25,4,1,3,14,6,3,c3_HowFace,2,looking at camera?,57,F_582.jpg,1622128293.23532,1622128293.24724,234.220931282043,6.55103278160095,240.790046920776,242.890830984116,0.3,248.009405603409,0.850318908691406,248.860791912079,3,right,0.831306934356689,248.8597245121,604.475674381256,607.235674381256,1622128530.21625,1622128530.21727,1622128536.78537,1622128536.78717,1622128538.88615,1622128544.00473,1622128544.00629,1622128544.85611,1622128544.85505,1622128900.471,0
25,4,1,3,14,7,3,c3_HowFace,2,looking at camera?,58,F_754.jpg,1622128293.23532,1622128293.24724,234.220931282043,6.55103278160095,240.790046920776,242.890830984116,0.3,249.176508655548,0.883662223815918,250.068995943069,3,right,0.876203060150146,250.060170879364,604.475674381256,607.235674381256,1622128530.21625,1622128530.21727,1622128536.78537,1622128536.78717,1622128538.88615,1622128545.17183,1622128545.17336,1622128546.06432,1622128546.05549,1622128900.471,0
25,4,1,3,14,8,3,c3_HowFace,1,looking at camera?,59,F_129.jpg,1622128293.23532,1622128293.24724,234.220931282043,6.55103278160095,240.790046920776,242.890830984116,0.3,250.376956453323,0.900335788726807,251.278362979889,1,left,0.87890100479126,251.27729224205,604.475674381256,607.235674381256,1622128530.21625,1622128530.21727,1622128536.78537,1622128536.78717,1622128538.88615,1622128546.37228,1622128546.37377,1622128547.27368,1622128547.27261,1622128900.471,1
25,4,1,3,15,1,4,c4_HowHand,1,both hands?,123,H_167.jpg,1622128293.23532,1622128293.24724,251.343983402252,8.21797370910645,259.580388298035,261.6644992733,2.0841109752655,261.831228723526,1.03371715545654,262.868957986832,1,left,1.02048110961914,262.864945878983,604.475674381256,607.235674381256,1622128547.33931,1622128547.34798,1622128555.57571,1622128555.57779,1622128557.65982,1622128557.82655,1622128557.82865,1622128558.86428,1622128558.86027,1622128900.471,1
25,4,1,3,15,2,4,c4_HowHand,2,both hands?,121,H_091.jpg,1622128293.23532,1622128293.24724,251.343983402252,8.21797370910645,259.580388298035,261.6644992733,0.3,263.181730976105,1.20044875144958,264.385737886429,3,right,1.18270683288574,264.382179727554,604.475674381256,607.235674381256,1622128547.33931,1622128547.34798,1622128555.57571,1622128555.57779,1622128557.65982,1622128559.17705,1622128559.18096,1622128560.38106,1622128560.3775,1622128900.471,0
25,4,1,3,15,3,4,c4_HowHand,2,both hands?,125,H_627.jpg,1622128293.23532,1622128293.24724,251.343983402252,8.21797370910645,259.580388298035,261.6644992733,0.3,264.698964347839,1.15042853355408,265.851887931824,3,right,1.12859010696411,265.849392881393,604.475674381256,607.235674381256,1622128547.33931,1622128547.34798,1622128555.57571,1622128555.57779,1622128557.65982,1622128560.69429,1622128560.69759,1622128561.84721,1622128561.84471,1622128900.471,0
25,4,1,3,15,4,4,c4_HowHand,1,both hands?,128,H_027.jpg,1622128293.23532,1622128293.24724,251.343983402252,8.21797370910645,259.580388298035,261.6644992733,0.3,266.166177501678,1.13375735282898,267.302632083893,1,left,1.12204194068909,267.299934854507,604.475674381256,607.235674381256,1622128547.33931,1622128547.34798,1622128555.57571,1622128555.57779,1622128557.65982,1622128562.1615,1622128562.16467,1622128563.29795,1622128563.29526,1622128900.471,1
25,4,1,3,15,5,4,c4_HowHand,1,both hands?,122,H_111.jpg,1622128293.23532,1622128293.24724,251.343983402252,8.21797370910645,259.580388298035,261.6644992733,0.3,267.616719474792,0.88366174697876,268.502188911438,1,left,0.867967128753662,268.500381221771,604.475674381256,607.235674381256,1622128547.33931,1622128547.34798,1622128555.57571,1622128555.57779,1622128557.65982,1622128563.61204,1622128563.61439,1622128564.49751,1622128564.4957,1622128900.471,1
25,4,1,3,15,6,4,c4_HowHand,2,both hands?,126,H_159.jpg,1622128293.23532,1622128293.24724,251.343983402252,8.21797370910645,259.580388298035,261.6644992733,0.3,268.817166318893,1.06706476211548,269.885183086395,3,right,1.05628299713135,269.884231081009,604.475674381256,607.235674381256,1622128547.33931,1622128547.34798,1622128555.57571,1622128555.57779,1622128557.65982,1622128564.81249,1622128564.81433,1622128565.88051,1622128565.87955,1622128900.471,0
25,4,1,3,15,7,4,c4_HowHand,1,both hands?,124,H_581.jpg,1622128293.23532,1622128293.24724,251.343983402252,8.21797370910645,259.580388298035,261.6644992733,0.3,270.201014986038,1.00037384033203,271.202773084641,1,left,0.991625070571899,271.20138882637,604.475674381256,607.235674381256,1622128547.33931,1622128547.34798,1622128555.57571,1622128555.57779,1622128557.65982,1622128566.19634,1622128566.19799,1622128567.1981,1622128567.19671,1622128900.471,1
25,4,1,3,15,8,4,c4_HowHand,1,both hands?,127,H_349.jpg,1622128293.23532,1622128293.24724,251.343983402252,8.21797370910645,259.580388298035,261.6644992733,0.3,271.518173446655,0.800298452377319,272.31941198349,1,left,0.792210817337036,272.318471899033,604.475674381256,607.235674381256,1622128547.33931,1622128547.34798,1622128555.57571,1622128555.57779,1622128557.65982,1622128567.5135,1622128567.51507,1622128568.31473,1622128568.31379,1622128900.471,1
25,4,1,3,16,1,2,c2_WhyHand,1,self-protection?,89,H_443.jpg,1622128293.23532,1622128293.24724,272.385164012909,5.96685791015625,278.370729675293,280.45483874321,2.08410906791687,280.604895343781,1.08373761177063,281.690402975082,1,left,1.04785394668579,281.688632955551,604.475674381256,607.235674381256,1622128568.38049,1622128568.38186,1622128574.36605,1622128574.368,1622128576.45016,1622128576.60022,1622128576.6146,1622128577.68572,1622128577.68395,1622128900.471,1
25,4,1,3,16,2,2,c2_WhyHand,2,self-protection?,90,H_006.jpg,1622128293.23532,1622128293.24724,272.385164012909,5.96685791015625,278.370729675293,280.45483874321,0.3,282.005417098999,1.25046706199646,283.257409086227,3,right,1.23791098594666,283.255884160995,604.475674381256,607.235674381256,1622128568.38049,1622128568.38186,1622128574.36605,1622128574.368,1622128576.45016,1622128578.00074,1622128578.00244,1622128579.25273,1622128579.25121,1622128900.471,0
25,4,1,3,16,3,2,c2_WhyHand,1,self-protection?,91,H_581.jpg,1622128293.23532,1622128293.24724,272.385164012909,5.96685791015625,278.370729675293,280.45483874321,0.3,283.572669258118,1.20044732093811,284.774789085388,3,right,1.18436813354492,284.773116579056,604.475674381256,607.235674381256,1622128568.38049,1622128568.38186,1622128574.36605,1622128574.368,1622128576.45016,1622128579.56799,1622128579.56997,1622128580.77011,1622128580.76844,1622128900.471,0
25,4,1,3,16,4,2,c2_WhyHand,2,self-protection?,92,H_532.jpg,1622128293.23532,1622128293.24724,272.385164012909,5.96685791015625,278.370729675293,280.45483874321,0.3,285.089901437759,1.60059690475464,286.702604999542,3,right,1.59167909622192,286.690498342514,604.475674381256,607.235674381256,1622128568.38049,1622128568.38186,1622128574.36605,1622128574.368,1622128576.45016,1622128581.08522,1622128581.08687,1622128582.69793,1622128582.68582,1622128900.471,0
25,4,1,3,16,5,2,c2_WhyHand,1,self-protection?,96,H_027.jpg,1622128293.23532,1622128293.24724,272.385164012909,5.96685791015625,278.370729675293,280.45483874321,0.3,287.007283439636,1.28381204605103,288.292789926529,1,left,1.26422500610352,288.291095485687,604.475674381256,607.235674381256,1622128568.38049,1622128568.38186,1622128574.36605,1622128574.368,1622128576.45016,1622128583.00261,1622128583.00437,1622128584.28811,1622128584.28642,1622128900.471,1
25,4,1,3,16,6,2,c2_WhyHand,1,self-protection?,93,H_038.jpg,1622128293.23532,1622128293.24724,272.385164012909,5.96685791015625,278.370729675293,280.45483874321,0.3,288.607879867554,0.833644151687622,289.4432289505,1,left,0.814146995544434,289.441524019241,604.475674381256,607.235674381256,1622128568.38049,1622128568.38186,1622128574.36605,1622128574.368,1622128576.45016,1622128584.6032,1622128584.60499,1622128585.43855,1622128585.43685,1622128900.471,1
25,4,1,3,16,7,2,c2_WhyHand,2,self-protection?,95,H_332.jpg,1622128293.23532,1622128293.24724,272.385164012909,5.96685791015625,278.370729675293,280.45483874321,0.3,289.758309116364,1.05039119720459,290.809785118103,3,right,1.0309100151062,290.808700313568,604.475674381256,607.235674381256,1622128568.38049,1622128568.38186,1622128574.36605,1622128574.368,1622128576.45016,1622128585.75363,1622128585.75531,1622128586.80511,1622128586.80402,1622128900.471,0
25,4,1,3,16,8,2,c2_WhyHand,1,self-protection?,94,H_189.jpg,1622128293.23532,1622128293.24724,272.385164012909,5.96685791015625,278.370729675293,280.45483874321,0.3,291.125485649109,1.08373761177063,292.210993041992,1,left,1.06369400024414,292.20922326088,604.475674381256,607.235674381256,1622128568.38049,1622128568.38186,1622128574.36605,1622128574.368,1622128576.45016,1622128587.12081,1622128587.12271,1622128588.20632,1622128588.20455,1622128900.471,1
25,4,1,3,17,1,3,c3_HowFace,1,smiling?,118,F_759.jpg,1622128293.23532,1622128293.24724,292.292587509155,7.539475440979,299.845404615402,301.946187486649,2.10078287124634,302.096243133545,1.25046730041504,303.35199092865,3,right,1.22924709320068,303.34671043396,604.475674381256,607.235674381256,1622128588.28791,1622128588.29785,1622128595.84073,1622128595.84851,1622128597.94151,1622128598.09157,1622128598.09856,1622128599.34731,1622128599.34203,1622128900.471,0
25,4,1,3,17,2,3,c3_HowFace,2,smiling?,114,F_412.jpg,1622128293.23532,1622128293.24724,292.292587509155,7.539475440979,299.845404615402,301.946187486649,0.3,303.663494338989,0.816972017288208,304.485239019394,3,right,0.809500932693481,304.480466356277,604.475674381256,607.235674381256,1622128588.28791,1622128588.29785,1622128595.84073,1622128595.84851,1622128597.94151,1622128599.65882,1622128599.66069,1622128600.48056,1622128600.47579,1622128900.471,0
25,4,1,3,17,3,3,c3_HowFace,1,smiling?,117,F_593.jpg,1622128293.23532,1622128293.24724,292.292587509155,7.539475440979,299.845404615402,301.946187486649,0.3,304.797250022888,0.666916131973267,305.468929042816,1,left,0.650588989257812,305.464166154861,604.475674381256,607.235674381256,1622128588.28791,1622128588.29785,1622128595.84073,1622128595.84851,1622128597.94151,1622128600.79257,1622128600.7941,1622128601.46425,1622128601.45949,1622128900.471,1
25,4,1,3,17,4,3,c3_HowFace,2,smiling?,113,F_712.jpg,1622128293.23532,1622128293.24724,292.292587509155,7.539475440979,299.845404615402,301.946187486649,0.3,305.780950059891,0.816972017288208,306.602545967102,3,right,0.808756113052368,306.597922077179,604.475674381256,607.235674381256,1622128588.28791,1622128588.29785,1622128595.84073,1622128595.84851,1622128597.94151,1622128601.77627,1622128601.77757,1622128602.59787,1622128602.59324,1622128900.471,0
25,4,1,3,17,5,3,c3_HowFace,1,smiling?,115,F_695.jpg,1622128293.23532,1622128293.24724,292.292587509155,7.539475440979,299.845404615402,301.946187486649,0.3,306.914707889557,0.733606100082397,307.65188788414,1,left,0.712712049484253,307.648313989639,604.475674381256,607.235674381256,1622128588.28791,1622128588.29785,1622128595.84073,1622128595.84851,1622128597.94151,1622128602.91003,1622128602.91432,1622128603.64721,1622128603.64364,1622128900.471,1
25,4,1,3,17,6,3,c3_HowFace,1,smiling?,119,F_139.jpg,1622128293.23532,1622128293.24724,292.292587509155,7.539475440979,299.845404615402,301.946187486649,0.3,307.965099563599,0.883662462234497,308.852551927567,1,left,0.859950065612793,308.848762025833,604.475674381256,607.235674381256,1622128588.28791,1622128588.29785,1622128595.84073,1622128595.84851,1622128597.94151,1622128603.96042,1622128603.96481,1622128604.84787,1622128604.84408,1622128900.471,1
25,4,1,3,17,7,3,c3_HowFace,1,smiling?,116,F_083.jpg,1622128293.23532,1622128293.24724,292.292587509155,7.539475440979,299.845404615402,301.946187486649,0.3,309.165546884537,0.566877126693726,309.735990037918,1,left,0.552599191665649,309.73242401123,604.475674381256,607.235674381256,1622128588.28791,1622128588.29785,1622128595.84073,1622128595.84851,1622128597.94151,1622128605.16087,1622128605.16459,1622128605.73131,1622128605.72775,1622128900.471,1
25,4,1,3,17,8,3,c3_HowFace,2,smiling?,120,F_758.jpg,1622128293.23532,1622128293.24724,292.292587509155,7.539475440979,299.845404615402,301.946187486649,0.3,310.04920958519,0.700260877609253,310.752634992599,3,right,0.68215012550354,310.749470462799,604.475674381256,607.235674381256,1622128588.28791,1622128588.29785,1622128595.84073,1622128595.84851,1622128597.94151,1622128606.04453,1622128606.04794,1622128606.74796,1622128606.74479,1622128900.471,0
25,4,1,3,18,1,1,c1_WhyFace,1,admiring?,1,F_593.jpg,1622128293.23532,1622128293.24724,310.832834949493,6.78909611701965,317.635372152329,319.736155261993,2.10078310966492,319.886210670471,0.700261831283569,320.587908973694,1,left,0.685242176055908,320.586472501755,604.475674381256,607.235674381256,1622128606.82816,1622128606.83124,1622128613.63069,1622128613.63274,1622128615.73148,1622128615.88153,1622128615.88347,1622128616.58323,1622128616.58179,1622128900.471,1
25,4,1,3,18,2,1,c1_WhyFace,2,admiring?,2,F_129.jpg,1622128293.23532,1622128293.24724,310.832834949493,6.78909611701965,317.635372152329,319.736155261993,0.3,320.903257598877,0.700260877609253,321.604568948746,3,right,0.677310943603516,321.603518476486,604.475674381256,607.235674381256,1622128606.82816,1622128606.83124,1622128613.63069,1622128613.63274,1622128615.73148,1622128616.89858,1622128616.90036,1622128617.59989,1622128617.59884,1622128900.471,0
25,4,1,3,18,3,1,c1_WhyFace,1,admiring?,5,F_759.jpg,1622128293.23532,1622128293.24724,310.832834949493,6.78909611701965,317.635372152329,319.736155261993,0.3,321.92030333519,1.1004102230072,323.021733989716,1,left,1.08870816230774,323.020713558197,604.475674381256,607.235674381256,1622128606.82816,1622128606.83124,1622128613.63069,1622128613.63274,1622128615.73148,1622128617.91563,1622128617.91732,1622128619.01706,1622128619.01604,1622128900.471,1
25,4,1,3,18,4,1,c1_WhyFace,2,admiring?,6,F_692.jpg,1622128293.23532,1622128293.24724,310.832834949493,6.78909611701965,317.635372152329,319.736155261993,0.3,323.337498416901,0.883662939071655,324.222712984085,3,right,0.869369983673096,324.221161355972,604.475674381256,607.235674381256,1622128606.82816,1622128606.83124,1622128613.63069,1622128613.63274,1622128615.73148,1622128619.33282,1622128619.33425,1622128620.21803,1622128620.21648,1622128900.471,0
25,4,1,3,18,5,1,c1_WhyFace,1,admiring?,4,F_779.jpg,1622128293.23532,1622128293.24724,310.832834949493,6.78909611701965,317.635372152329,319.736155261993,0.3,324.537946929932,0.716933488845825,325.255949010849,1,left,0.702342987060547,325.254880418777,604.475674381256,607.235674381256,1622128606.82816,1622128606.83124,1622128613.63069,1622128613.63274,1622128615.73148,1622128620.53327,1622128620.53528,1622128621.25127,1622128621.2502,1622128900.471,1
25,4,1,3,18,6,1,c1_WhyFace,1,admiring?,8,F_590.jpg,1622128293.23532,1622128293.24724,310.832834949493,6.78909611701965,317.635372152329,319.736155261993,0.3,325.571664085388,0.783626556396484,326.356406917572,1,left,0.761561155319214,326.355290641785,604.475674381256,607.235674381256,1622128606.82816,1622128606.83124,1622128613.63069,1622128613.63274,1622128615.73148,1622128621.56699,1622128621.56842,1622128622.35173,1622128622.35061,1622128900.471,1
25,4,1,3,18,7,1,c1_WhyFace,1,admiring?,7,F_648.jpg,1622128293.23532,1622128293.24724,310.832834949493,6.78909611701965,317.635372152329,319.736155261993,0.3,326.67207526207,0.65024209022522,327.33553194046,1,left,0.639446973800659,327.322317352295,604.475674381256,607.235674381256,1622128606.82816,1622128606.83124,1622128613.63069,1622128613.63274,1622128615.73148,1622128622.6674,1622128622.66931,1622128623.33085,1622128623.31764,1622128900.471,1
25,4,1,3,18,8,1,c1_WhyFace,2,admiring?,3,F_110.jpg,1622128293.23532,1622128293.24724,310.832834949493,6.78909611701965,317.635372152329,319.736155261993,0.3,327.639102687836,0.883661985397339,328.524544944763,3,right,0.870050191879272,328.522764673233,604.475674381256,607.235674381256,1622128606.82816,1622128606.83124,1622128613.63069,1622128613.63274,1622128615.73148,1622128623.63442,1622128623.63575,1622128624.51987,1622128624.51809,1622128900.471,0
25,4,1,3,19,1,2,c2_WhyHand,1,competing?,9,H_261.jpg,1622128293.23532,1622128293.24724,328.606129636765,6.90574431419373,335.525376310349,337.626160135269,2.10078382492065,337.776216259003,0.533531904220581,338.311208000183,1,left,0.514897108078003,338.309748163223,604.475674381256,607.235674381256,1622128624.60145,1622128624.60282,1622128631.5207,1622128631.5221,1622128633.62148,1622128633.77154,1622128633.77366,1622128634.30653,1622128634.30507,1622128900.471,1
25,4,1,3,19,2,2,c2_WhyHand,1,competing?,15,H_170.jpg,1622128293.23532,1622128293.24724,328.606129636765,6.90574431419373,335.525376310349,337.626160135269,0.3,338.626533498764,0.533531665802002,339.169416894913,1,left,0.520536184310913,339.160065164566,604.475674381256,607.235674381256,1622128624.60145,1622128624.60282,1622128631.5207,1622128631.5221,1622128633.62148,1622128634.62186,1622128634.62378,1622128635.16474,1622128635.15539,1622128900.471,1
25,4,1,3,19,3,2,c2_WhyHand,2,competing?,12,H_483.jpg,1622128293.23532,1622128293.24724,328.606129636765,6.90574431419373,335.525376310349,337.626160135269,0.3,339.476849784851,1.03371977806091,340.518553962708,3,right,1.0207941532135,340.510569562912,604.475674381256,607.235674381256,1622128624.60145,1622128624.60282,1622128631.5207,1622128631.5221,1622128633.62148,1622128635.47217,1622128635.47391,1622128636.51388,1622128636.50589,1622128900.471,0
25,4,1,3,19,4,2,c2_WhyHand,1,competing?,14,H_132.jpg,1622128293.23532,1622128293.24724,328.606129636765,6.90574431419373,335.525376310349,337.626160135269,0.3,340.827354421616,0.533531665802002,341.368539085388,1,left,0.521995067596436,341.360886087418,604.475674381256,607.235674381256,1622128624.60145,1622128624.60282,1622128631.5207,1622128631.5221,1622128633.62148,1622128636.82268,1622128636.82459,1622128637.36386,1622128637.35621,1622128900.471,1
25,4,1,3,19,5,2,c2_WhyHand,1,competing?,16,H_136.jpg,1622128293.23532,1622128293.24724,328.606129636765,6.90574431419373,335.525376310349,337.626160135269,0.3,341.677671422958,0.766951560974121,342.451990118027,1,left,0.756525039672852,342.444622983933,604.475674381256,607.235674381256,1622128624.60145,1622128624.60282,1622128631.5207,1622128631.5221,1622128633.62148,1622128637.67299,1622128637.67469,1622128638.44731,1622128638.43994,1622128900.471,1
25,4,1,3,19,6,2,c2_WhyHand,1,competing?,13,H_003.jpg,1622128293.23532,1622128293.24724,328.606129636765,6.90574431419373,335.525376310349,337.626160135269,0.3,342.761408319473,0.583551406860352,343.352735033035,1,left,0.567674875259399,343.344959726334,604.475674381256,607.235674381256,1622128624.60145,1622128624.60282,1622128631.5207,1622128631.5221,1622128633.62148,1622128638.75673,1622128638.7582,1622128639.34806,1622128639.34028,1622128900.471,1
25,4,1,3,19,7,2,c2_WhyHand,2,competing?,10,H_126.jpg,1622128293.23532,1622128293.24724,328.606129636765,6.90574431419373,335.525376310349,337.626160135269,0.3,343.661744346619,0.566877365112305,344.235557069778,3,right,0.553068876266479,344.228621711731,604.475674381256,607.235674381256,1622128624.60145,1622128624.60282,1622128631.5207,1622128631.5221,1622128633.62148,1622128639.65707,1622128639.65905,1622128640.23088,1622128640.22394,1622128900.471,0
25,4,1,3,19,8,2,c2_WhyHand,2,competing?,11,H_502.jpg,1622128293.23532,1622128293.24724,328.606129636765,6.90574431419373,335.525376310349,337.626160135269,0.3,344.545407047272,0.650242328643799,345.202264060974,3,right,0.63762903213501,345.195649375916,604.475674381256,607.235674381256,1622128624.60145,1622128624.60282,1622128631.5207,1622128631.5221,1622128633.62148,1622128640.54073,1622128640.5426,1622128641.19759,1622128641.19097,1622128900.471,0
25,4,1,3,20,1,4,c4_HowHand,1,reaching?,111,H_003.jpg,1622128293.23532,1622128293.24724,345.279014339447,11.7129316329956,357.000052442551,359.100835790634,2.1007833480835,359.250891437531,0.733606338500977,359.985471954346,1,left,0.722880840301514,359.984497776032,604.475674381256,607.235674381256,1622128641.27434,1622128641.27607,1622128652.99537,1622128652.99793,1622128655.09616,1622128655.24621,1622128655.24799,1622128655.98079,1622128655.97982,1622128900.471,1
25,4,1,3,20,2,4,c4_HowHand,1,reaching?,110,H_364.jpg,1622128293.23532,1622128293.24724,345.279014339447,11.7129316329956,357.000052442551,359.100835790634,0.3,360.301283111572,0.666914939880371,360.969656934738,1,left,0.6523277759552,360.968198051453,604.475674381256,607.235674381256,1622128641.27434,1622128641.27607,1622128652.99537,1622128652.99793,1622128655.09616,1622128656.29661,1622128656.29807,1622128656.96498,1622128656.96352,1622128900.471,1
25,4,1,3,20,3,4,c4_HowHand,2,reaching?,108,H_532.jpg,1622128293.23532,1622128293.24724,345.279014339447,11.7129316329956,357.000052442551,359.100835790634,0.3,361.284982910156,0.883663415908813,362.169948091507,3,right,0.863691091537476,362.168646326065,604.475674381256,607.235674381256,1622128641.27434,1622128641.27607,1622128652.99537,1622128652.99793,1622128655.09616,1622128657.2803,1622128657.28203,1622128658.16527,1622128658.16397,1622128900.471,0
25,4,1,3,20,4,4,c4_HowHand,1,reaching?,106,H_006.jpg,1622128293.23532,1622128293.24724,345.279014339447,11.7129316329956,357.000052442551,359.100835790634,0.3,362.485431184769,0.750279426574707,363.237143030167,1,left,0.729106187820435,363.235710611343,604.475674381256,607.235674381256,1622128641.27434,1622128641.27607,1622128652.99537,1622128652.99793,1622128655.09616,1622128658.48075,1622128658.48241,1622128659.23247,1622128659.23103,1622128900.471,1
25,4,1,3,20,5,4,c4_HowHand,2,reaching?,105,H_438.jpg,1622128293.23532,1622128293.24724,345.279014339447,11.7129316329956,357.000052442551,359.100835790634,0.3,363.552495708466,0.950354099273682,364.504549016953,3,right,0.929199934005737,364.502849807739,604.475674381256,607.235674381256,1622128641.27434,1622128641.27607,1622128652.99537,1622128652.99793,1622128655.09616,1622128659.54782,1622128659.5496,1622128660.49987,1622128660.49817,1622128900.471,0
25,4,1,3,20,6,4,c4_HowHand,1,reaching?,107,H_007.jpg,1622128293.23532,1622128293.24724,345.279014339447,11.7129316329956,357.000052442551,359.100835790634,0.3,364.819634428024,1.16710233688354,365.987726917267,1,left,1.15586590766907,365.986736764908,604.475674381256,607.235674381256,1622128641.27434,1622128641.27607,1622128652.99537,1622128652.99793,1622128655.09616,1622128660.81496,1622128660.81659,1622128661.98305,1622128661.98206,1622128900.471,1
25,4,1,3,20,7,4,c4_HowHand,1,reaching?,109,H_474.jpg,1622128293.23532,1622128293.24724,345.279014339447,11.7129316329956,357.000052442551,359.100835790634,0.3,366.303520908356,0.816971063613892,367.135857095718,1,left,0.810557842254639,367.12049197197,604.475674381256,607.235674381256,1622128641.27434,1622128641.27607,1622128652.99537,1622128652.99793,1622128655.09616,1622128662.29884,1622128662.30023,1622128663.13118,1622128663.11581,1622128900.471,1
25,4,1,3,20,8,4,c4_HowHand,2,reaching?,112,H_132.jpg,1622128293.23532,1622128293.24724,345.279014339447,11.7129316329956,357.000052442551,359.100835790634,0.3,367.437276830673,0.933681726455688,368.372553100586,3,right,0.911016941070557,368.370958557129,604.475674381256,607.235674381256,1622128641.27434,1622128641.27607,1622128652.99537,1622128652.99793,1622128655.09616,1622128663.4326,1622128663.43433,1622128664.36788,1622128664.36628,1622128900.471,0
25,4,1,3,21,1,3,c3_HowFace,1,open mouth?,73,F_403.jpg,1622128293.23532,1622128293.24724,368.454323759079,6.37760615348816,374.840037813187,376.940821399689,2.10078358650208,377.090877285004,0.550205230712891,377.652039995193,1,left,0.52706503868103,377.641082515717,604.475674381256,607.235674381256,1622128664.44965,1622128664.45163,1622128670.83536,1622128670.84815,1622128672.93614,1622128673.0862,1622128673.09773,1622128673.64736,1622128673.6364,1622128900.471,1
25,4,1,3,21,2,3,c3_HowFace,2,open mouth?,79,F_648.jpg,1622128293.23532,1622128293.24724,368.454323759079,6.37760615348816,374.840037813187,376.940821399689,0.3,377.957866659164,0.766953468322754,378.726612081528,3,right,0.743712902069092,378.724820127487,604.475674381256,607.235674381256,1622128664.44965,1622128664.45163,1622128670.83536,1622128670.84815,1622128672.93614,1622128673.95319,1622128673.95497,1622128674.72193,1622128674.72014,1622128900.471,0
25,4,1,3,21,3,3,c3_HowFace,1,open mouth?,74,F_776.jpg,1622128293.23532,1622128293.24724,368.454323759079,6.37760615348816,374.840037813187,376.940821399689,0.3,379.041605224609,0.650242328643799,379.702276935577,1,left,0.642090082168579,379.691847553253,604.475674381256,607.235674381256,1622128664.44965,1622128664.45163,1622128670.83536,1622128670.84815,1622128672.93614,1622128675.03693,1622128675.03844,1622128675.6976,1622128675.68717,1622128900.471,1
25,4,1,3,21,4,3,c3_HowFace,2,open mouth?,77,F_584.jpg,1622128293.23532,1622128293.24724,368.454323759079,6.37760615348816,374.840037813187,376.940821399689,0.3,380.00863193512,0.68358850479126,380.702306976318,3,right,0.672720909118652,380.692220439911,604.475674381256,607.235674381256,1622128664.44965,1622128664.45163,1622128670.83536,1622128670.84815,1622128672.93614,1622128676.00395,1622128676.00571,1622128676.69763,1622128676.68754,1622128900.471,0
25,4,1,3,21,5,3,c3_HowFace,1,open mouth?,80,F_844.jpg,1622128293.23532,1622128293.24724,368.454323759079,6.37760615348816,374.840037813187,376.940821399689,0.3,381.009005775452,0.61689567565918,381.635546913147,1,left,0.608552932739258,381.625901451111,604.475674381256,607.235674381256,1622128664.44965,1622128664.45163,1622128670.83536,1622128670.84815,1622128672.93614,1622128677.00433,1622128677.00596,1622128677.63087,1622128677.62122,1622128900.471,1
25,4,1,3,21,6,3,c3_HowFace,1,open mouth?,78,F_692.jpg,1622128293.23532,1622128293.24724,368.454323759079,6.37760615348816,374.840037813187,376.940821399689,0.3,381.942686309814,0.633569717407227,382.585601081848,1,left,0.618360042572021,382.576256027222,604.475674381256,607.235674381256,1622128664.44965,1622128664.45163,1622128670.83536,1622128670.84815,1622128672.93614,1622128677.93801,1622128677.94014,1622128678.58092,1622128678.57158,1622128900.471,1
25,4,1,3,21,7,3,c3_HowFace,1,open mouth?,75,F_086.jpg,1622128293.23532,1622128293.24724,368.454323759079,6.37760615348816,374.840037813187,376.940821399689,0.3,382.893041124344,0.566877603530884,383.469032039642,1,left,0.55974006652832,383.459918727875,604.475674381256,607.235674381256,1622128664.44965,1622128664.45163,1622128670.83536,1622128670.84815,1622128672.93614,1622128678.88836,1622128678.88993,1622128679.46435,1622128679.45524,1622128900.471,1
25,4,1,3,21,8,3,c3_HowFace,2,open mouth?,76,F_544.jpg,1622128293.23532,1622128293.24724,368.454323759079,6.37760615348816,374.840037813187,376.940821399689,0.3,383.776704540253,0.816970586776733,384.594749917984,3,right,0.79621696472168,384.593675127029,604.475674381256,607.235674381256,1622128664.44965,1622128664.45163,1622128670.83536,1622128670.84815,1622128672.93614,1622128679.77203,1622128679.77373,1622128680.59007,1622128680.589,1622128900.471,0
25,4,1,3,22,1,1,c1_WhyFace,1,argument?,42,F_403.jpg,1622128293.23532,1622128293.24724,384.66036652565,8.84753346443176,393.513668289185,395.614450922012,2.10078263282776,395.764508714676,0.833643436431885,396.602493038177,1,left,0.820050001144409,396.598152151108,604.475674381256,607.235674381256,1622128680.65569,1622128680.66461,1622128689.50899,1622128689.51471,1622128691.60977,1622128691.75983,1622128691.76479,1622128692.59782,1622128692.59347,1622128900.471,1
25,4,1,3,22,2,1,c1_WhyFace,2,argument?,46,F_844.jpg,1622128293.23532,1622128293.24724,384.66036652565,8.84753346443176,393.513668289185,395.614450922012,0.3,396.914937725067,0.816970348358154,397.735428085327,3,right,0.796638965606689,397.731908073425,604.475674381256,607.235674381256,1622128680.65569,1622128680.66461,1622128689.50899,1622128689.51471,1622128691.60977,1622128692.91026,1622128692.91461,1622128693.73075,1622128693.72723,1622128900.471,0
25,4,1,3,22,3,1,c1_WhyFace,1,argument?,41,F_712.jpg,1622128293.23532,1622128293.24724,384.66036652565,8.84753346443176,393.513668289185,395.614450922012,0.3,398.048693170547,0.7669517993927,398.819027891159,1,left,0.756636142730713,398.81564496994,604.475674381256,607.235674381256,1622128680.65569,1622128680.66461,1622128689.50899,1622128689.51471,1622128691.60977,1622128694.04402,1622128694.04827,1622128694.81435,1622128694.81097,1622128900.471,1
25,4,1,3,22,4,1,c1_WhyFace,1,argument?,48,F_758.jpg,1622128293.23532,1622128293.24724,384.66036652565,8.84753346443176,393.513668289185,395.614450922012,0.3,399.132430067062,0.750280141830444,399.885278930664,1,left,0.73212194442749,399.882710208893,604.475674381256,607.235674381256,1622128680.65569,1622128680.66461,1622128689.50899,1622128689.51471,1622128691.60977,1622128695.12775,1622128695.13115,1622128695.8806,1622128695.87803,1622128900.471,1
25,4,1,3,22,5,1,c1_WhyFace,2,argument?,45,F_433.jpg,1622128293.23532,1622128293.24724,384.66036652565,8.84753346443176,393.513668289185,395.614450922012,0.3,400.199495782852,0.933681488037109,401.135773887634,3,right,0.917232990264893,401.133177270889,604.475674381256,607.235674381256,1622128680.65569,1622128680.66461,1622128689.50899,1622128689.51471,1622128691.60977,1622128696.19482,1622128696.19797,1622128697.1311,1622128697.1285,1622128900.471,0
25,4,1,3,22,6,1,c1_WhyFace,1,argument?,43,F_716.jpg,1622128293.23532,1622128293.24724,384.66036652565,8.84753346443176,393.513668289185,395.614450922012,0.3,401.4499609375,1.00037360191345,402.452469100952,1,left,0.984178066253662,402.450334539413,604.475674381256,607.235674381256,1622128680.65569,1622128680.66461,1622128689.50899,1622128689.51471,1622128691.60977,1622128697.44528,1622128697.44793,1622128698.44779,1622128698.44566,1622128900.471,1
25,4,1,3,22,7,1,c1_WhyFace,2,argument?,44,F_139.jpg,1622128293.23532,1622128293.24724,384.66036652565,8.84753346443176,393.513668289185,395.614450922012,0.3,402.767119398117,0.833643436431885,403.602302064896,3,right,0.822633981704712,403.600762834549,604.475674381256,607.235674381256,1622128680.65569,1622128680.66461,1622128689.50899,1622128689.51471,1622128691.60977,1622128698.76244,1622128698.7648,1622128699.59762,1622128699.59608,1622128900.471,0
25,4,1,3,22,8,1,c1_WhyFace,1,argument?,47,F_743.jpg,1622128293.23532,1622128293.24724,384.66036652565,8.84753346443176,393.513668289185,395.614450922012,0.3,403.917547454834,0.800299644470215,404.719254007339,1,left,0.78907299041748,404.717847099304,604.475674381256,607.235674381256,1622128680.65569,1622128680.66461,1622128689.50899,1622128689.51471,1622128691.60977,1622128699.91287,1622128699.91445,1622128700.71458,1622128700.71317,1622128900.471,1
25,4,1,3,23,1,2,c2_WhyHand,1,helping?,39,H_024.jpg,1622128293.23532,1622128293.24724,404.801211109161,6.92671179771423,411.737131586075,413.837915172577,2.10078358650208,413.987970104218,1.20044779777527,415.189987888336,3,right,1.18370819091797,415.188417901993,604.475674381256,607.235674381256,1622128700.79653,1622128700.79817,1622128707.73245,1622128707.73389,1622128709.83324,1622128709.98329,1622128709.98515,1622128711.18531,1622128711.18374,1622128900.471,0
25,4,1,3,23,2,2,c2_WhyHand,1,helping?,36,H_349.jpg,1622128293.23532,1622128293.24724,404.801211109161,6.92671179771423,411.737131586075,413.837915172577,0.3,415.505203475952,0.733605623245239,416.240221014023,1,left,0.711431980133057,416.238809099197,604.475674381256,607.235674381256,1622128700.79653,1622128700.79817,1622128707.73245,1622128707.73389,1622128709.83324,1622128711.50053,1622128711.50212,1622128712.23554,1622128712.23413,1622128900.471,1
25,4,1,3,23,3,2,c2_WhyHand,1,helping?,38,H_077.jpg,1622128293.23532,1622128293.24724,404.801211109161,6.92671179771423,411.737131586075,413.837915172577,0.3,416.555594434738,0.933681964874268,417.490319957733,1,left,0.91876220703125,417.489276399612,604.475674381256,607.235674381256,1622128700.79653,1622128700.79817,1622128707.73245,1622128707.73389,1622128709.83324,1622128712.55092,1622128712.55293,1622128713.48564,1622128713.4846,1622128900.471,1
25,4,1,3,23,4,2,c2_WhyHand,1,helping?,37,H_474.jpg,1622128293.23532,1622128293.24724,404.801211109161,6.92671179771423,411.737131586075,413.837915172577,0.3,417.806061019897,0.0166738033294678,417.824505081177,1,left,0.000249862670898438,417.822734823227,604.475674381256,607.235674381256,1622128700.79653,1622128700.79817,1622128707.73245,1622128707.73389,1622128709.83324,1622128713.80138,1622128713.80294,1622128713.81983,1622128713.81806,1622128900.471,1
25,4,1,3,23,5,2,c2_WhyHand,2,helping?,33,H_091.jpg,1622128293.23532,1622128293.24724,404.801211109161,6.92671179771423,411.737131586075,413.837915172577,0.3,418.139519443512,1.60059499740601,419.74137591362,3,right,1.58363008499146,419.740114440918,604.475674381256,607.235674381256,1622128700.79653,1622128700.79817,1622128707.73245,1622128707.73389,1622128709.83324,1622128714.13484,1622128714.13691,1622128715.7367,1622128715.73544,1622128900.471,0
25,4,1,3,23,6,2,c2_WhyHand,2,helping?,35,H_159.jpg,1622128293.23532,1622128293.24724,404.801211109161,6.92671179771423,411.737131586075,413.837915172577,0.3,420.056900253296,1.5672504901886,421.635880937576,3,right,1.55777788162231,421.624150743485,604.475674381256,607.235674381256,1622128700.79653,1622128700.79817,1622128707.73245,1622128707.73389,1622128709.83324,1622128716.05222,1622128716.05373,1622128717.6312,1622128717.61947,1622128900.471,0
25,4,1,3,23,7,2,c2_WhyHand,1,helping?,34,H_111.jpg,1622128293.23532,1622128293.24724,404.801211109161,6.92671179771423,411.737131586075,413.837915172577,0.3,421.940936317444,0.733607292175293,422.676229944229,1,left,0.711019039154053,422.674543609619,604.475674381256,607.235674381256,1622128700.79653,1622128700.79817,1622128707.73245,1622128707.73389,1622128709.83324,1622128717.93626,1622128717.93795,1622128718.67155,1622128718.66987,1622128900.471,1
25,4,1,3,23,8,2,c2_WhyHand,2,helping?,40,H_012.jpg,1622128293.23532,1622128293.24724,404.801211109161,6.92671179771423,411.737131586075,413.837915172577,0.3,422.991328468323,1.03371858596802,424.026075115204,3,right,1.01758599281311,424.025047054291,604.475674381256,607.235674381256,1622128700.79653,1622128700.79817,1622128707.73245,1622128707.73389,1622128709.83324,1622128718.98665,1622128718.98869,1622128720.0214,1622128720.02037,1622128900.471,0
25,4,1,3,24,1,4,c4_HowHand,1,both hands?,122,H_111.jpg,1622128293.23532,1622128293.24724,424.108411302567,5.68951463699341,429.810537567139,431.911321153641,2.10078358650208,432.061377277374,0.783624410629272,432.85244392395,1,left,0.767115116119385,432.845001688004,604.475674381256,607.235674381256,1622128720.10373,1622128720.10561,1622128725.80586,1622128725.81476,1622128727.90664,1622128728.0567,1622128728.05861,1622128728.84777,1622128728.84032,1622128900.471,1
25,4,1,3,24,2,4,c4_HowHand,1,both hands?,128,H_027.jpg,1622128293.23532,1622128293.24724,424.108411302567,5.68951463699341,429.810537567139,431.911321153641,0.3,433.161787261963,0.716933965682983,433.88527797699,1,left,0.700374126434326,433.878721227646,604.475674381256,607.235674381256,1622128720.10373,1622128720.10561,1622128725.80586,1622128725.81476,1622128727.90664,1622128729.15711,1622128729.15875,1622128729.8806,1622128729.87404,1622128900.471,1
25,4,1,3,24,3,4,c4_HowHand,2,both hands?,121,H_091.jpg,1622128293.23532,1622128293.24724,424.108411302567,5.68951463699341,429.810537567139,431.911321153641,0.3,434.195506801605,0.733606576919556,434.930835952759,3,right,0.714937925338745,434.929113378525,604.475674381256,607.235674381256,1622128720.10373,1622128720.10561,1622128725.80586,1622128725.81476,1622128727.90664,1622128730.19083,1622128730.19278,1622128730.92616,1622128730.92444,1622128900.471,0
25,4,1,3,24,4,4,c4_HowHand,1,both hands?,123,H_167.jpg,1622128293.23532,1622128293.24724,424.108411302567,5.68951463699341,429.810537567139,431.911321153641,0.3,435.245898237228,0.78362512588501,436.036005964279,1,left,0.768465995788574,436.029523363113,604.475674381256,607.235674381256,1622128720.10373,1622128720.10561,1622128725.80586,1622128725.81476,1622128727.90664,1622128731.24122,1622128731.24285,1622128732.03133,1622128732.02485,1622128900.471,1
25,4,1,3,24,5,4,c4_HowHand,1,both hands?,124,H_581.jpg,1622128293.23532,1622128293.24724,424.108411302567,5.68951463699341,429.810537567139,431.911321153641,0.3,436.346307983398,0.866990089416504,437.218487014771,1,left,0.859688997268677,437.213298072815,604.475674381256,607.235674381256,1622128720.10373,1622128720.10561,1622128725.80586,1622128725.81476,1622128727.90664,1622128732.34163,1622128732.34331,1622128733.21381,1622128733.20862,1622128900.471,1
25,4,1,3,24,6,4,c4_HowHand,2,both hands?,126,H_159.jpg,1622128293.23532,1622128293.24724,424.108411302567,5.68951463699341,429.810537567139,431.911321153641,0.3,437.530083646774,0.766952753067017,438.3019161129,3,right,0.748602867126465,438.297036399841,604.475674381256,607.235674381256,1622128720.10373,1622128720.10561,1622128725.80586,1622128725.81476,1622128727.90664,1622128733.52541,1622128733.52701,1622128734.29724,1622128734.29236,1622128900.471,0
25,4,1,3,24,7,4,c4_HowHand,1,both hands?,127,H_349.jpg,1622128293.23532,1622128293.24724,424.108411302567,5.68951463699341,429.810537567139,431.911321153641,0.3,438.613820066452,0.733606815338135,439.352572908401,1,left,0.713631868362427,439.34742688179,604.475674381256,607.235674381256,1622128720.10373,1622128720.10561,1622128725.80586,1622128725.81476,1622128727.90664,1622128734.60914,1622128734.61075,1622128735.34789,1622128735.34275,1622128900.471,1
25,4,1,3,24,8,4,c4_HowHand,2,both hands?,125,H_627.jpg,1622128293.23532,1622128293.24724,424.108411302567,5.68951463699341,429.810537567139,431.911321153641,0.3,439.664211740494,0.716934442520142,440.385250082016,3,right,0.706645011901855,440.381146183014,604.475674381256,607.235674381256,1622128720.10373,1622128720.10561,1622128725.80586,1622128725.81476,1622128727.90664,1622128735.65953,1622128735.66122,1622128736.38057,1622128736.37647,1622128900.471,0
25,4,1,3,25,1,2,c2_WhyHand,1,healthy?,18,H_438.jpg,1622128293.23532,1622128293.24724,440.464511384964,6.85057258605957,447.333739271164,449.417849292755,2.08411002159119,449.567906370163,1.05039095878601,450.619223108292,1,left,1.02399110794067,450.618297328949,604.475674381256,607.235674381256,1622128736.45983,1622128736.46429,1622128743.32906,1622128743.33133,1622128745.41317,1622128745.56323,1622128745.58149,1622128746.61455,1622128746.61362,1622128900.471,1
25,4,1,3,25,2,2,c2_WhyHand,1,healthy?,23,H_364.jpg,1622128293.23532,1622128293.24724,440.464511384964,6.85057258605957,447.333739271164,449.417849292755,0.3,450.935082426071,0.833643436431885,451.770100107193,1,left,0.819149017333984,451.768725862503,604.475674381256,607.235674381256,1622128736.45983,1622128736.46429,1622128743.32906,1622128743.33133,1622128745.41317,1622128746.9304,1622128746.93222,1622128747.76542,1622128747.76405,1622128900.471,1
25,4,1,3,25,3,2,c2_WhyHand,1,healthy?,17,H_362.jpg,1622128293.23532,1622128293.24724,440.464511384964,6.85057258605957,447.333739271164,449.417849292755,0.3,452.085511436462,0.700260400772095,452.787372102737,1,left,0.683336019515991,452.785771837235,604.475674381256,607.235674381256,1622128736.45983,1622128736.46429,1622128743.32906,1622128743.33133,1622128745.41317,1622128748.08083,1622128748.08244,1622128748.78269,1622128748.78109,1622128900.471,1
25,4,1,3,25,4,2,c2_WhyHand,2,healthy?,24,H_019.jpg,1622128293.23532,1622128293.24724,440.464511384964,6.85057258605957,447.333739271164,449.417849292755,0.3,453.102556695938,0.83364462852478,453.937170972824,3,right,0.823124170303345,453.936201324463,604.475674381256,607.235674381256,1622128736.45983,1622128736.46429,1622128743.32906,1622128743.33133,1622128745.41317,1622128749.09788,1622128749.09973,1622128749.93249,1622128749.93152,1622128900.471,0
25,4,1,3,25,5,2,c2_WhyHand,1,healthy?,19,H_167.jpg,1622128293.23532,1622128293.24724,440.464511384964,6.85057258605957,447.333739271164,449.417849292755,0.3,454.252986660004,0.633569478988647,454.887699117661,1,left,0.615478038787842,454.886556138992,604.475674381256,607.235674381256,1622128736.45983,1622128736.46429,1622128743.32906,1622128743.33133,1622128745.41317,1622128750.24831,1622128750.25005,1622128750.88302,1622128750.88188,1622128900.471,1
25,4,1,3,25,6,2,c2_WhyHand,2,healthy?,20,H_007.jpg,1622128293.23532,1622128293.24724,440.464511384964,6.85057258605957,447.333739271164,449.417849292755,0.3,455.20334028244,0.733607053756714,455.938648929596,3,right,0.722945928573608,455.936947336197,604.475674381256,607.235674381256,1622128736.45983,1622128736.46429,1622128743.32906,1622128743.33133,1622128745.41317,1622128751.19866,1622128751.20041,1622128751.93397,1622128751.93227,1622128900.471,0
25,4,1,3,25,7,2,c2_WhyHand,1,healthy?,21,H_627.jpg,1622128293.23532,1622128293.24724,440.464511384964,6.85057258605957,447.333739271164,449.417849292755,0.3,456.253732194901,1.05039238929749,457.305853118896,1,left,1.03066992759705,457.304124584198,604.475674381256,607.235674381256,1622128736.45983,1622128736.46429,1622128743.32906,1622128743.33133,1622128745.41317,1622128752.24905,1622128752.25102,1622128753.30118,1622128753.29945,1622128900.471,1
25,4,1,3,25,8,2,c2_WhyHand,2,healthy?,22,H_130.jpg,1622128293.23532,1622128293.24724,440.464511384964,6.85057258605957,447.333739271164,449.417849292755,0.3,457.620908250809,0.833644390106201,458.455692043304,3,right,0.812807083129883,458.454552640915,604.475674381256,607.235674381256,1622128736.45983,1622128736.46429,1622128743.32906,1622128743.33133,1622128745.41317,1622128753.61623,1622128753.61795,1622128754.45101,1622128754.44987,1622128900.471,0
25,4,1,3,26,1,4,c4_HowHand,1,pressing button?,82,H_126.jpg,1622128293.23532,1622128293.24724,458.537917366028,7.83112764358521,466.37417339325,468.474956741333,2.1007833480835,468.625011672974,0.700260877609253,469.326337089539,1,left,0.671171188354492,469.325272550583,604.475674381256,607.235674381256,1622128754.53324,1622128754.53482,1622128762.3695,1622128762.38146,1622128764.47028,1622128764.62033,1622128764.63172,1622128765.32166,1622128765.32059,1622128900.471,1
25,4,1,3,26,2,4,c4_HowHand,2,pressing button?,85,H_130.jpg,1622128293.23532,1622128293.24724,458.537917366028,7.83112764358521,466.37417339325,468.474956741333,0.3,469.642057886124,0.666915655136108,470.310024967194,3,right,0.646013975143433,470.30897354126,604.475674381256,607.235674381256,1622128754.53324,1622128754.53482,1622128762.3695,1622128762.38146,1622128764.47028,1622128765.63738,1622128765.63917,1622128766.30535,1622128766.3043,1622128900.471,0
25,4,1,3,26,3,4,c4_HowHand,1,pressing button?,84,H_483.jpg,1622128293.23532,1622128293.24724,458.537917366028,7.83112764358521,466.37417339325,468.474956741333,0.3,470.625758399963,0.783626079559326,471.418534984589,1,left,0.775634050369263,471.409384479523,604.475674381256,607.235674381256,1622128754.53324,1622128754.53482,1622128762.3695,1622128762.38146,1622128764.47028,1622128766.62108,1622128766.62262,1622128767.41386,1622128767.40471,1622128900.471,1
25,4,1,3,26,4,4,c4_HowHand,2,pressing button?,87,H_024.jpg,1622128293.23532,1622128293.24724,458.537917366028,7.83112764358521,466.37417339325,468.474956741333,0.3,471.726168384552,0.733607769012451,472.468579998016,3,right,0.717785120010376,472.459776153564,604.475674381256,607.235674381256,1622128754.53324,1622128754.53482,1622128762.3695,1622128762.38146,1622128764.47028,1622128767.72149,1622128767.72314,1622128768.4639,1622128768.4551,1622128900.471,0
25,4,1,3,26,5,4,c4_HowHand,1,pressing button?,86,H_332.jpg,1622128293.23532,1622128293.24724,458.537917366028,7.83112764358521,466.37417339325,468.474956741333,0.3,472.776560058594,0.86699104309082,473.651931991577,1,left,0.857946872711182,473.643551101685,604.475674381256,607.235674381256,1622128754.53324,1622128754.53482,1622128762.3695,1622128762.38146,1622128764.47028,1622128768.77188,1622128768.77345,1622128769.64725,1622128769.63887,1622128900.471,1
25,4,1,3,26,6,4,c4_HowHand,1,pressing button?,88,H_019.jpg,1622128293.23532,1622128293.24724,458.537917366028,7.83112764358521,466.37417339325,468.474956741333,0.3,473.960334768295,0.583551168441772,474.544979085922,1,left,0.561301946640015,474.543885936737,604.475674381256,607.235674381256,1622128754.53324,1622128754.53482,1622128762.3695,1622128762.38146,1622128764.47028,1622128769.95566,1622128769.95736,1622128770.5403,1622128770.53921,1622128900.471,1
25,4,1,3,26,7,4,c4_HowHand,2,pressing button?,81,H_261.jpg,1622128293.23532,1622128293.24724,458.537917366028,7.83112764358521,466.37417339325,468.474956741333,0.3,474.860670795441,0.900336503982544,475.7621118927,3,right,0.877892017364502,475.761007299423,604.475674381256,607.235674381256,1622128754.53324,1622128754.53482,1622128762.3695,1622128762.38146,1622128764.47028,1622128770.85599,1622128770.85774,1622128771.75743,1622128771.75633,1622128900.471,0
25,4,1,3,26,8,4,c4_HowHand,1,pressing button?,83,H_502.jpg,1622128293.23532,1622128293.24724,458.537917366028,7.83112764358521,466.37417339325,468.474956741333,0.3,476.07779168129,0.583550453186035,476.668560972214,1,left,0.576128005981445,476.661342134476,604.475674381256,607.235674381256,1622128754.53324,1622128754.53482,1622128762.3695,1622128762.38146,1622128764.47028,1622128772.07311,1622128772.07492,1622128772.66388,1622128772.65666,1622128900.471,1
25,4,1,3,27,1,3,c3_HowFace,1,looking at camera?,60,F_618.jpg,1622128293.23532,1622128293.24724,476.744707574844,7.15424633026123,483.914047470093,486.014831295013,2.10078382492065,486.16488694191,0.783625841140747,486.952030887604,1,left,0.761480093002319,486.948512783051,604.475674381256,607.235674381256,1622128772.74003,1622128772.74774,1622128779.90937,1622128779.91484,1622128782.01015,1622128782.16021,1622128782.16514,1622128782.94735,1622128782.94383,1622128900.471,1
25,4,1,3,27,2,3,c3_HowFace,2,looking at camera?,58,F_754.jpg,1622128293.23532,1622128293.24724,476.744707574844,7.15424633026123,483.914047470093,486.014831295013,0.3,487.26529835701,0.766953229904175,488.035603990555,3,right,0.747853994369507,488.032251586914,604.475674381256,607.235674381256,1622128772.74003,1622128772.74774,1622128779.90937,1622128779.91484,1622128782.01015,1622128783.26062,1622128783.2647,1622128784.03093,1622128784.02757,1622128900.471,0
25,4,1,3,27,3,3,c3_HowFace,1,looking at camera?,59,F_129.jpg,1622128293.23532,1622128293.24724,476.744707574844,7.15424633026123,483.914047470093,486.014831295013,0.3,488.349035015106,0.600223064422607,488.951934089661,1,left,0.58820104598999,488.949258079529,604.475674381256,607.235674381256,1622128772.74003,1622128772.74774,1622128779.90937,1622128779.91484,1622128782.01015,1622128784.34436,1622128784.3478,1622128784.94726,1622128784.94458,1622128900.471,1
25,4,1,3,27,4,3,c3_HowFace,1,looking at camera?,62,F_598.jpg,1622128293.23532,1622128293.24724,476.744707574844,7.15424633026123,483.914047470093,486.014831295013,0.3,489.266042699814,0.83364462852478,490.102529039383,1,left,0.813111066818237,490.099687328339,604.475674381256,607.235674381256,1622128772.74003,1622128772.74774,1622128779.90937,1622128779.91484,1622128782.01015,1622128785.26136,1622128785.2644,1622128786.09785,1622128786.09501,1622128900.471,1
25,4,1,3,27,5,3,c3_HowFace,1,looking at camera?,64,F_128.jpg,1622128293.23532,1622128293.24724,476.744707574844,7.15424633026123,483.914047470093,486.014831295013,0.3,490.416472425461,0.633569002151489,491.052330961227,1,left,0.614021062850952,491.050041427612,604.475674381256,607.235674381256,1622128772.74003,1622128772.74774,1622128779.90937,1622128779.91484,1622128782.01015,1622128786.41179,1622128786.41436,1622128787.04765,1622128787.04536,1622128900.471,1
25,4,1,3,27,6,3,c3_HowFace,2,looking at camera?,57,F_582.jpg,1622128293.23532,1622128293.24724,476.744707574844,7.15424633026123,483.914047470093,486.014831295013,0.3,491.36682723999,1.16710138320923,492.535618057251,3,right,1.15753602981567,492.533928623199,604.475674381256,607.235674381256,1622128772.74003,1622128772.74774,1622128779.90937,1622128779.91484,1622128782.01015,1622128787.36215,1622128787.36488,1622128788.53094,1622128788.52925,1622128900.471,0
25,4,1,3,27,7,3,c3_HowFace,1,looking at camera?,61,F_774.jpg,1622128293.23532,1622128293.24724,476.744707574844,7.15424633026123,483.914047470093,486.014831295013,0.3,492.850713005066,0.616897106170654,493.46900891304,1,left,0.604701042175293,493.467610111237,604.475674381256,607.235674381256,1622128772.74003,1622128772.74774,1622128779.90937,1622128779.91484,1622128782.01015,1622128788.84604,1622128788.84788,1622128789.46433,1622128789.46293,1622128900.471,1
25,4,1,3,27,8,3,c3_HowFace,2,looking at camera?,63,F_743.jpg,1622128293.23532,1622128293.24724,476.744707574844,7.15424633026123,483.914047470093,486.014831295013,0.3,493.784394493103,1.10041069984436,494.886092891693,3,right,1.08572483062744,494.884805192947,604.475674381256,607.235674381256,1622128772.74003,1622128772.74774,1622128779.90937,1622128779.91484,1622128782.01015,1622128789.77972,1622128789.78127,1622128790.88141,1622128790.88013,1622128900.471,0
