src_subject_id,session_id,run_id,param_counterbalance_ver,param_block_num,param_trial_num,param_cond_type_num,param_cond_type_string,param_normative_response,param_ques_type_string,param_image_num,param_image_filename,param_trigger_onset,param_start_biopac,event01_fixation,event01_fixation_dur,event01_blockquestion_onset,event01_block_isi_blacksreen,event01_blockquestion_dur,event02_image_onset,event02_image_dur,event03_response_onset,event03_response_key,event03_response_keyname,event03_RT,event04_shortquestion_onset,param_end_instruct_onset,param_experiment_duration,RAW_e1_fixation,RAW_e1_fixation_biopac,RAW_e1_blockquestion_onset,RAW_e1_blockquestion_onset_biopac,RAW_e1_block_isi_blacksreen,RAW_e2_image_onset,RAW_e2_image_onset_biopac,RAW_e3_response_onset,RAW_e4_shortquestion_onset,RAW_param_end_instruct_onset,accuracy
33,4,1,3,1,1,4,c4_HowHand,1,reaching?,107,H_007.jpg,1627568687.55513,1627568687.5694,0.0563225650787351,0.0433144569396973,0.106341114044189,2.10708998680115,2.00074887275696,2.2738191986084,1.20044898986816,3.4862911605835,1,left,1.16474103927612,3.47426818847656,604.482462873459,607.242462873459,1627568690.37145,1627568690.37708,1627568690.42147,1627568690.43408,1627568692.42222,1627568692.58895,1627568692.5917,1627568693.80142,1627568693.7894,1627569294.79759,1
33,4,1,3,1,2,4,c4_HowHand,2,reaching?,108,H_532.jpg,1627568687.55513,1627568687.5694,0.0563225650787351,0.0433144569396973,0.106341114044189,2.10708998680115,0.3,3.79105257034302,0.950356245040894,4.74464415550232,3,right,0.927953958511353,4.74140881538391,604.482462873459,607.242462873459,1627568690.37145,1627568690.37708,1627568690.42147,1627568690.43408,1627568692.42222,1627568694.10618,1627568694.10903,1627568695.05977,1627568695.05654,1627569294.79759,0
33,4,1,3,1,3,4,c4_HowHand,1,reaching?,109,H_474.jpg,1627568687.55513,1627568687.5694,0.0563225650787351,0.0433144569396973,0.106341114044189,2.10708998680115,0.3,5.05819367408752,1.03372025489807,6.09491418838501,1,left,1.01193904876709,6.0919139289856,604.482462873459,607.242462873459,1627568690.37145,1627568690.37708,1627568690.42147,1627568690.43408,1627568692.42222,1627568695.37332,1627568695.3757,1627568696.41004,1627568696.40704,1627569294.79759,1
33,4,1,3,1,4,4,c4_HowHand,2,reaching?,105,H_438.jpg,1627568687.55513,1627568687.5694,0.0563225650787351,0.0433144569396973,0.106341114044189,2.10708998680115,0.3,6.40869926452637,0.900336742401123,7.31192897796631,3,right,0.875638961791992,7.30903600692749,604.482462873459,607.242462873459,1627568690.37145,1627568690.37708,1627568690.42147,1627568690.43408,1627568692.42222,1627568696.72383,1627568696.72602,1627568697.62706,1627568697.62416,1627569294.79759,0
33,4,1,3,1,5,4,c4_HowHand,1,reaching?,110,H_364.jpg,1627568687.55513,1627568687.5694,0.0563225650787351,0.0433144569396973,0.106341114044189,2.10708998680115,0.3,7.62582134246826,0.750280380249023,8.38066815376282,1,left,0.719096899032593,8.37610172271729,604.482462873459,607.242462873459,1627568690.37145,1627568690.37708,1627568690.42147,1627568690.43408,1627568692.42222,1627568697.94095,1627568697.94437,1627568698.6958,1627568698.69123,1627569294.79759,1
33,4,1,3,1,6,4,c4_HowHand,1,reaching?,106,H_006.jpg,1627568687.55513,1627568687.5694,0.0563225650787351,0.0433144569396973,0.106341114044189,2.10708998680115,0.3,8.69288729667664,0.750279426574707,9.44531606674194,1,left,0.728415012359619,9.44316672325134,604.482462873459,607.242462873459,1627568690.37145,1627568690.37708,1627568690.42147,1627568690.43408,1627568692.42222,1627568699.00801,1627568699.01017,1627568699.76044,1627568699.75829,1627569294.79759,1
33,4,1,3,1,7,4,c4_HowHand,1,reaching?,111,H_003.jpg,1627568687.55513,1627568687.5694,0.0563225650787351,0.0433144569396973,0.106341114044189,2.10708998680115,0.3,9.75995420455933,0.950354337692261,10.7184231185913,1,left,0.938454151153564,10.7103085422516,604.482462873459,607.242462873459,1627568690.37145,1627568690.37708,1627568690.42147,1627568690.43408,1627568692.42222,1627568700.07508,1627568700.07741,1627568701.03355,1627568701.02544,1627569294.79759,1
33,4,1,3,1,8,4,c4_HowHand,2,reaching?,112,H_132.jpg,1627568687.55513,1627568687.5694,0.0563225650787351,0.0433144569396973,0.106341114044189,2.10708998680115,0.3,11.0270934009552,0.750280380249023,11.7798139953613,3,right,0.726663112640381,11.7773737812042,604.482462873459,607.242462873459,1627568690.37145,1627568690.37708,1627568690.42147,1627568690.43408,1627568692.42222,1627568701.34222,1627568701.34409,1627568702.09494,1627568702.0925,1627569294.79759,0
33,4,1,3,2,1,2,c2_WhyHand,1,healthy?,21,H_627.jpg,1627568687.55513,1627568687.5694,12.2275428676605,5.30370116233826,17.5461997890472,19.6469859981537,2.10078620910645,19.7970418834686,0.85031795501709,20.6523680591583,1,left,0.836498022079468,20.6473598384857,604.482462873459,607.242462873459,1627568702.54267,1627568702.55259,1627568707.86133,1627568707.86722,1627568709.96211,1627568710.11217,1627568710.11708,1627568710.96749,1627568710.96249,1627569294.79759,1
33,4,1,3,2,2,2,c2_WhyHand,1,healthy?,18,H_438.jpg,1627568687.55513,1627568687.5694,12.2275428676605,5.30370116233826,17.5461997890472,19.6469859981537,0.3,20.9641454124451,1.00037336349487,21.9688200855255,1,left,0.984429121017456,21.9645187759399,604.482462873459,607.242462873459,1627568702.54267,1627568702.55259,1627568707.86133,1627568707.86722,1627568709.96211,1627568711.27927,1627568711.28372,1627568712.28395,1627568712.27965,1627569294.79759,1
33,4,1,3,2,3,2,c2_WhyHand,1,healthy?,23,H_364.jpg,1627568687.55513,1627568687.5694,12.2275428676605,5.30370116233826,17.5461997890472,19.6469859981537,0.3,22.2813036346436,1.21712327003479,23.5007591152191,1,left,1.1904399394989,23.4984269046783,604.482462873459,607.242462873459,1627568702.54267,1627568702.55259,1627568707.86133,1627568707.86722,1627568709.96211,1627568712.59643,1627568712.60033,1627568713.81589,1627568713.81355,1627569294.79759,1
33,4,1,3,2,4,2,c2_WhyHand,2,healthy?,22,H_130.jpg,1627568687.55513,1627568687.5694,12.2275428676605,5.30370116233826,17.5461997890472,19.6469859981537,0.3,23.8152115249634,0.86699104309082,24.6850759887695,3,right,0.854665994644165,24.6822025680542,604.482462873459,607.242462873459,1627568702.54267,1627568702.55259,1627568707.86133,1627568707.86722,1627568709.96211,1627568714.13034,1627568714.13351,1627568715.0002,1627568714.99733,1627569294.79759,0
33,4,1,3,2,5,2,c2_WhyHand,1,healthy?,17,H_362.jpg,1627568687.55513,1627568687.5694,12.2275428676605,5.30370116233826,17.5461997890472,19.6469859981537,0.3,24.9989881420135,0.850317478179932,25.8520591163635,1,left,0.829025983810425,25.8493056201935,604.482462873459,607.242462873459,1627568702.54267,1627568702.55259,1627568707.86133,1627568707.86722,1627568709.96211,1627568715.31412,1627568715.31688,1627568716.16719,1627568716.16443,1627569294.79759,1
33,4,1,3,2,6,2,c2_WhyHand,2,healthy?,20,H_007.jpg,1627568687.55513,1627568687.5694,12.2275428676605,5.30370116233826,17.5461997890472,19.6469859981537,0.3,26.1660907173157,0.750281095504761,26.9191141033173,3,right,0.739017009735107,26.9163718128204,604.482462873459,607.242462873459,1627568702.54267,1627568702.55259,1627568707.86133,1627568707.86722,1627568709.96211,1627568716.48122,1627568716.48356,1627568717.23424,1627568717.2315,1627569294.79759,0
33,4,1,3,2,7,2,c2_WhyHand,1,healthy?,19,H_167.jpg,1627568687.55513,1627568687.5694,12.2275428676605,5.30370116233826,17.5461997890472,19.6469859981537,0.3,27.2331559562683,0.866991996765137,28.1021420860291,1,left,0.845468044281006,28.1001479530334,604.482462873459,607.242462873459,1627568702.54267,1627568702.55259,1627568707.86133,1627568707.86722,1627568709.96211,1627568717.54828,1627568717.55062,1627568718.41727,1627568718.41527,1627569294.79759,1
33,4,1,3,2,8,2,c2_WhyHand,2,healthy?,24,H_019.jpg,1627568687.55513,1627568687.5694,12.2275428676605,5.30370116233826,17.5461997890472,19.6469859981537,0.3,28.4169344806671,0.766952276229858,29.1858770751953,3,right,0.753936052322388,29.183886756897,604.482462873459,607.242462873459,1627568702.54267,1627568702.55259,1627568707.86133,1627568707.86722,1627568709.96211,1627568718.73206,1627568718.73421,1627568719.501,1627568719.49901,1627569294.79759,0
33,4,1,3,3,1,1,c1_WhyFace,1,admiring?,4,F_779.jpg,1627568687.55513,1627568687.5694,29.3339431190491,7.30524706840515,36.6533477210999,38.7541353607178,2.10078763961792,38.904190530777,0.716934442520142,39.6233260536194,1,left,0.694695949554443,39.6211249732971,604.482462873459,607.242462873459,1627568719.64907,1627568719.65286,1627568726.96847,1627568726.97054,1627568729.06926,1627568729.21932,1627568729.22144,1627568729.93845,1627568729.93625,1627569294.79759,1
33,4,1,3,3,2,1,c1_WhyFace,1,admiring?,1,F_593.jpg,1627568687.55513,1627568687.5694,29.3339431190491,7.30524706840515,36.6533477210999,38.7541353607178,0.3,39.9379112625122,0.816972017288208,40.7575020694733,1,left,0.801317930221558,40.7548832798004,604.482462873459,607.242462873459,1627568719.64907,1627568719.65286,1627568726.96847,1627568726.97054,1627568729.06926,1627568730.25304,1627568730.25521,1627568731.07263,1627568731.07001,1627569294.79759,1
33,4,1,3,3,3,1,c1_WhyFace,2,admiring?,3,F_110.jpg,1627568687.55513,1627568687.5694,29.3339431190491,7.30524706840515,36.6533477210999,38.7541353607178,0.3,41.0716679000855,0.783627510070801,41.857222070694,3,right,0.764642953872681,41.8552954101563,604.482462873459,607.242462873459,1627568719.64907,1627568719.65286,1627568726.96847,1627568726.97054,1627568729.06926,1627568731.38679,1627568731.38893,1627568732.17235,1627568732.17042,1627569294.79759,0
33,4,1,3,3,4,1,c1_WhyFace,1,admiring?,8,F_590.jpg,1627568687.55513,1627568687.5694,29.3339431190491,7.30524706840515,36.6533477210999,38.7541353607178,0.3,42.1720797920227,0.800298690795898,42.9852781200409,1,left,0.787432909011841,42.9723784828186,604.482462873459,607.242462873459,1627568719.64907,1627568719.65286,1627568726.96847,1627568726.97054,1627568729.06926,1627568732.48721,1627568732.48924,1627568733.30041,1627568733.28751,1627569294.79759,1
33,4,1,3,3,5,1,c1_WhyFace,2,admiring?,6,F_692.jpg,1627568687.55513,1627568687.5694,29.3339431190491,7.30524706840515,36.6533477210999,38.7541353607178,0.3,43.2891638183594,0.933682918548584,44.2352051639557,3,right,0.921413898468018,44.222846736908,604.482462873459,607.242462873459,1627568719.64907,1627568719.65286,1627568726.96847,1627568726.97054,1627568729.06926,1627568733.60429,1627568733.6061,1627568734.55033,1627568734.53797,1627569294.79759,0
33,4,1,3,3,6,1,c1_WhyFace,1,admiring?,5,F_759.jpg,1627568687.55513,1627568687.5694,29.3339431190491,7.30524706840515,36.6533477210999,38.7541353607178,0.3,44.5396320724487,0.783626556396484,45.3253891372681,1,left,0.760853052139282,45.3232586288452,604.482462873459,607.242462873459,1627568719.64907,1627568719.65286,1627568726.96847,1627568726.97054,1627568729.06926,1627568734.85476,1627568734.85711,1627568735.64052,1627568735.63839,1627569294.79759,1
33,4,1,3,3,7,1,c1_WhyFace,1,admiring?,7,F_648.jpg,1627568687.55513,1627568687.5694,29.3339431190491,7.30524706840515,36.6533477210999,38.7541353607178,0.3,45.6400437259674,0.86699104309082,46.5094389820099,1,left,0.84267783164978,46.5070347690582,604.482462873459,607.242462873459,1627568719.64907,1627568719.65286,1627568726.96847,1627568726.97054,1627568729.06926,1627568735.95517,1627568735.95725,1627568736.82457,1627568736.82216,1627569294.79759,1
33,4,1,3,3,8,1,c1_WhyFace,2,admiring?,2,F_129.jpg,1627568687.55513,1627568687.5694,29.3339431190491,7.30524706840515,36.6533477210999,38.7541353607178,0.3,46.8238198661804,0.783627271652222,47.6096811199188,3,right,0.761855840682983,47.6074471378326,604.482462873459,607.242462873459,1627568719.64907,1627568719.65286,1627568726.96847,1627568726.97054,1627568729.06926,1627568737.13895,1627568737.14138,1627568737.92481,1627568737.92257,1627569294.79759,0
33,4,1,3,4,1,3,c3_HowFace,1,smiling?,119,F_139.jpg,1627568687.55513,1627568687.5694,47.7241573238373,7.87913870811462,55.6104409599304,57.7112271690369,2.10078620910645,57.8612828159332,0.950356483459473,58.8187990093231,1,left,0.925234079360962,58.8116392993927,604.482462873459,607.242462873459,1627568738.03928,1627568738.05142,1627568745.92557,1627568745.93378,1627568748.02635,1627568748.17641,1627568748.18368,1627568749.13393,1627568749.12677,1627569294.79759,1
33,4,1,3,4,2,3,c3_HowFace,2,smiling?,113,F_712.jpg,1627568687.55513,1627568687.5694,47.7241573238373,7.87913870811462,55.6104409599304,57.7112271690369,0.3,59.1284243965149,0.700261831283569,59.8356270694733,3,right,0.690337181091309,59.8286862277985,604.482462873459,607.242462873459,1627568738.03928,1627568738.05142,1627568745.92557,1627568745.93378,1627568748.02635,1627568749.44355,1627568749.44575,1627568750.15075,1627568750.14381,1627569294.79759,0
33,4,1,3,4,3,3,c3_HowFace,1,smiling?,115,F_695.jpg,1627568687.55513,1627568687.5694,47.7241573238373,7.87913870811462,55.6104409599304,57.7112271690369,0.3,60.1454710865021,0.61689829826355,60.7688510322571,1,left,0.596730947494507,60.7623693847656,604.482462873459,607.242462873459,1627568738.03928,1627568738.05142,1627568745.92557,1627568745.93378,1627568748.02635,1627568750.4606,1627568750.46283,1627568751.08398,1627568751.0775,1627569294.79759,1
33,4,1,3,4,4,3,c3_HowFace,2,smiling?,120,F_758.jpg,1627568687.55513,1627568687.5694,47.7241573238373,7.87913870811462,55.6104409599304,57.7112271690369,0.3,61.0791535282135,0.683589458465576,61.7660951519012,3,right,0.659633874893188,61.7627429866791,604.482462873459,607.242462873459,1627568738.03928,1627568738.05142,1627568745.92557,1627568745.93378,1627568748.02635,1627568751.39428,1627568751.39653,1627568752.08122,1627568752.07787,1627569294.79759,0
33,4,1,3,4,5,3,c3_HowFace,1,smiling?,116,F_083.jpg,1627568687.55513,1627568687.5694,47.7241573238373,7.87913870811462,55.6104409599304,57.7112271690369,0.3,62.0795283222199,0.583551168441772,62.66884516716,1,left,0.56299090385437,62.6630794906616,604.482462873459,607.242462873459,1627568738.03928,1627568738.05142,1627568745.92557,1627568745.93378,1627568748.02635,1627568752.39466,1627568752.40028,1627568752.98397,1627568752.97821,1627569294.79759,1
33,4,1,3,4,6,3,c3_HowFace,1,smiling?,118,F_759.jpg,1627568687.55513,1627568687.5694,47.7241573238373,7.87913870811462,55.6104409599304,57.7112271690369,0.3,62.9798645877838,0.600225448608398,63.582297077179,1,left,0.573660850524902,63.5800900363922,604.482462873459,607.242462873459,1627568738.03928,1627568738.05142,1627568745.92557,1627568745.93378,1627568748.02635,1627568753.29499,1627568753.3003,1627568753.89742,1627568753.89522,1627569294.79759,1
33,4,1,3,4,7,3,c3_HowFace,2,smiling?,114,F_412.jpg,1627568687.55513,1627568687.5694,47.7241573238373,7.87913870811462,55.6104409599304,57.7112271690369,0.3,63.8968756103516,0.533531188964844,64.435188999176,3,right,0.520779132843018,64.4304067993164,604.482462873459,607.242462873459,1627568738.03928,1627568738.05142,1627568745.92557,1627568745.93378,1627568748.02635,1627568754.212,1627568754.217,1627568754.75032,1627568754.74553,1627569294.79759,0
33,4,1,3,4,8,3,c3_HowFace,1,smiling?,117,F_593.jpg,1627568687.55513,1627568687.5694,47.7241573238373,7.87913870811462,55.6104409599304,57.7112271690369,0.3,64.7471926116943,0.616898059844971,65.3688590431213,1,left,0.598668813705444,65.3640906715393,604.482462873459,607.242462873459,1627568738.03928,1627568738.05142,1627568745.92557,1627568745.93378,1627568748.02635,1627568755.06232,1627568755.0672,1627568755.68399,1627568755.67922,1627569294.79759,1
33,4,1,3,5,1,4,c4_HowHand,1,lifting?,56,H_136.jpg,1627568687.55513,1627568687.5694,65.4641282463074,7.66996192932129,73.1503367328644,75.2511231803894,2.10078644752502,75.4011790657043,0.900337219238281,76.3186011219025,1,left,0.889151096343994,76.3015162849426,604.482462873459,607.242462873459,1627568755.77926,1627568755.7851,1627568763.46546,1627568763.46879,1627568765.56625,1627568765.71631,1627568765.71882,1627568766.63373,1627568766.61664,1627569294.79759,1
33,4,1,3,5,2,4,c4_HowHand,2,lifting?,51,H_038.jpg,1627568687.55513,1627568687.5694,65.4641282463074,7.66996192932129,73.1503367328644,75.2511231803894,0.3,76.6183006668091,0.783626317977905,77.4186131858826,3,right,0.774257183074951,77.401926984787,604.482462873459,607.242462873459,1627568755.77926,1627568755.7851,1627568763.46546,1627568763.46879,1627568765.56625,1627568766.93343,1627568766.93545,1627568767.73374,1627568767.71705,1627569294.79759,0
33,4,1,3,5,3,4,c4_HowHand,1,lifting?,52,H_189.jpg,1627568687.55513,1627568687.5694,65.4641282463074,7.66996192932129,73.1503367328644,75.2511231803894,0.3,77.7187130355835,1.31715869903564,79.0379509830475,1,left,1.2926971912384,79.0358717346191,604.482462873459,607.242462873459,1627568755.77926,1627568755.7851,1627568763.46546,1627568763.46879,1627568765.56625,1627568768.03384,1627568768.03594,1627568769.35308,1627568769.351,1627569294.79759,1
33,4,1,3,5,4,4,c4_HowHand,2,lifting?,53,H_077.jpg,1627568687.55513,1627568687.5694,65.4641282463074,7.66996192932129,73.1503367328644,75.2511231803894,0.3,79.3526580238342,0.883663177490234,80.2383282089233,3,right,0.86226487159729,80.2363212013245,604.482462873459,607.242462873459,1627568755.77926,1627568755.7851,1627568763.46546,1627568763.46879,1627568765.56625,1627568769.66778,1627568769.66965,1627568770.55346,1627568770.55145,1627569294.79759,0
33,4,1,3,5,5,4,c4_HowHand,1,lifting?,50,H_443.jpg,1627568687.55513,1627568687.5694,65.4641282463074,7.66996192932129,73.1503367328644,75.2511231803894,0.3,80.5531070137024,1.21712207794189,81.7723271751404,1,left,1.19340395927429,81.7702290916443,604.482462873459,607.242462873459,1627568755.77926,1627568755.7851,1627568763.46546,1627568763.46879,1627568765.56625,1627568770.86823,1627568770.87018,1627568772.08745,1627568772.08536,1627569294.79759,1
33,4,1,3,5,6,4,c4_HowHand,2,lifting?,55,H_012.jpg,1627568687.55513,1627568687.5694,65.4641282463074,7.66996192932129,73.1503367328644,75.2511231803894,0.3,82.0870137119293,0.800299644470215,82.8895451927185,3,right,0.781978130340576,82.8873133563995,604.482462873459,607.242462873459,1627568755.77926,1627568755.7851,1627568763.46546,1627568763.46879,1627568765.56625,1627568772.40214,1627568772.40432,1627568773.20467,1627568773.20244,1627569294.79759,0
33,4,1,3,5,7,4,c4_HowHand,1,lifting?,49,H_362.jpg,1627568687.55513,1627568687.5694,65.4641282463074,7.66996192932129,73.1503367328644,75.2511231803894,0.3,83.2040974998474,0.61689829826355,83.8228511714935,1,left,0.600010871887207,83.820995798111,604.482462873459,607.242462873459,1627568755.77926,1627568755.7851,1627568763.46546,1627568763.46879,1627568765.56625,1627568773.51922,1627568773.52138,1627568774.13798,1627568774.13612,1627569294.79759,1
33,4,1,3,5,8,4,c4_HowHand,1,lifting?,54,H_170.jpg,1627568687.55513,1627568687.5694,65.4641282463074,7.66996192932129,73.1503367328644,75.2511231803894,0.3,84.1377808952331,1.00037360191345,85.1402850055695,1,left,0.977990865707397,85.1381544971466,604.482462873459,607.242462873459,1627568755.77926,1627568755.7851,1627568763.46546,1627568763.46879,1627568765.56625,1627568774.45291,1627568774.45521,1627568775.45541,1627568775.45328,1627569294.79759,1
33,4,1,3,6,1,2,c2_WhyHand,1,helping?,38,H_077.jpg,1627568687.55513,1627568687.5694,85.2715380096435,10.3435521125793,95.6254134082794,97.7261979484558,2.10078454017639,97.8762540721893,0.766953468322754,98.6519710922241,1,left,0.741107940673828,98.6432075405121,604.482462873459,607.242462873459,1627568775.58666,1627568775.58878,1627568785.94054,1627568785.9505,1627568788.04132,1627568788.19138,1627568788.20041,1627568788.9671,1627568788.95833,1627569294.79759,1
33,4,1,3,6,2,2,c2_WhyHand,1,helping?,36,H_349.jpg,1627568687.55513,1627568687.5694,85.2715380096435,10.3435521125793,95.6254134082794,97.7261979484558,0.3,98.9599928760529,0.76695442199707,99.729039182663,1,left,0.741105079650879,99.7269472980499,604.482462873459,607.242462873459,1627568775.58666,1627568775.58878,1627568785.94054,1627568785.9505,1627568788.04132,1627568789.27512,1627568789.27763,1627568790.04417,1627568790.04207,1627569294.79759,1
33,4,1,3,6,3,2,c2_WhyHand,1,helping?,37,H_474.jpg,1627568687.55513,1627568687.5694,85.2715380096435,10.3435521125793,95.6254134082794,97.7261979484558,0.3,100.043732633591,1.13375782966614,101.179597129822,1,left,1.11230611801147,101.177490463257,604.482462873459,607.242462873459,1627568775.58666,1627568775.58878,1627568785.94054,1627568785.9505,1627568788.04132,1627568790.35886,1627568790.36087,1627568791.49472,1627568791.49262,1627569294.79759,1
33,4,1,3,6,4,2,c2_WhyHand,1,helping?,39,H_024.jpg,1627568687.55513,1627568687.5694,85.2715380096435,10.3435521125793,95.6254134082794,97.7261979484558,0.3,101.494275560379,1.21712183952332,102.718682994843,3,right,1.19949817657471,102.711397399902,604.482462873459,607.242462873459,1627568775.58666,1627568775.58878,1627568785.94054,1627568785.9505,1627568788.04132,1627568791.8094,1627568791.81175,1627568793.03381,1627568793.02652,1627569294.79759,0
33,4,1,3,6,5,2,c2_WhyHand,2,helping?,40,H_012.jpg,1627568687.55513,1627568687.5694,85.2715380096435,10.3435521125793,95.6254134082794,97.7261979484558,0.3,103.028182258606,0.933682918548584,103.968911161423,3,right,0.921550989151001,103.961865177155,604.482462873459,607.242462873459,1627568775.58666,1627568775.58878,1627568785.94054,1627568785.9505,1627568788.04132,1627568793.34331,1627568793.34512,1627568794.28404,1627568794.27699,1627569294.79759,0
33,4,1,3,6,6,2,c2_WhyHand,2,helping?,35,H_159.jpg,1627568687.55513,1627568687.5694,85.2715380096435,10.3435521125793,95.6254134082794,97.7261979484558,0.3,104.278649320602,1.10041165351868,105.385400047302,3,right,1.08783507347107,105.379060974121,604.482462873459,607.242462873459,1627568775.58666,1627568775.58878,1627568785.94054,1627568785.9505,1627568788.04132,1627568794.59378,1627568794.5963,1627568795.70053,1627568795.69419,1627569294.79759,0
33,4,1,3,6,7,2,c2_WhyHand,1,helping?,34,H_111.jpg,1627568687.55513,1627568687.5694,85.2715380096435,10.3435521125793,95.6254134082794,97.7261979484558,0.3,105.695846786499,0.967028617858887,106.668728103638,1,left,0.948960065841675,106.662875404358,604.482462873459,607.242462873459,1627568775.58666,1627568775.58878,1627568785.94054,1627568785.9505,1627568788.04132,1627568796.01097,1627568796.01346,1627568796.98386,1627568796.978,1627569294.79759,1
33,4,1,3,6,8,2,c2_WhyHand,2,helping?,33,H_091.jpg,1627568687.55513,1627568687.5694,85.2715380096435,10.3435521125793,95.6254134082794,97.7261979484558,0.3,106.979660263062,0.783626794815063,107.768873205185,3,right,0.762478113174438,107.763287057877,604.482462873459,607.242462873459,1627568775.58666,1627568775.58878,1627568785.94054,1627568785.9505,1627568788.04132,1627568797.29479,1627568797.30083,1627568798.084,1627568798.07841,1627569294.79759,0
33,4,1,3,7,1,1,c1_WhyFace,1,proud?,104,F_598.jpg,1627568687.55513,1627568687.5694,107.863324394226,5.62676477432251,113.498765935898,115.599551429749,2.10078549385071,115.749608268738,1.0170464515686,116.769089212418,1,left,1.00449204444885,116.766654720306,604.482462873459,607.242462873459,1627568798.17845,1627568798.18422,1627568803.81389,1627568803.81697,1627568805.91468,1627568806.06474,1627568806.06722,1627568807.08422,1627568807.08178,1627569294.79759,1
33,4,1,3,7,2,1,c1_WhyFace,2,proud?,102,F_760.jpg,1627568687.55513,1627568687.5694,107.863324394226,5.62676477432251,113.498765935898,115.599551429749,0.3,117.083440771103,0.666916608810425,117.752231111526,3,right,0.64216685295105,117.750357379913,604.482462873459,607.242462873459,1627568798.17845,1627568798.18422,1627568803.81389,1627568803.81697,1627568805.91468,1627568807.39857,1627568807.40059,1627568808.06736,1627568808.06548,1627569294.79759,0
33,4,1,3,7,3,1,c1_WhyFace,1,proud?,97,F_582.jpg,1627568687.55513,1627568687.5694,107.863324394226,5.62676477432251,113.498765935898,115.599551429749,0.3,118.067141523361,0.750281810760498,118.819352140427,1,left,0.73755407333374,118.817423334122,604.482462873459,607.242462873459,1627568798.17845,1627568798.18422,1627568803.81389,1627568803.81697,1627568805.91468,1627568808.38227,1627568808.38429,1627568809.13448,1627568809.13255,1627569294.79759,1
33,4,1,3,7,4,1,c1_WhyFace,2,proud?,98,F_412.jpg,1627568687.55513,1627568687.5694,107.863324394226,5.62676477432251,113.498765935898,115.599551429749,0.3,119.13420747757,0.633571624755859,119.769913187027,3,right,0.619548797607422,119.767779102325,604.482462873459,607.242462873459,1627568798.17845,1627568798.18422,1627568803.81389,1627568803.81697,1627568805.91468,1627568809.44933,1627568809.45141,1627568810.08504,1627568810.08291,1627569294.79759,0
33,4,1,3,7,5,1,c1_WhyFace,1,proud?,101,F_083.jpg,1627568687.55513,1627568687.5694,107.863324394226,5.62676477432251,113.498765935898,115.599551429749,0.3,120.08456372261,0.850318431854248,120.937010040283,1,left,0.82765793800354,120.934882154465,604.482462873459,607.242462873459,1627568798.17845,1627568798.18422,1627568803.81389,1627568803.81697,1627568805.91468,1627568810.39969,1627568810.40151,1627568811.25214,1627568811.25001,1627569294.79759,1
33,4,1,3,7,6,1,c1_WhyFace,2,proud?,100,F_776.jpg,1627568687.55513,1627568687.5694,107.863324394226,5.62676477432251,113.498765935898,115.599551429749,0.3,121.25166677475,0.750280141830444,122.004437198639,3,right,0.727180004119873,122.00194691658,604.482462873459,607.242462873459,1627568798.17845,1627568798.18422,1627568803.81389,1627568803.81697,1627568805.91468,1627568811.56679,1627568811.56861,1627568812.31956,1627568812.31707,1627569294.79759,0
33,4,1,3,7,7,1,c1_WhyFace,1,proud?,103,F_618.jpg,1627568687.55513,1627568687.5694,107.863324394226,5.62676477432251,113.498765935898,115.599551429749,0.3,122.318732967377,0.98370099067688,123.318933000565,1,left,0.974311113357544,123.302433958054,604.482462873459,607.242462873459,1627568798.17845,1627568798.18422,1627568803.81389,1627568803.81697,1627568805.91468,1627568812.63386,1627568812.63599,1627568813.63406,1627568813.61756,1627569294.79759,1
33,4,1,3,7,8,1,c1_WhyFace,1,proud?,99,F_695.jpg,1627568687.55513,1627568687.5694,107.863324394226,5.62676477432251,113.498765935898,115.599551429749,0.3,123.619219293594,1.30048656463623,124.922229042053,1,left,1.28677105903625,124.919705858231,604.482462873459,607.242462873459,1627568798.17845,1627568798.18422,1627568803.81389,1627568803.81697,1627568805.91468,1627568813.93435,1627568813.93642,1627568815.23736,1627568815.23483,1627569294.79759,1
33,4,1,3,8,1,3,c3_HowFace,1,looking to side?,72,F_590.jpg,1627568687.55513,1627568687.5694,125.019742717743,6.00024628639221,131.038662424088,133.122775306702,2.08411288261414,133.272830953598,0.933682918548584,134.219252099991,1,left,0.907854080200195,134.206513872147,604.482462873459,607.242462873459,1627568815.33487,1627568815.33717,1627568821.35379,1627568821.3561,1627568823.4379,1627568823.58796,1627568823.60079,1627568824.53438,1627568824.52164,1627569294.79759,1
33,4,1,3,8,2,3,c3_HowFace,1,looking to side?,71,F_433.jpg,1627568687.55513,1627568687.5694,125.019742717743,6.00024628639221,131.038662424088,133.122775306702,0.3,134.523299207687,0.766952753067017,135.30242609024,1,left,0.751964092254639,135.290251960754,604.482462873459,607.242462873459,1627568815.33487,1627568815.33717,1627568821.35379,1627568821.3561,1627568823.4379,1627568824.83843,1627568824.8407,1627568825.61755,1627568825.60538,1627569294.79759,1
33,4,1,3,8,3,3,c3_HowFace,1,looking to side?,67,F_716.jpg,1627568687.55513,1627568687.5694,125.019742717743,6.00024628639221,131.038662424088,133.122775306702,0.3,135.607036819458,0.866991996765137,136.47629117012,1,left,0.84361720085144,136.474028816223,604.482462873459,607.242462873459,1627568815.33487,1627568815.33717,1627568821.35379,1627568821.3561,1627568823.4379,1627568825.92216,1627568825.92424,1627568826.79142,1627568826.78916,1627569294.79759,1
33,4,1,3,8,4,3,c3_HowFace,2,looking to side?,70,F_779.jpg,1627568687.55513,1627568687.5694,125.019742717743,6.00024628639221,131.038662424088,133.122775306702,0.3,136.790814628601,0.816971302032471,137.618387212753,3,right,0.807083129882812,137.607785930634,604.482462873459,607.242462873459,1627568815.33487,1627568815.33717,1627568821.35379,1627568821.3561,1627568823.4379,1627568827.10594,1627568827.10801,1627568827.93351,1627568827.92291,1627569294.79759,0
33,4,1,3,8,5,3,c3_HowFace,1,looking to side?,68,F_760.jpg,1627568687.55513,1627568687.5694,125.019742717743,6.00024628639221,131.038662424088,133.122775306702,0.3,137.924570789337,1.1671040058136,139.102047195435,1,left,1.15656900405884,139.091674795151,604.482462873459,607.242462873459,1627568815.33487,1627568815.33717,1627568821.35379,1627568821.3561,1627568823.4379,1627568828.2397,1627568828.24178,1627568829.41717,1627568829.4068,1627569294.79759,1
33,4,1,3,8,6,3,c3_HowFace,2,looking to side?,66,F_111.jpg,1627568687.55513,1627568687.5694,125.019742717743,6.00024628639221,131.038662424088,133.122775306702,0.3,139.408459892273,1.01704716682434,140.435522069931,3,right,0.999212980270386,140.425507059097,604.482462873459,607.242462873459,1627568815.33487,1627568815.33717,1627568821.35379,1627568821.3561,1627568823.4379,1627568829.72359,1627568829.72559,1627568830.75065,1627568830.74063,1627569294.79759,0
33,4,1,3,8,7,3,c3_HowFace,1,looking to side?,69,F_110.jpg,1627568687.55513,1627568687.5694,125.019742717743,6.00024628639221,131.038662424088,133.122775306702,0.3,140.742292394638,1.45054244995117,142.202043046951,1,left,1.43791007995605,142.192834844589,604.482462873459,607.242462873459,1627568815.33487,1627568815.33717,1627568821.35379,1627568821.3561,1627568823.4379,1627568831.05742,1627568831.05955,1627568832.51717,1627568832.50796,1627569294.79759,1
33,4,1,3,8,8,3,c3_HowFace,2,looking to side?,65,F_798.jpg,1627568687.55513,1627568687.5694,125.019742717743,6.00024628639221,131.038662424088,133.122775306702,0.3,142.50962018013,1.11708498001099,143.635545005798,3,right,1.10371804237366,143.626705160141,604.482462873459,607.242462873459,1627568815.33487,1627568815.33717,1627568821.35379,1627568821.3561,1627568823.4379,1627568832.82475,1627568832.82685,1627568833.95067,1627568833.94183,1627569294.79759,0
33,4,1,3,9,1,1,c1_WhyFace,1,argument?,43,F_716.jpg,1627568687.55513,1627568687.5694,143.726742019653,6.40142011642456,150.145811309814,152.246596326828,2.10078501701355,152.396652450562,0.967027902603149,153.368568172455,1,left,0.950371980667114,153.363680353165,604.482462873459,607.242462873459,1627568834.04187,1627568834.05052,1627568840.46094,1627568840.46349,1627568842.56172,1627568842.71178,1627568842.71393,1627568843.6837,1627568843.67881,1627569294.79759,1
33,4,1,3,9,2,1,c1_WhyFace,2,argument?,44,F_139.jpg,1627568687.55513,1627568687.5694,143.726742019653,6.40142011642456,150.145811309814,152.246596326828,0.3,153.680467119217,1.13375687599182,154.818688144684,3,right,1.10836791992188,154.814223995209,604.482462873459,607.242462873459,1627568834.04187,1627568834.05052,1627568840.46094,1627568840.46349,1627568842.56172,1627568843.99559,1627568844.0004,1627568845.13382,1627568845.12935,1627569294.79759,0
33,4,1,3,9,3,1,c1_WhyFace,1,argument?,41,F_712.jpg,1627568687.55513,1627568687.5694,143.726742019653,6.40142011642456,150.145811309814,152.246596326828,0.3,155.131008853912,0.900337219238281,156.036114206314,1,left,0.881281137466431,156.031346073151,604.482462873459,607.242462873459,1627568834.04187,1627568834.05052,1627568840.46094,1627568840.46349,1627568842.56172,1627568845.44614,1627568845.45039,1627568846.35124,1627568846.34647,1627569294.79759,1
33,4,1,3,9,4,1,c1_WhyFace,2,argument?,45,F_433.jpg,1627568687.55513,1627568687.5694,143.726742019653,6.40142011642456,150.145811309814,152.246596326828,0.3,156.34812997818,0.733609199523926,157.085288991928,3,right,0.718726873397827,157.081739177704,604.482462873459,607.242462873459,1627568834.04187,1627568834.05052,1627568840.46094,1627568840.46349,1627568842.56172,1627568846.66326,1627568846.66723,1627568847.40042,1627568847.39687,1627569294.79759,0
33,4,1,3,9,5,1,c1_WhyFace,1,argument?,42,F_403.jpg,1627568687.55513,1627568687.5694,143.726742019653,6.40142011642456,150.145811309814,152.246596326828,0.3,157.398524274826,0.783626317977905,158.185581197739,1,left,0.760118007659912,158.182150592804,604.482462873459,607.242462873459,1627568834.04187,1627568834.05052,1627568840.46094,1627568840.46349,1627568842.56172,1627568847.71365,1627568847.71728,1627568848.50071,1627568848.49728,1627569294.79759,1
33,4,1,3,9,6,1,c1_WhyFace,2,argument?,46,F_844.jpg,1627568687.55513,1627568687.5694,143.726742019653,6.40142011642456,150.145811309814,152.246596326828,0.3,158.498935928345,0.766953229904175,159.269057979584,3,right,0.748116016387939,159.265889158249,604.482462873459,607.242462873459,1627568834.04187,1627568834.05052,1627568840.46094,1627568840.46349,1627568842.56172,1627568848.81406,1627568848.81706,1627568849.58418,1627568849.58102,1627569294.79759,0
33,4,1,3,9,7,1,c1_WhyFace,1,argument?,47,F_743.jpg,1627568687.55513,1627568687.5694,143.726742019653,6.40142011642456,150.145811309814,152.246596326828,0.3,159.582674016953,0.650243520736694,160.235267152786,1,left,0.630409955978394,160.232917537689,604.482462873459,607.242462873459,1627568834.04187,1627568834.05052,1627568840.46094,1627568840.46349,1627568842.56172,1627568849.8978,1627568849.90111,1627568850.55039,1627568850.54804,1627569294.79759,1
33,4,1,3,9,8,1,c1_WhyFace,1,argument?,48,F_758.jpg,1627568687.55513,1627568687.5694,143.726742019653,6.40142011642456,150.145811309814,152.246596326828,0.3,160.549703111649,0.833644866943359,161.385430088043,1,left,0.818468809127808,161.383347978592,604.482462873459,607.242462873459,1627568834.04187,1627568834.05052,1627568840.46094,1627568840.46349,1627568842.56172,1627568850.86483,1627568850.86754,1627568851.70056,1627568851.69847,1627569294.79759,1
33,4,1,3,10,1,3,c3_HowFace,1,open mouth?,80,F_844.jpg,1627568687.55513,1627568687.5694,161.483386268616,6.48461675643921,167.985819330215,170.086604824066,2.10078549385071,170.236660470963,0.616897821426392,170.855985155106,1,left,0.595924139022827,170.853558292389,604.482462873459,607.242462873459,1627568851.79851,1627568851.80021,1627568858.30095,1627568858.30314,1627568860.40173,1627568860.55179,1627568860.55368,1627568861.17111,1627568861.16869,1627569294.79759,1
33,4,1,3,10,2,3,c3_HowFace,1,open mouth?,74,F_776.jpg,1627568687.55513,1627568687.5694,161.483386268616,6.48461675643921,167.985819330215,170.086604824066,0.3,171.170343151093,0.516860246658325,171.690080156326,1,left,0.491881847381592,171.687203397751,604.482462873459,607.242462873459,1627568851.79851,1627568851.80021,1627568858.30095,1627568858.30314,1627568860.40173,1627568861.48547,1627568861.48738,1627568862.00521,1627568862.00233,1627569294.79759,1
33,4,1,3,10,3,3,c3_HowFace,2,open mouth?,76,F_544.jpg,1627568687.55513,1627568687.5694,161.483386268616,6.48461675643921,167.985819330215,170.086604824066,0.3,172.003987779617,0.566878795623779,172.572903146744,3,right,0.544265985488892,172.570866575241,604.482462873459,607.242462873459,1627568851.79851,1627568851.80021,1627568858.30095,1627568858.30314,1627568860.40173,1627568862.31911,1627568862.32108,1627568862.88803,1627568862.88599,1627569294.79759,0
33,4,1,3,10,4,3,c3_HowFace,1,open mouth?,78,F_692.jpg,1627568687.55513,1627568687.5694,161.483386268616,6.48461675643921,167.985819330215,170.086604824066,0.3,172.887653579712,0.466840028762817,173.356991043091,1,left,0.448525190353394,173.354493608475,604.482462873459,607.242462873459,1627568851.79851,1627568851.80021,1627568858.30095,1627568858.30314,1627568860.40173,1627568863.20278,1627568863.20491,1627568863.67212,1627568863.66962,1627569294.79759,1
33,4,1,3,10,5,3,c3_HowFace,2,open mouth?,77,F_584.jpg,1627568687.55513,1627568687.5694,161.483386268616,6.48461675643921,167.985819330215,170.086604824066,0.3,173.671279420853,0.600223064422607,174.273560037613,3,right,0.579392910003662,174.271502485275,604.482462873459,607.242462873459,1627568851.79851,1627568851.80021,1627568858.30095,1627568858.30314,1627568860.40173,1627568863.98641,1627568863.9883,1627568864.58869,1627568864.58663,1627569294.79759,0
33,4,1,3,10,6,3,c3_HowFace,1,open mouth?,73,F_403.jpg,1627568687.55513,1627568687.5694,161.483386268616,6.48461675643921,167.985819330215,170.086604824066,0.3,174.58828877449,0.450168371200562,175.052659025192,1,left,0.441222190856934,175.038457145691,604.482462873459,607.242462873459,1627568851.79851,1627568851.80021,1627568858.30095,1627568858.30314,1627568860.40173,1627568864.90342,1627568864.90543,1627568865.36779,1627568865.35358,1627569294.79759,1
33,4,1,3,10,7,3,c3_HowFace,1,open mouth?,75,F_086.jpg,1627568687.55513,1627568687.5694,161.483386268616,6.48461675643921,167.985819330215,170.086604824066,0.3,175.355242004395,0.433495759963989,175.790777196884,1,left,0.411365985870361,175.788737764359,604.482462873459,607.242462873459,1627568851.79851,1627568851.80021,1627568858.30095,1627568858.30314,1627568860.40173,1627568865.67037,1627568865.67245,1627568866.1059,1627568866.10386,1627569294.79759,1
33,4,1,3,10,8,3,c3_HowFace,2,open mouth?,79,F_648.jpg,1627568687.55513,1627568687.5694,161.483386268616,6.48461675643921,167.985819330215,170.086604824066,0.3,176.105522623062,0.566879987716675,176.674585094452,3,right,0.542140960693359,176.672402610779,604.482462873459,607.242462873459,1627568851.79851,1627568851.80021,1627568858.30095,1627568858.30314,1627568860.40173,1627568866.42065,1627568866.42262,1627568866.98971,1627568866.98753,1627569294.79759,0
33,4,1,3,11,1,4,c4_HowHand,1,pressing button?,88,H_019.jpg,1627568687.55513,1627568687.5694,176.77243970871,9.08564233779907,185.875845184326,187.976630916595,2.10078573226929,188.126687755585,0.550205707550049,188.685295095444,1,left,0.531085014343262,188.676893463135,604.482462873459,607.242462873459,1627568867.08757,1627568867.08943,1627568876.19097,1627568876.19335,1627568878.29176,1627568878.44181,1627568878.4438,1627568879.00042,1627568878.99202,1627569294.79759,1
33,4,1,3,11,2,4,c4_HowHand,2,pressing button?,87,H_024.jpg,1627568687.55513,1627568687.5694,176.77243970871,9.08564233779907,185.875845184326,187.976630916595,0.3,188.993679037094,0.833645105361938,189.835492124558,3,right,0.823853015899658,189.827324142456,604.482462873459,607.242462873459,1627568867.08757,1627568867.08943,1627568876.19097,1627568876.19335,1627568878.29176,1627568879.30881,1627568879.31082,1627568880.15062,1627568880.14245,1627569294.79759,0
33,4,1,3,11,3,4,c4_HowHand,2,pressing button?,85,H_130.jpg,1627568687.55513,1627568687.5694,176.77243970871,9.08564233779907,185.875845184326,187.976630916595,0.3,190.144108524323,0.78362774848938,190.929789056778,3,right,0.761826038360596,190.927736272812,604.482462873459,607.242462873459,1627568867.08757,1627568867.08943,1627568876.19097,1627568876.19335,1627568878.29176,1627568880.45924,1627568880.46127,1627568881.24492,1627568881.24286,1627569294.79759,0
33,4,1,3,11,4,4,c4_HowHand,1,pressing button?,83,H_502.jpg,1627568687.55513,1627568687.5694,176.77243970871,9.08564233779907,185.875845184326,187.976630916595,0.3,191.244521131516,0.550204992294312,191.79699801445,1,left,0.526822090148926,191.79472612381,604.482462873459,607.242462873459,1627568867.08757,1627568867.08943,1627568876.19097,1627568876.19335,1627568878.29176,1627568881.55965,1627568881.56179,1627568882.11212,1627568882.10985,1627569294.79759,1
33,4,1,3,11,5,4,c4_HowHand,2,pressing button?,81,H_261.jpg,1627568687.55513,1627568687.5694,176.77243970871,9.08564233779907,185.875845184326,187.976630916595,0.3,192.111511936188,0.650242567062378,192.769108047485,3,right,0.630242824554443,192.76175450325,604.482462873459,607.242462873459,1627568867.08757,1627568867.08943,1627568876.19097,1627568876.19335,1627568878.29176,1627568882.42664,1627568882.42857,1627568883.08423,1627568883.07688,1627569294.79759,0
33,4,1,3,11,6,4,c4_HowHand,1,pressing button?,86,H_332.jpg,1627568687.55513,1627568687.5694,176.77243970871,9.08564233779907,185.875845184326,187.976630916595,0.3,193.078540077209,0.483514070510864,193.565191020966,1,left,0.458647012710571,193.56205414772,604.482462873459,607.242462873459,1627568867.08757,1627568867.08943,1627568876.19097,1627568876.19335,1627568878.29176,1627568883.39367,1627568883.39591,1627568883.88032,1627568883.87718,1627569294.79759,1
33,4,1,3,11,7,4,c4_HowHand,1,pressing button?,82,H_126.jpg,1627568687.55513,1627568687.5694,176.77243970871,9.08564233779907,185.875845184326,187.976630916595,0.3,193.878839483261,0.583551645278931,194.46449016571,1,left,0.558354139328003,194.46239112854,604.482462873459,607.242462873459,1627568867.08757,1627568867.08943,1627568876.19097,1627568876.19335,1627568878.29176,1627568884.19397,1627568884.19599,1627568884.77962,1627568884.77752,1627569294.79759,1
33,4,1,3,11,8,4,c4_HowHand,1,pressing button?,84,H_483.jpg,1627568687.55513,1627568687.5694,176.77243970871,9.08564233779907,185.875845184326,187.976630916595,0.3,194.779176702499,0.783626079559326,195.569073190689,1,left,0.764212131500244,195.562802782059,604.482462873459,607.242462873459,1627568867.08757,1627568867.08943,1627568876.19097,1627568876.19335,1627568878.29176,1627568885.0943,1627568885.09625,1627568885.8842,1627568885.87793,1627569294.79759,1
33,4,1,3,12,1,2,c2_WhyHand,1,competing?,9,H_261.jpg,1627568687.55513,1627568687.5694,195.679512968063,7.96860909461975,203.665835132599,205.766620864868,2.10078573226929,205.916676034927,1.23379492759705,207.152464141846,1,left,1.22181296348572,207.150470962524,604.482462873459,607.242462873459,1627568885.99464,1627568886.0009,1627568893.98096,1627568893.9836,1627568896.08175,1627568896.2318,1627568896.23373,1627568897.46759,1627568897.4656,1627569294.79759,1
33,4,1,3,12,2,2,c2_WhyHand,2,competing?,12,H_483.jpg,1627568687.55513,1627568687.5694,195.679512968063,7.96860909461975,203.665835132599,205.766620864868,0.3,207.467257490158,0.883664131164551,208.353034009933,3,right,0.856681108474731,208.350921621323,604.482462873459,607.242462873459,1627568885.99464,1627568886.0009,1627568893.98096,1627568893.9836,1627568896.08175,1627568897.78238,1627568897.7845,1627568898.66816,1627568898.66605,1627569294.79759,0
33,4,1,3,12,3,2,c2_WhyHand,1,competing?,14,H_132.jpg,1627568687.55513,1627568687.5694,195.679512968063,7.96860909461975,203.665835132599,205.766620864868,0.3,208.667706003189,0.83364462852478,209.503800144196,1,left,0.821240186691284,209.501350631714,604.482462873459,607.242462873459,1627568885.99464,1627568886.0009,1627568893.98096,1627568893.9836,1627568896.08175,1627568898.98283,1627568898.98492,1627568899.81893,1627568899.81648,1627569294.79759,1
33,4,1,3,12,4,2,c2_WhyHand,2,competing?,10,H_126.jpg,1627568687.55513,1627568687.5694,195.679512968063,7.96860909461975,203.665835132599,205.766620864868,0.3,209.818135967255,0.86699104309082,210.68708609581,3,right,0.850081205368042,210.685127010345,604.482462873459,607.242462873459,1627568885.99464,1627568886.0009,1627568893.98096,1627568893.9836,1627568896.08175,1627568900.13326,1627568900.13553,1627568901.00221,1627568901.00025,1627569294.79759,0
33,4,1,3,12,5,2,c2_WhyHand,1,competing?,16,H_136.jpg,1627568687.55513,1627568687.5694,195.679512968063,7.96860909461975,203.665835132599,205.766620864868,0.3,211.001912345886,0.750280857086182,211.754092206955,1,left,0.734554052352905,211.752193202972,604.482462873459,607.242462873459,1627568885.99464,1627568886.0009,1627568893.98096,1627568893.9836,1627568896.08175,1627568901.31704,1627568901.31911,1627568902.06922,1627568902.06732,1627569294.79759,1
33,4,1,3,12,6,2,c2_WhyHand,2,competing?,11,H_502.jpg,1627568687.55513,1627568687.5694,195.679512968063,7.96860909461975,203.665835132599,205.766620864868,0.3,212.068979253769,1.00037407875061,213.071783056259,3,right,0.976243019104004,213.06935333252,604.482462873459,607.242462873459,1627568885.99464,1627568886.0009,1627568893.98096,1627568893.9836,1627568896.08175,1627568902.38411,1627568902.38629,1627568903.38691,1627568903.38448,1627569294.79759,0
33,4,1,3,12,7,2,c2_WhyHand,1,competing?,13,H_003.jpg,1627568687.55513,1627568687.5694,195.679512968063,7.96860909461975,203.665835132599,205.766620864868,0.3,213.386138429642,0.650242328643799,214.052165021896,1,left,0.640366077423096,214.036380758286,604.482462873459,607.242462873459,1627568885.99464,1627568886.0009,1627568893.98096,1627568893.9836,1627568896.08175,1627568903.70127,1627568903.70358,1627568904.36729,1627568904.35151,1627569294.79759,1
33,4,1,3,12,8,2,c2_WhyHand,1,competing?,15,H_170.jpg,1627568687.55513,1627568687.5694,195.679512968063,7.96860909461975,203.665835132599,205.766620864868,0.3,214.353166332245,0.650243997573853,215.005565156937,1,left,0.635793924331665,215.003410329819,604.482462873459,607.242462873459,1627568885.99464,1627568886.0009,1627568893.98096,1627568893.9836,1627568896.08175,1627568904.66829,1627568904.67087,1627568905.32069,1627568905.31854,1627569294.79759,1
33,4,1,3,13,1,1,c1_WhyFace,1,self-doubt?,29,F_544.jpg,1627568687.55513,1627568687.5694,215.103446950912,6.61444115638733,221.722590913773,223.823376169205,2.10078525543213,223.973431577683,0.716935157775879,224.692321052551,1,left,0.682321071624756,224.690366735458,604.482462873459,607.242462873459,1627568905.41857,1627568905.42037,1627568912.03772,1627568912.05062,1627568914.1385,1627568914.28856,1627568914.30061,1627568915.00745,1627568915.00549,1627569294.79759,1
33,4,1,3,13,2,1,c1_WhyFace,2,self-doubt?,27,F_086.jpg,1627568687.55513,1627568687.5694,215.103446950912,6.61444115638733,221.722590913773,223.823376169205,0.3,225.007152309418,0.983701705932617,225.992919197083,3,right,0.958746910095215,225.99085401535,604.482462873459,607.242462873459,1627568905.41857,1627568905.42037,1627568912.03772,1627568912.05062,1627568914.1385,1627568915.32228,1627568915.3245,1627568916.30805,1627568916.30598,1627569294.79759,0
33,4,1,3,13,3,1,c1_WhyFace,1,self-doubt?,25,F_798.jpg,1627568687.55513,1627568687.5694,215.103446950912,6.61444115638733,221.722590913773,223.823376169205,0.3,226.307638874054,0.833645343780518,227.143372049332,1,left,0.809772968292236,227.141284217834,604.482462873459,607.242462873459,1627568905.41857,1627568905.42037,1627568912.03772,1627568912.05062,1627568914.1385,1627568916.62277,1627568916.62455,1627568917.4585,1627568917.45641,1627569294.79759,1
33,4,1,3,13,4,1,c1_WhyFace,1,self-doubt?,26,F_111.jpg,1627568687.55513,1627568687.5694,215.103446950912,6.61444115638733,221.722590913773,223.823376169205,0.3,227.458069314957,0.666914463043213,228.135826101303,1,left,0.655884981155396,228.124983778,604.482462873459,607.242462873459,1627568905.41857,1627568905.42037,1627568912.03772,1627568912.05062,1627568914.1385,1627568917.7732,1627568917.77533,1627568918.45095,1627568918.44011,1627569294.79759,1
33,4,1,3,13,5,1,c1_WhyFace,2,self-doubt?,31,F_774.jpg,1627568687.55513,1627568687.5694,215.103446950912,6.61444115638733,221.722590913773,223.823376169205,0.3,228.441771020889,0.583552360534668,229.035883178711,3,right,0.571103811264038,229.025323381424,604.482462873459,607.242462873459,1627568905.41857,1627568905.42037,1627568912.03772,1627568912.05062,1627568914.1385,1627568918.7569,1627568918.75905,1627568919.35101,1627568919.34045,1627569294.79759,0
33,4,1,3,13,6,1,c1_WhyFace,1,self-doubt?,28,F_754.jpg,1627568687.55513,1627568687.5694,215.103446950912,6.61444115638733,221.722590913773,223.823376169205,0.3,229.342108240128,0.850316047668457,230.194801082611,1,left,0.826825141906738,230.192424287796,604.482462873459,607.242462873459,1627568905.41857,1627568905.42037,1627568912.03772,1627568912.05062,1627568914.1385,1627568919.65724,1627568919.65977,1627568920.50993,1627568920.50755,1627569294.79759,1
33,4,1,3,13,7,1,c1_WhyFace,2,self-doubt?,32,F_128.jpg,1627568687.55513,1627568687.5694,215.103446950912,6.61444115638733,221.722590913773,223.823376169205,0.3,230.509210577011,0.816972255706787,231.328539123535,3,right,0.793045043945312,231.326182832718,604.482462873459,607.242462873459,1627568905.41857,1627568905.42037,1627568912.03772,1627568912.05062,1627568914.1385,1627568920.82434,1627568920.82638,1627568921.64367,1627568921.64131,1627569294.79759,0
33,4,1,3,13,8,1,c1_WhyFace,1,self-doubt?,30,F_584.jpg,1627568687.55513,1627568687.5694,215.103446950912,6.61444115638733,221.722590913773,223.823376169205,0.3,231.642968168259,1.46721601486206,233.11229514122,3,right,1.44288396835327,233.110184183121,604.482462873459,607.242462873459,1627568905.41857,1627568905.42037,1627568912.03772,1627568912.05062,1627568914.1385,1627568921.9581,1627568921.96038,1627568923.42742,1627568923.42531,1627569294.79759,0
33,4,1,3,14,1,3,c3_HowFace,1,looking at camera?,64,F_128.jpg,1627568687.55513,1627568687.5694,233.210220804214,7.56182622909546,240.77972029686,242.880506029129,2.10078573226929,243.030562152863,0.583553075790405,243.619103183746,1,left,0.569329023361206,243.614115228653,604.482462873459,607.242462873459,1627568923.52535,1627568923.53386,1627568931.09485,1627568931.10058,1627568933.19563,1627568933.34569,1627568933.3509,1627568933.93423,1627568933.92924,1627569294.79759,1
33,4,1,3,14,2,3,c3_HowFace,1,looking at camera?,60,F_618.jpg,1627568687.55513,1627568687.5694,233.210220804214,7.56182622909546,240.77972029686,242.880506029129,0.3,243.930898656845,0.550206422805786,244.485370149612,1,left,0.527858018875122,244.481105079651,604.482462873459,607.242462873459,1627568923.52535,1627568923.53386,1627568931.09485,1627568931.10058,1627568933.19563,1627568934.24603,1627568934.25061,1627568934.8005,1627568934.79623,1627569294.79759,1
33,4,1,3,14,3,3,c3_HowFace,1,looking at camera?,62,F_598.jpg,1627568687.55513,1627568687.5694,233.210220804214,7.56182622909546,240.77972029686,242.880506029129,0.3,244.797889938355,0.550206899642944,245.352149000168,1,left,0.531122207641602,245.348096837997,604.482462873459,607.242462873459,1627568923.52535,1627568923.53386,1627568931.09485,1627568931.10058,1627568933.19563,1627568935.11302,1627568935.11705,1627568935.66728,1627568935.66322,1627569294.79759,1
33,4,1,3,14,4,3,c3_HowFace,2,looking at camera?,63,F_743.jpg,1627568687.55513,1627568687.5694,233.210220804214,7.56182622909546,240.77972029686,242.880506029129,0.3,245.664881458282,0.500187397003174,246.16897105217,3,right,0.485715866088867,246.165068855286,604.482462873459,607.242462873459,1627568923.52535,1627568923.53386,1627568931.09485,1627568931.10058,1627568933.19563,1627568935.98001,1627568935.98392,1627568936.4841,1627568936.4802,1627569294.79759,0
33,4,1,3,14,5,3,c3_HowFace,1,looking at camera?,61,F_774.jpg,1627568687.55513,1627568687.5694,233.210220804214,7.56182622909546,240.77972029686,242.880506029129,0.3,246.481854190826,0.533532381057739,247.018783082962,1,left,0.521194219589233,247.015386571884,604.482462873459,607.242462873459,1627568923.52535,1627568923.53386,1627568931.09485,1627568931.10058,1627568933.19563,1627568936.79698,1627568936.80045,1627568937.33391,1627568937.33051,1627569294.79759,1
33,4,1,3,14,6,3,c3_HowFace,2,looking at camera?,57,F_582.jpg,1627568687.55513,1627568687.5694,233.210220804214,7.56182622909546,240.77972029686,242.880506029129,0.3,247.332172145844,0.7169349193573,248.052263011932,3,right,0.703278064727783,248.049107065201,604.482462873459,607.242462873459,1627568923.52535,1627568923.53386,1627568931.09485,1627568931.10058,1627568933.19563,1627568937.6473,1627568937.6507,1627568938.36739,1627568938.36423,1627569294.79759,0
33,4,1,3,14,7,3,c3_HowFace,2,looking at camera?,58,F_754.jpg,1627568687.55513,1627568687.5694,233.210220804214,7.56182622909546,240.77972029686,242.880506029129,0.3,248.365892162323,0.73360800743103,249.102294197083,3,right,0.709161996841431,249.099500169754,604.482462873459,607.242462873459,1627568923.52535,1627568923.53386,1627568931.09485,1627568931.10058,1627568933.19563,1627568938.68102,1627568938.6839,1627568939.41742,1627568939.41463,1627569294.79759,0
33,4,1,3,14,8,3,c3_HowFace,1,looking at camera?,59,F_129.jpg,1627568687.55513,1627568687.5694,233.210220804214,7.56182622909546,240.77972029686,242.880506029129,0.3,249.416285028458,0.650242567062378,250.069118013382,1,left,0.623564004898071,250.06652759552,604.482462873459,607.242462873459,1627568923.52535,1627568923.53386,1627568931.09485,1627568931.10058,1627568933.19563,1627568939.73141,1627568939.73398,1627568940.38424,1627568940.38165,1627569294.79759,1
33,4,1,3,15,1,4,c4_HowHand,1,both hands?,123,H_167.jpg,1627568687.55513,1627568687.5694,250.166565885544,9.39540910720825,259.570084323883,261.670870056152,2.10078573226929,261.820926656723,0.716934680938721,262.53996919632,1,left,0.702263116836548,262.537861337662,604.482462873459,607.242462873459,1627568940.48169,1627568940.48354,1627568949.88521,1627568949.88709,1627568951.986,1627568952.13605,1627568952.13829,1627568952.8551,1627568952.85299,1627569294.79759,1
33,4,1,3,15,2,4,c4_HowHand,2,both hands?,121,H_091.jpg,1627568687.55513,1627568687.5694,250.166565885544,9.39540910720825,259.570084323883,261.670870056152,0.3,262.854645957947,0.950355529785156,263.807166090012,3,right,0.924892902374268,263.805001487732,604.482462873459,607.242462873459,1627568940.48169,1627568940.48354,1627568949.88521,1627568949.88709,1627568951.986,1627568953.16977,1627568953.17192,1627568954.12229,1627568954.12013,1627569294.79759,0
33,4,1,3,15,3,4,c4_HowHand,2,both hands?,125,H_627.jpg,1627568687.55513,1627568687.5694,250.166565885544,9.39540910720825,259.570084323883,261.670870056152,0.3,264.121786584854,0.850318193435669,264.985586156845,3,right,0.838804960250854,264.97210477829,604.482462873459,607.242462873459,1627568940.48169,1627568940.48354,1627568949.88521,1627568949.88709,1627568951.986,1627568954.43691,1627568954.43945,1627568955.30071,1627568955.28723,1627569294.79759,0
33,4,1,3,15,4,4,c4_HowHand,1,both hands?,128,H_027.jpg,1627568687.55513,1627568687.5694,250.166565885544,9.39540910720825,259.570084323883,261.670870056152,0.3,265.288890352249,0.650242805480957,265.952371110916,1,left,0.641364097595215,265.93913315773,604.482462873459,607.242462873459,1627568940.48169,1627568940.48354,1627568949.88521,1627568949.88709,1627568951.986,1627568955.60402,1627568955.60612,1627568956.2675,1627568956.25426,1627569294.79759,1
33,4,1,3,15,5,4,c4_HowHand,1,both hands?,122,H_111.jpg,1627568687.55513,1627568687.5694,250.166565885544,9.39540910720825,259.570084323883,261.670870056152,0.3,266.255918493271,0.816972494125366,267.075535049438,1,left,0.794279098510742,267.072890987396,604.482462873459,607.242462873459,1627568940.48169,1627568940.48354,1627568949.88521,1627568949.88709,1627568951.986,1627568956.57105,1627568956.57286,1627568957.39066,1627568957.38802,1627569294.79759,1
33,4,1,3,15,6,4,c4_HowHand,2,both hands?,126,H_159.jpg,1627568687.55513,1627568687.5694,250.166565885544,9.39540910720825,259.570084323883,261.670870056152,0.3,267.389675607681,0.983702421188354,268.375553121567,3,right,0.966743946075439,268.37337802887,604.482462873459,607.242462873459,1627568940.48169,1627568940.48354,1627568949.88521,1627568949.88709,1627568951.986,1627568957.7048,1627568957.70696,1627568958.69068,1627568958.6885,1627569294.79759,0
33,4,1,3,15,7,4,c4_HowHand,1,both hands?,124,H_581.jpg,1627568687.55513,1627568687.5694,250.166565885544,9.39540910720825,259.570084323883,261.670870056152,0.3,268.690162172318,0.766953945159912,269.459228982925,1,left,0.741351842880249,269.457116117477,604.482462873459,607.242462873459,1627568940.48169,1627568940.48354,1627568949.88521,1627568949.88709,1627568951.986,1627568959.00529,1627568959.00771,1627568959.77436,1627568959.77224,1627569294.79759,1
33,4,1,3,15,8,4,c4_HowHand,1,both hands?,127,H_349.jpg,1627568687.55513,1627568687.5694,250.166565885544,9.39540910720825,259.570084323883,261.670870056152,0.3,269.773902168274,0.600224018096924,270.377217998505,1,left,0.575353145599365,270.374126186371,604.482462873459,607.242462873459,1627568940.48169,1627568940.48354,1627568949.88521,1627568949.88709,1627568951.986,1627568960.08903,1627568960.09116,1627568960.69234,1627568960.68925,1627569294.79759,1
33,4,1,3,16,1,2,c2_WhyHand,1,self-protection?,89,H_443.jpg,1627568687.55513,1627568687.5694,270.474163999558,7.87782001495361,278.360446920395,280.46123336792,2.10078644752502,280.611290206909,0.583551406860352,281.202323188782,1,left,0.567430019378662,281.19484161377,604.482462873459,607.242462873459,1627568960.78929,1627568960.80053,1627568968.67557,1627568968.68425,1627568970.77636,1627568970.92642,1627568970.93382,1627568971.51745,1627568971.50997,1627569294.79759,1
33,4,1,3,16,2,2,c2_WhyHand,2,self-protection?,90,H_006.jpg,1627568687.55513,1627568687.5694,270.474163999558,7.87782001495361,278.360446920395,280.46123336792,0.3,281.511625757217,1.10041189193726,282.619031181335,3,right,1.08658790588379,282.612037649155,604.482462873459,607.242462873459,1627568960.78929,1627568960.80053,1627568968.67557,1627568968.68425,1627568970.77636,1627568971.82675,1627568971.82876,1627568972.93416,1627568972.92716,1627569294.79759,0
33,4,1,3,16,3,2,c2_WhyHand,1,self-protection?,91,H_581.jpg,1627568687.55513,1627568687.5694,270.474163999558,7.87782001495361,278.360446920395,280.46123336792,0.3,282.928822984695,1.1337583065033,284.06918715477,1,left,1.11303806304932,284.062581291199,604.482462873459,607.242462873459,1627568960.78929,1627568960.80053,1627568968.67557,1627568968.68425,1627568970.77636,1627568973.24395,1627568973.24591,1627568974.38431,1627568974.37771,1627569294.79759,1
33,4,1,3,16,4,2,c2_WhyHand,2,self-protection?,92,H_532.jpg,1627568687.55513,1627568687.5694,270.474163999558,7.87782001495361,278.360446920395,280.46123336792,0.3,284.379366388321,0.883663415908813,285.269278993607,3,right,0.865349054336548,285.26302980423,604.482462873459,607.242462873459,1627568960.78929,1627568960.80053,1627568968.67557,1627568968.68425,1627568970.77636,1627568974.69449,1627568974.6967,1627568975.58441,1627568975.57816,1627569294.79759,0
33,4,1,3,16,5,2,c2_WhyHand,1,self-protection?,96,H_027.jpg,1627568687.55513,1627568687.5694,270.474163999558,7.87782001495361,278.360446920395,280.46123336792,0.3,285.579815378189,0.766953468322754,286.352894058228,1,left,0.750050067901611,286.346768846512,604.482462873459,607.242462873459,1627568960.78929,1627568960.80053,1627568968.67557,1627568968.68425,1627568970.77636,1627568975.89494,1627568975.90065,1627568976.66802,1627568976.6619,1627569294.79759,1
33,4,1,3,16,6,2,c2_WhyHand,1,self-protection?,93,H_038.jpg,1627568687.55513,1627568687.5694,270.474163999558,7.87782001495361,278.360446920395,280.46123336792,0.3,286.663554420471,0.883663654327393,287.552656164169,1,left,0.865952968597412,287.547218074799,604.482462873459,607.242462873459,1627568960.78929,1627568960.80053,1627568968.67557,1627568968.68425,1627568970.77636,1627568976.97868,1627568976.98513,1627568977.86778,1627568977.86234,1627569294.79759,1
33,4,1,3,16,7,2,c2_WhyHand,2,self-protection?,95,H_332.jpg,1627568687.55513,1627568687.5694,270.474163999558,7.87782001495361,278.360446920395,280.46123336792,0.3,287.864003410339,0.833645820617676,288.702658166885,3,right,0.807608842849731,288.697649230957,604.482462873459,607.242462873459,1627568960.78929,1627568960.80053,1627568968.67557,1627568968.68425,1627568970.77636,1627568978.17913,1627568978.18388,1627568979.01779,1627568979.01278,1627569294.79759,0
33,4,1,3,16,8,2,c2_WhyHand,1,self-protection?,94,H_189.jpg,1627568687.55513,1627568687.5694,270.474163999558,7.87782001495361,278.360446920395,280.46123336792,0.3,289.014433374405,0.766953945159912,289.785626163483,1,left,0.751692056655884,289.781387319565,604.482462873459,607.242462873459,1627568960.78929,1627568960.80053,1627568968.67557,1627568968.68425,1627568970.77636,1627568979.32956,1627568979.33405,1627568980.10075,1627568980.09651,1627569294.79759,1
33,4,1,3,17,1,3,c3_HowFace,1,smiling?,118,F_759.jpg,1627568687.55513,1627568687.5694,289.898097743988,9.93395829200745,299.851821889877,301.935934534073,2.08411264419556,302.085990419388,0.633570671081543,302.721770992279,1,left,0.603422164916992,302.719561090469,604.482462873459,607.242462873459,1627568980.21322,1627568980.21728,1627568990.16695,1627568990.16913,1627568992.25106,1627568992.40112,1627568992.4188,1627568993.0369,1627568993.03469,1627569294.79759,1
33,4,1,3,17,2,3,c3_HowFace,2,smiling?,114,F_412.jpg,1627568687.55513,1627568687.5694,289.898097743988,9.93395829200745,299.851821889877,301.935934534073,0.3,303.036345233917,0.583552837371826,303.62202214241,3,right,0.568275928497314,303.619898071289,604.482462873459,607.242462873459,1627568980.21322,1627568980.21728,1627568990.16695,1627568990.16913,1627568992.25106,1627568993.35147,1627568993.35356,1627568993.93715,1627568993.93502,1627569294.79759,0
33,4,1,3,17,3,3,c3_HowFace,1,smiling?,117,F_593.jpg,1627568687.55513,1627568687.5694,289.898097743988,9.93395829200745,299.851821889877,301.935934534073,0.3,303.936682929993,0.533533334732056,304.472357978821,1,left,0.513370990753174,304.470216264725,604.482462873459,607.242462873459,1627568980.21322,1627568980.21728,1627568990.16695,1627568990.16913,1627568992.25106,1627568994.25181,1627568994.25378,1627568994.78748,1627568994.78534,1627569294.79759,1
33,4,1,3,17,4,3,c3_HowFace,2,smiling?,113,F_712.jpg,1627568687.55513,1627568687.5694,289.898097743988,9.93395829200745,299.851821889877,301.935934534073,0.3,304.787000646591,0.666917085647583,305.456295003891,3,right,0.647187948226929,305.453917732239,604.482462873459,607.242462873459,1627568980.21322,1627568980.21728,1627568990.16695,1627568990.16913,1627568992.25106,1627568995.10213,1627568995.10422,1627568995.77142,1627568995.76904,1627569294.79759,0
33,4,1,3,17,5,3,c3_HowFace,1,smiling?,115,F_695.jpg,1627568687.55513,1627568687.5694,289.898097743988,9.93395829200745,299.851821889877,301.935934534073,0.3,305.77070306778,0.583551168441772,306.369794120789,1,left,0.566502094268799,306.354254236221,604.482462873459,607.242462873459,1627568980.21322,1627568980.21728,1627568990.16695,1627568990.16913,1627568992.25106,1627568996.08583,1627568996.08762,1627568996.68492,1627568996.66938,1627569294.79759,1
33,4,1,3,17,6,3,c3_HowFace,1,smiling?,119,F_139.jpg,1627568687.55513,1627568687.5694,289.898097743988,9.93395829200745,299.851821889877,301.935934534073,0.3,306.671039571762,0.533533573150635,307.20683216095,1,left,0.51086688041687,307.204573144913,604.482462873459,607.242462873459,1627568980.21322,1627568980.21728,1627568990.16695,1627568990.16913,1627568992.25106,1627568996.98617,1627568996.98816,1627568997.52196,1627568997.5197,1627569294.79759,1
33,4,1,3,17,7,3,c3_HowFace,1,smiling?,116,F_083.jpg,1627568687.55513,1627568687.5694,289.898097743988,9.93395829200745,299.851821889877,301.935934534073,0.3,307.521357765198,0.550206899642944,308.073770036697,1,left,0.532148838043213,308.071564664841,604.482462873459,607.242462873459,1627568980.21322,1627568980.21728,1627568990.16695,1627568990.16913,1627568992.25106,1627568997.83648,1627568997.83857,1627568998.3889,1627568998.38669,1627569294.79759,1
33,4,1,3,17,8,3,c3_HowFace,2,smiling?,120,F_758.jpg,1627568687.55513,1627568687.5694,289.898097743988,9.93395829200745,299.851821889877,301.935934534073,0.3,308.388348808289,0.616897821426392,309.007285108566,3,right,0.599259853363037,309.005246629715,604.482462873459,607.242462873459,1627568980.21322,1627568980.21728,1627568990.16695,1627568990.16913,1627568992.25106,1627568998.70348,1627568998.70544,1627568999.32241,1627568999.32037,1627569294.79759,0
33,4,1,3,18,1,1,c1_WhyFace,1,admiring?,1,F_593.jpg,1627568687.55513,1627568687.5694,309.105282773972,8.51667642593384,317.641811361313,319.725924243927,2.08411288261414,319.875979652405,0.600225687026978,320.478404035568,1,left,0.568624019622803,320.476205339432,604.482462873459,607.242462873459,1627568999.42041,1627568999.43399,1627569007.95694,1627569007.95937,1627569010.04105,1627569010.19111,1627569010.20066,1627569010.79353,1627569010.79133,1627569294.79759,1
33,4,1,3,18,2,1,c1_WhyFace,2,admiring?,2,F_129.jpg,1627568687.55513,1627568687.5694,309.105282773972,8.51667642593384,317.641811361313,319.725924243927,0.3,320.792990674973,0.866989850997925,321.669171085358,3,right,0.854604005813599,321.65998052597,604.482462873459,607.242462873459,1627568999.42041,1627568999.43399,1627569007.95694,1627569007.95937,1627569010.04105,1627569011.10812,1627569011.10969,1627569011.9843,1627569011.97511,1627569294.79759,0
33,4,1,3,18,3,1,c1_WhyFace,1,admiring?,5,F_759.jpg,1627568687.55513,1627568687.5694,309.105282773972,8.51667642593384,317.641811361313,319.725924243927,0.3,321.976766338348,0.950355768203735,322.935824146271,1,left,0.933689832687378,322.927122106552,604.482462873459,607.242462873459,1627568999.42041,1627568999.43399,1627569007.95694,1627569007.95937,1627569010.04105,1627569012.29189,1627569012.29417,1627569013.25095,1627569013.24225,1627569294.79759,1
33,4,1,3,18,4,1,c1_WhyFace,2,admiring?,6,F_692.jpg,1627568687.55513,1627568687.5694,309.105282773972,8.51667642593384,317.641811361313,319.725924243927,0.3,323.243906488419,0.866991758346558,324.119248142242,3,right,0.856636047363281,324.110898246765,604.482462873459,607.242462873459,1627568999.42041,1627568999.43399,1627569007.95694,1627569007.95937,1627569010.04105,1627569013.55903,1627569013.56131,1627569014.43438,1627569014.42603,1627569294.79759,0
33,4,1,3,18,5,1,c1_WhyFace,1,admiring?,4,F_779.jpg,1627568687.55513,1627568687.5694,309.105282773972,8.51667642593384,317.641811361313,319.725924243927,0.3,324.42768286705,0.633570194244385,325.069035997391,1,left,0.616014957427979,325.061253061295,604.482462873459,607.242462873459,1627568999.42041,1627568999.43399,1627569007.95694,1627569007.95937,1627569010.04105,1627569014.74281,1627569014.74502,1627569015.38416,1627569015.37638,1627569294.79759,1
33,4,1,3,18,6,1,c1_WhyFace,1,admiring?,8,F_590.jpg,1627568687.55513,1627568687.5694,309.105282773972,8.51667642593384,317.641811361313,319.725924243927,0.3,325.378038635254,0.866991281509399,326.247537126541,1,left,0.841830015182495,326.245029916763,604.482462873459,607.242462873459,1627568999.42041,1627568999.43399,1627569007.95694,1627569007.95937,1627569010.04105,1627569015.69317,1627569015.69528,1627569016.56266,1627569016.56016,1627569294.79759,1
33,4,1,3,18,7,1,c1_WhyFace,1,admiring?,7,F_648.jpg,1627568687.55513,1627568687.5694,309.105282773972,8.51667642593384,317.641811361313,319.725924243927,0.3,326.561814537048,0.750280380249023,327.318950166702,1,left,0.732421159744263,327.312094917297,604.482462873459,607.242462873459,1627568999.42041,1627568999.43399,1627569007.95694,1627569007.95937,1627569010.04105,1627569016.87694,1627569016.87913,1627569017.63408,1627569017.62722,1627569294.79759,1
33,4,1,3,18,8,1,c1_WhyFace,2,admiring?,3,F_110.jpg,1627568687.55513,1627568687.5694,309.105282773972,8.51667642593384,317.641811361313,319.725924243927,0.3,327.628880968094,0.85031795501709,328.485657205582,3,right,0.838809967041016,328.479198923111,604.482462873459,607.242462873459,1627568999.42041,1627568999.43399,1627569007.95694,1627569007.95937,1627569010.04105,1627569017.94401,1627569017.94646,1627569018.80078,1627569018.79433,1627569294.79759,0
33,4,1,3,19,1,2,c2_WhyHand,1,competing?,9,H_261.jpg,1627568687.55513,1627568687.5694,328.595909109116,6.91608810424805,335.531837215424,337.615951051712,2.08411383628845,337.766007175446,0.783625841140747,338.552470197678,1,left,0.762945175170898,338.549633016586,604.482462873459,607.242462873459,1627569018.91104,1627569018.91705,1627569025.84696,1627569025.84919,1627569027.93108,1627569028.08113,1627569028.0839,1627569028.8676,1627569028.86476,1627569294.79759,1
33,4,1,3,19,2,2,c2_WhyHand,1,competing?,15,H_170.jpg,1627568687.55513,1627568687.5694,328.595909109116,6.91608810424805,335.531837215424,337.615951051712,0.3,338.86641787529,0.533532857894897,339.402286996841,1,left,0.516145944595337,339.399950733185,604.482462873459,607.242462873459,1627569018.91104,1627569018.91705,1627569025.84696,1627569025.84919,1627569027.93108,1627569029.18154,1627569029.18395,1627569029.71741,1627569029.71508,1627569294.79759,1
33,4,1,3,19,3,2,c2_WhyHand,2,competing?,12,H_483.jpg,1627568687.55513,1627568687.5694,328.595909109116,6.91608810424805,335.531837215424,337.615951051712,0.3,339.716737260818,0.883662700653076,340.602420082092,3,right,0.867238998413086,340.600399961472,604.482462873459,607.242462873459,1627569018.91104,1627569018.91705,1627569025.84696,1627569025.84919,1627569027.93108,1627569030.03186,1627569030.03406,1627569030.91755,1627569030.91553,1627569294.79759,0
33,4,1,3,19,4,2,c2_WhyHand,1,competing?,14,H_132.jpg,1627568687.55513,1627568687.5694,328.595909109116,6.91608810424805,335.531837215424,337.615951051712,0.3,340.917185773849,0.683589220046997,341.602991094589,1,left,0.662873029708862,341.600774993896,604.482462873459,607.242462873459,1627569018.91104,1627569018.91705,1627569025.84696,1627569025.84919,1627569027.93108,1627569031.23231,1627569031.23416,1627569031.91812,1627569031.9159,1627569294.79759,1
33,4,1,3,19,5,2,c2_WhyHand,1,competing?,16,H_136.jpg,1627568687.55513,1627568687.5694,328.595909109116,6.91608810424805,335.531837215424,337.615951051712,0.3,341.917560091019,0.666915893554688,342.586788167954,1,left,0.649361133575439,342.584475984573,604.482462873459,607.242462873459,1627569018.91104,1627569018.91705,1627569025.84696,1627569025.84919,1627569027.93108,1627569032.23269,1627569032.23466,1627569032.90192,1627569032.8996,1627569294.79759,1
33,4,1,3,19,6,2,c2_WhyHand,1,competing?,13,H_003.jpg,1627568687.55513,1627568687.5694,328.595909109116,6.91608810424805,335.531837215424,337.615951051712,0.3,342.901261081696,0.600224733352661,343.503653993607,1,left,0.581438064575195,343.501485815048,604.482462873459,607.242462873459,1627569018.91104,1627569018.91705,1627569025.84696,1627569025.84919,1627569027.93108,1627569033.21639,1627569033.21847,1627569033.81878,1627569033.81661,1627569294.79759,1
33,4,1,3,19,7,2,c2_WhyHand,2,competing?,10,H_126.jpg,1627568687.55513,1627568687.5694,328.595909109116,6.91608810424805,335.531837215424,337.615951051712,0.3,343.818269720078,0.650243997573853,344.470889081955,3,right,0.635640144348145,344.468513717651,604.482462873459,607.242462873459,1627569018.91104,1627569018.91705,1627569025.84696,1627569025.84919,1627569027.93108,1627569034.1334,1627569034.13556,1627569034.78602,1627569034.78364,1627569294.79759,0
33,4,1,3,19,8,2,c2_WhyHand,2,competing?,11,H_502.jpg,1627568687.55513,1627568687.5694,328.595909109116,6.91608810424805,335.531837215424,337.615951051712,0.3,344.785299530029,0.866991519927979,345.654931058884,3,right,0.847507953643799,345.652291049957,604.482462873459,607.242462873459,1627569018.91104,1627569018.91705,1627569025.84696,1627569025.84919,1627569027.93108,1627569035.10043,1627569035.1027,1627569035.97006,1627569035.96742,1627569294.79759,0
33,4,1,3,20,1,4,c4_HowHand,1,reaching?,111,H_003.jpg,1627568687.55513,1627568687.5694,345.769000997543,11.2231020927429,357.006538858414,359.107324590683,2.10078573226929,359.257381906509,0.616896152496338,359.876500120163,1,left,0.59483814239502,359.874278059006,604.482462873459,607.242462873459,1627569036.08413,1627569036.08625,1627569047.32167,1627569047.32395,1627569049.42245,1627569049.57251,1627569049.5746,1627569050.19163,1627569050.1894,1627569294.79759,1
33,4,1,3,20,2,4,c4_HowHand,1,reaching?,110,H_364.jpg,1627568687.55513,1627568687.5694,345.769000997543,11.2231020927429,357.006538858414,359.107324590683,0.3,360.191063632965,0.733607769012451,360.926825990677,1,left,0.709290027618408,360.924671401978,604.482462873459,607.242462873459,1627569036.08413,1627569036.08625,1627569047.32167,1627569047.32395,1627569049.42245,1627569050.50619,1627569050.50843,1627569051.24195,1627569051.2398,1627569294.79759,1
33,4,1,3,20,3,4,c4_HowHand,2,reaching?,108,H_532.jpg,1627568687.55513,1627568687.5694,345.769000997543,11.2231020927429,357.006538858414,359.107324590683,0.3,361.241456737518,0.866991519927979,362.110498180389,3,right,0.844151973724365,362.108448257446,604.482462873459,607.242462873459,1627569036.08413,1627569036.08625,1627569047.32167,1627569047.32395,1627569049.42245,1627569051.55658,1627569051.55882,1627569052.42563,1627569052.42358,1627569294.79759,0
33,4,1,3,20,4,4,c4_HowHand,1,reaching?,106,H_006.jpg,1627568687.55513,1627568687.5694,345.769000997543,11.2231020927429,357.006538858414,359.107324590683,0.3,362.425232877731,0.616896867752075,363.044407119751,1,left,0.594060182571411,363.042129745483,604.482462873459,607.242462873459,1627569036.08413,1627569036.08625,1627569047.32167,1627569047.32395,1627569049.42245,1627569052.74036,1627569052.74273,1627569053.35953,1627569053.35726,1627569294.79759,1
33,4,1,3,20,5,4,c4_HowHand,2,reaching?,105,H_438.jpg,1627568687.55513,1627568687.5694,345.769000997543,11.2231020927429,357.006538858414,359.107324590683,0.3,363.358916273117,0.83364462852478,364.194524040222,3,right,0.812826871871948,364.192560901642,604.482462873459,607.242462873459,1627569036.08413,1627569036.08625,1627569047.32167,1627569047.32395,1627569049.42245,1627569053.67404,1627569053.6765,1627569054.50965,1627569054.50769,1627569294.79759,0
33,4,1,3,20,6,4,c4_HowHand,1,reaching?,107,H_007.jpg,1627568687.55513,1627568687.5694,345.769000997543,11.2231020927429,357.006538858414,359.107324590683,0.3,364.509345283508,0.533532857894897,365.045435180664,1,left,0.511076927185059,365.042878141403,604.482462873459,607.242462873459,1627569036.08413,1627569036.08625,1627569047.32167,1627569047.32395,1627569049.42245,1627569054.82447,1627569054.82706,1627569055.36056,1627569055.35801,1627569294.79759,1
33,4,1,3,20,7,4,c4_HowHand,1,reaching?,109,H_474.jpg,1627568687.55513,1627568687.5694,345.769000997543,11.2231020927429,357.006538858414,359.107324590683,0.3,365.359663476944,0.866991519927979,366.235563030243,1,left,0.850950002670288,366.226654996872,604.482462873459,607.242462873459,1627569036.08413,1627569036.08625,1627569047.32167,1627569047.32395,1627569049.42245,1627569055.67479,1627569055.67709,1627569056.55069,1627569056.54178,1627569294.79759,1
33,4,1,3,20,8,4,c4_HowHand,2,reaching?,112,H_132.jpg,1627568687.55513,1627568687.5694,345.769000997543,11.2231020927429,357.006538858414,359.107324590683,0.3,366.543440332413,0.766953706741333,367.318871011734,3,right,0.756886959075928,367.310394039154,604.482462873459,607.242462873459,1627569036.08413,1627569036.08625,1627569047.32167,1627569047.32395,1627569049.42245,1627569056.85857,1627569056.86086,1627569057.634,1627569057.62552,1627569294.79759,0
33,4,1,3,21,1,3,c3_HowFace,1,open mouth?,73,F_403.jpg,1627568687.55513,1627568687.5694,367.427103748322,7.40496134757996,374.846547355652,376.947332849503,2.10078549385071,377.097388734818,0.783627033233643,377.884528150558,1,left,0.756470918655396,377.881015768051,604.482462873459,607.242462873459,1627569057.74223,1627569057.75129,1627569065.16167,1627569065.16771,1627569067.26246,1627569067.41252,1627569067.41756,1627569068.19966,1627569068.19614,1627569294.79759,1
33,4,1,3,21,2,3,c3_HowFace,2,open mouth?,79,F_648.jpg,1627568687.55513,1627568687.5694,367.427103748322,7.40496134757996,374.846547355652,376.947332849503,0.3,378.197800865173,0.983700752258301,379.185788145065,3,right,0.968473196029663,379.181501617432,604.482462873459,607.242462873459,1627569057.74223,1627569057.75129,1627569065.16167,1627569065.16771,1627569067.26246,1627569068.51293,1627569068.51741,1627569069.50092,1627569069.49663,1627569294.79759,0
33,4,1,3,21,3,3,c3_HowFace,1,open mouth?,74,F_776.jpg,1627568687.55513,1627568687.5694,367.427103748322,7.40496134757996,374.846547355652,376.947332849503,0.3,379.498288860321,0.533531665802002,380.035783996582,1,left,0.513190984725952,380.031820526123,604.482462873459,607.242462873459,1627569057.74223,1627569057.75129,1627569065.16167,1627569065.16771,1627569067.26246,1627569069.81342,1627569069.81756,1627569070.35091,1627569070.34695,1627569294.79759,1
33,4,1,3,21,4,3,c3_HowFace,2,open mouth?,77,F_584.jpg,1627568687.55513,1627568687.5694,367.427103748322,7.40496134757996,374.846547355652,376.947332849503,0.3,380.348605146408,0.583551645278931,380.934437980652,3,right,0.554558038711548,380.932156791687,604.482462873459,607.242462873459,1627569057.74223,1627569057.75129,1627569065.16167,1627569065.16771,1627569067.26246,1627569070.66373,1627569070.66821,1627569071.24956,1627569071.24728,1627569294.79759,0
33,4,1,3,21,5,3,c3_HowFace,1,open mouth?,80,F_844.jpg,1627568687.55513,1627568687.5694,367.427103748322,7.40496134757996,374.846547355652,376.947332849503,0.3,381.248941888809,0.450168609619141,381.702345123291,1,left,0.426542043685913,381.699110498428,604.482462873459,607.242462873459,1627569057.74223,1627569057.75129,1627569065.16167,1627569065.16771,1627569067.26246,1627569071.56407,1627569071.56741,1627569072.01747,1627569072.01424,1627569294.79759,1
33,4,1,3,21,6,3,c3_HowFace,1,open mouth?,78,F_692.jpg,1627568687.55513,1627568687.5694,367.427103748322,7.40496134757996,374.846547355652,376.947332849503,0.3,382.015896072388,0.450168132781982,382.468974103928,1,left,0.430697917938232,382.46606420517,604.482462873459,607.242462873459,1627569057.74223,1627569057.75129,1627569065.16167,1627569065.16771,1627569067.26246,1627569072.33102,1627569072.33399,1627569072.7841,1627569072.78119,1627569294.79759,1
33,4,1,3,21,7,3,c3_HowFace,1,open mouth?,75,F_086.jpg,1627568687.55513,1627568687.5694,367.427103748322,7.40496134757996,374.846547355652,376.947332849503,0.3,382.782849063873,0.45016884803772,383.23561214447,1,left,0.431272983551025,383.233017911911,604.482462873459,607.242462873459,1627569057.74223,1627569057.75129,1627569065.16167,1627569065.16771,1627569067.26246,1627569073.09798,1627569073.10073,1627569073.55074,1627569073.54814,1627569294.79759,1
33,4,1,3,21,8,3,c3_HowFace,2,open mouth?,76,F_544.jpg,1627568687.55513,1627568687.5694,367.427103748322,7.40496134757996,374.846547355652,376.947332849503,0.3,383.54980348587,0.633569240570068,384.185602178574,3,right,0.610295057296753,384.18337272644,604.482462873459,607.242462873459,1627569057.74223,1627569057.75129,1627569065.16167,1627569065.16771,1627569067.26246,1627569073.86493,1627569073.86714,1627569074.50073,1627569074.4985,1627569294.79759,0
33,4,1,3,22,1,1,c1_WhyFace,1,argument?,42,F_403.jpg,1627568687.55513,1627568687.5694,384.283411493301,9.2246105670929,393.52019952774,395.620986452103,2.10078692436218,395.771041622162,0.933683395385742,396.706674089432,1,left,0.917965173721313,396.704725017548,604.482462873459,607.242462873459,1627569074.59854,1627569074.60121,1627569083.83533,1627569083.83735,1627569085.93611,1627569086.08617,1627569086.08836,1627569087.0218,1627569087.01985,1627569294.79759,1
33,4,1,3,22,2,1,c1_WhyFace,2,argument?,46,F_844.jpg,1627568687.55513,1627568687.5694,384.283411493301,9.2246105670929,393.52019952774,395.620986452103,0.3,397.021509876251,0.633570194244385,397.6572270298,3,right,0.614960908889771,397.655080070496,604.482462873459,607.242462873459,1627569074.59854,1627569074.60121,1627569083.83533,1627569083.83735,1627569085.93611,1627569087.33664,1627569087.3387,1627569087.97235,1627569087.97021,1627569294.79759,0
33,4,1,3,22,3,1,c1_WhyFace,1,argument?,41,F_712.jpg,1627568687.55513,1627568687.5694,384.283411493301,9.2246105670929,393.52019952774,395.620986452103,0.3,397.971864929199,0.616898059844971,398.591479053497,1,left,0.593778848648071,398.588762989044,604.482462873459,607.242462873459,1627569074.59854,1627569074.60121,1627569083.83533,1627569083.83735,1627569085.93611,1627569088.28699,1627569088.28899,1627569088.90661,1627569088.90389,1627569294.79759,1
33,4,1,3,22,4,1,c1_WhyFace,1,argument?,48,F_758.jpg,1627568687.55513,1627568687.5694,384.283411493301,9.2246105670929,393.52019952774,395.620986452103,0.3,398.905548563004,0.850317478179932,399.757995119095,1,left,0.83103609085083,399.755866041183,604.482462873459,607.242462873459,1627569074.59854,1627569074.60121,1627569083.83533,1627569083.83735,1627569085.93611,1627569089.22068,1627569089.2228,1627569090.07312,1627569090.07099,1627569294.79759,1
33,4,1,3,22,5,1,c1_WhyFace,2,argument?,45,F_433.jpg,1627568687.55513,1627568687.5694,384.283411493301,9.2246105670929,393.52019952774,395.620986452103,0.3,400.072649707794,0.550207853317261,400.635812988281,3,right,0.539061069488525,400.622857561111,604.482462873459,607.242462873459,1627569074.59854,1627569074.60121,1627569083.83533,1627569083.83735,1627569085.93611,1627569090.38778,1627569090.39005,1627569090.95094,1627569090.93798,1627569294.79759,0
33,4,1,3,22,6,1,c1_WhyFace,1,argument?,43,F_716.jpg,1627568687.55513,1627568687.5694,384.283411493301,9.2246105670929,393.52019952774,395.620986452103,0.3,400.939641942978,0.650244235992432,401.602257003784,1,left,0.635627031326294,401.58988617897,604.482462873459,607.242462873459,1627569074.59854,1627569074.60121,1627569083.83533,1627569083.83735,1627569085.93611,1627569091.25477,1627569091.25687,1627569091.91738,1627569091.90501,1627569294.79759,1
33,4,1,3,22,7,1,c1_WhyFace,2,argument?,44,F_139.jpg,1627568687.55513,1627568687.5694,384.283411493301,9.2246105670929,393.52019952774,395.620986452103,0.3,401.906670560837,0.866991519927979,402.776101102829,3,right,0.847660064697266,402.773662080765,604.482462873459,607.242462873459,1627569074.59854,1627569074.60121,1627569083.83533,1627569083.83735,1627569085.93611,1627569092.2218,1627569092.2239,1627569093.09123,1627569093.08879,1627569294.79759,0
33,4,1,3,22,8,1,c1_WhyFace,1,argument?,47,F_743.jpg,1627568687.55513,1627568687.5694,384.283411493301,9.2246105670929,393.52019952774,395.620986452103,0.3,403.090447654724,0.583551168441772,403.676089038849,1,left,0.562380075454712,403.673998823166,604.482462873459,607.242462873459,1627569074.59854,1627569074.60121,1627569083.83533,1627569083.83735,1627569085.93611,1627569093.40557,1627569093.40742,1627569093.99122,1627569093.98913,1627569294.79759,1
33,4,1,3,23,1,2,c2_WhyHand,1,helping?,39,H_024.jpg,1627568687.55513,1627568687.5694,403.790709247589,7.93728876113892,411.743684997559,413.844471445084,2.10078644752502,413.994526853561,1.13375687599182,415.135812034607,1,left,1.11410903930664,415.128283729553,604.482462873459,607.242462873459,1627569094.10584,1627569094.10806,1627569102.05881,1627569102.06092,1627569104.1596,1627569104.30965,1627569104.31188,1627569105.45094,1627569105.44341,1627569294.79759,1
33,4,1,3,23,2,2,c2_WhyHand,1,helping?,36,H_349.jpg,1627568687.55513,1627568687.5694,403.790709247589,7.93728876113892,411.743684997559,413.844471445084,0.3,415.445069303513,1.05039381980896,416.501985063553,1,left,1.04081392288208,416.495463123322,604.482462873459,607.242462873459,1627569094.10584,1627569094.10806,1627569102.05881,1627569102.06092,1627569104.1596,1627569105.7602,1627569105.76245,1627569106.81711,1627569106.81059,1627569294.79759,1
33,4,1,3,23,3,2,c2_WhyHand,1,helping?,38,H_077.jpg,1627568687.55513,1627568687.5694,403.790709247589,7.93728876113892,411.743684997559,413.844471445084,0.3,416.812247266769,0.55020546913147,417.364680995941,1,left,0.528298139572144,417.362452735901,604.482462873459,607.242462873459,1627569094.10584,1627569094.10806,1627569102.05881,1627569102.06092,1627569104.1596,1627569107.12737,1627569107.12924,1627569107.67981,1627569107.67758,1627569294.79759,1
33,4,1,3,23,4,2,c2_WhyHand,1,helping?,37,H_474.jpg,1627568687.55513,1627568687.5694,403.790709247589,7.93728876113892,411.743684997559,413.844471445084,0.3,417.679239263535,0.766952753067017,418.452867021561,1,left,0.752723932266235,418.446192016602,604.482462873459,607.242462873459,1627569094.10584,1627569094.10806,1627569102.05881,1627569102.06092,1627569104.1596,1627569107.99437,1627569107.99673,1627569108.76799,1627569108.76132,1627569294.79759,1
33,4,1,3,23,5,2,c2_WhyHand,2,helping?,33,H_091.jpg,1627568687.55513,1627568687.5694,403.790709247589,7.93728876113892,411.743684997559,413.844471445084,0.3,418.76297782898,0.683588981628418,419.448992004395,3,right,0.660542011260986,419.446566810608,604.482462873459,607.242462873459,1627569094.10584,1627569094.10806,1627569102.05881,1627569102.06092,1627569104.1596,1627569109.0781,1627569109.08005,1627569109.76412,1627569109.76169,1627569294.79759,0
33,4,1,3,23,6,2,c2_WhyHand,2,helping?,35,H_159.jpg,1627568687.55513,1627568687.5694,403.790709247589,7.93728876113892,411.743684997559,413.844471445084,0.3,419.763351430893,0.666916608810425,420.433090200424,3,right,0.637780904769897,420.430268039703,604.482462873459,607.242462873459,1627569094.10584,1627569094.10806,1627569102.05881,1627569102.06092,1627569104.1596,1627569110.07848,1627569110.08432,1627569110.74822,1627569110.74539,1627569294.79759,0
33,4,1,3,23,7,2,c2_WhyHand,1,helping?,34,H_111.jpg,1627568687.55513,1627568687.5694,403.790709247589,7.93728876113892,411.743684997559,413.844471445084,0.3,420.747053136826,0.583551645278931,421.335808029175,1,left,0.558295011520386,421.330604782105,604.482462873459,607.242462873459,1627569094.10584,1627569094.10806,1627569102.05881,1627569102.06092,1627569104.1596,1627569111.06218,1627569111.06731,1627569111.65093,1627569111.64573,1627569294.79759,1
33,4,1,3,23,8,2,c2_WhyHand,2,helping?,40,H_012.jpg,1627568687.55513,1627568687.5694,403.790709247589,7.93728876113892,411.743684997559,413.844471445084,0.3,421.647390832901,0.800299167633057,422.452942123413,3,right,0.779392004013062,422.447690000534,604.482462873459,607.242462873459,1627569094.10584,1627569094.10806,1627569102.05881,1627569102.06092,1627569104.1596,1627569111.96252,1627569111.9673,1627569112.76807,1627569112.76282,1627569294.79759,0
33,4,1,3,24,1,4,c4_HowHand,1,both hands?,122,H_111.jpg,1627568687.55513,1627568687.5694,422.564400186539,7.23358988761902,429.817112913132,431.901225795746,2.08411288261414,432.051282634735,0.716934204101562,432.770999183655,1,left,0.682954072952271,432.768216838837,604.482462873459,607.242462873459,1627569112.87953,1627569112.88431,1627569120.13224,1627569120.13434,1627569122.21635,1627569122.36641,1627569122.38432,1627569123.08613,1627569123.08334,1627569294.79759,1
33,4,1,3,24,2,4,c4_HowHand,1,both hands?,128,H_027.jpg,1627568687.55513,1627568687.5694,422.564400186539,7.23358988761902,429.817112913132,431.901225795746,0.3,433.085003604889,0.666915416717529,433.754008045197,1,left,0.641561031341553,433.751919021606,604.482462873459,607.242462873459,1627569112.87953,1627569112.88431,1627569120.13224,1627569120.13434,1627569122.21635,1627569123.40013,1627569123.40213,1627569124.06913,1627569124.06705,1627569294.79759,1
33,4,1,3,24,3,4,c4_HowHand,2,both hands?,121,H_091.jpg,1627568687.55513,1627568687.5694,422.564400186539,7.23358988761902,429.817112913132,431.901225795746,0.3,434.068703403473,0.600225448608398,434.671301116943,3,right,0.585988998413086,434.668928852081,604.482462873459,607.242462873459,1627569112.87953,1627569112.88431,1627569120.13224,1627569120.13434,1627569122.21635,1627569124.38383,1627569124.38608,1627569124.98643,1627569124.98406,1627569294.79759,0
33,4,1,3,24,4,4,c4_HowHand,1,both hands?,123,H_167.jpg,1627568687.55513,1627568687.5694,422.564400186539,7.23358988761902,429.817112913132,431.901225795746,0.3,434.985713949204,0.783626079559326,435.771508207321,1,left,0.760043144226074,435.769340028763,604.482462873459,607.242462873459,1627569112.87953,1627569112.88431,1627569120.13224,1627569120.13434,1627569122.21635,1627569125.30084,1627569125.30307,1627569126.08664,1627569126.08447,1627569294.79759,1
33,4,1,3,24,5,4,c4_HowHand,1,both hands?,124,H_581.jpg,1627568687.55513,1627568687.5694,422.564400186539,7.23358988761902,429.817112913132,431.901225795746,0.3,436.086126079559,0.700262069702148,436.788812150955,1,left,0.682248830795288,436.786388149261,604.482462873459,607.242462873459,1627569112.87953,1627569112.88431,1627569120.13224,1627569120.13434,1627569122.21635,1627569126.40125,1627569126.40341,1627569127.10394,1627569127.10152,1627569294.79759,1
33,4,1,3,24,6,4,c4_HowHand,2,both hands?,126,H_159.jpg,1627568687.55513,1627568687.5694,422.564400186539,7.23358988761902,429.817112913132,431.901225795746,0.3,437.103173007965,0.650243520736694,437.755271186829,3,right,0.624824047088623,437.753416528702,604.482462873459,607.242462873459,1627569112.87953,1627569112.88431,1627569120.13224,1627569120.13434,1627569122.21635,1627569127.4183,1627569127.42058,1627569128.0704,1627569128.06854,1627569294.79759,0
33,4,1,3,24,7,4,c4_HowHand,1,both hands?,127,H_349.jpg,1627568687.55513,1627568687.5694,422.564400186539,7.23358988761902,429.817112913132,431.901225795746,0.3,438.070201148987,0.616897106170654,438.689047088623,1,left,0.598110914230347,438.687098255157,604.482462873459,607.242462873459,1627569112.87953,1627569112.88431,1627569120.13224,1627569120.13434,1627569122.21635,1627569128.38533,1627569128.38812,1627569129.00417,1627569129.00223,1627569294.79759,1
33,4,1,3,24,8,4,c4_HowHand,2,both hands?,125,H_627.jpg,1627568687.55513,1627568687.5694,422.564400186539,7.23358988761902,429.817112913132,431.901225795746,0.3,439.003884305954,0.666915655136108,439.673598995209,3,right,0.643244028091431,439.67079996109,604.482462873459,607.242462873459,1627569112.87953,1627569112.88431,1627569120.13224,1627569120.13434,1627569122.21635,1627569129.31901,1627569129.32114,1627569129.98873,1627569129.98593,1627569294.79759,0
33,4,1,3,25,1,2,c2_WhyHand,1,healthy?,18,H_438.jpg,1627568687.55513,1627568687.5694,439.787511339188,7.52747964859009,447.323662748337,449.424450149536,2.10078740119934,449.574505081177,0.85031795501709,450.427257051468,1,left,0.823218107223511,450.424823036194,604.482462873459,607.242462873459,1627569130.10264,1627569130.10458,1627569137.63879,1627569137.65059,1627569139.73958,1627569139.88963,1627569139.90085,1627569140.74238,1627569140.73995,1627569294.79759,1
33,4,1,3,25,2,2,c2_WhyHand,1,healthy?,23,H_364.jpg,1627568687.55513,1627568687.5694,439.787511339188,7.52747964859009,447.323662748337,449.424450149536,0.3,450.741609325409,0.533533573150635,451.277326097488,1,left,0.511105060577393,451.27514289856,604.482462873459,607.242462873459,1627569130.10264,1627569130.10458,1627569137.63879,1627569137.65059,1627569139.73958,1627569141.05674,1627569141.05894,1627569141.59245,1627569141.59027,1627569294.79759,1
33,4,1,3,25,3,2,c2_WhyHand,1,healthy?,17,H_362.jpg,1627568687.55513,1627568687.5694,439.787511339188,7.52747964859009,447.323662748337,449.424450149536,0.3,451.591926803589,0.516860008239746,452.111009111404,1,left,0.491452932357788,452.108786811829,604.482462873459,607.242462873459,1627569130.10264,1627569130.10458,1627569137.63879,1627569137.65059,1627569139.73958,1627569141.90705,1627569141.90928,1627569142.42614,1627569142.42391,1627569294.79759,1
33,4,1,3,25,4,2,c2_WhyHand,2,healthy?,24,H_019.jpg,1627568687.55513,1627568687.5694,439.787511339188,7.52747964859009,447.323662748337,449.424450149536,0.3,452.425570478439,0.550207376480103,452.978243103027,3,right,0.528770923614502,452.975777854919,604.482462873459,607.242462873459,1627569130.10264,1627569130.10458,1627569137.63879,1627569137.65059,1627569139.73958,1627569142.7407,1627569142.74309,1627569143.29337,1627569143.2909,1627569294.79759,0
33,4,1,3,25,5,2,c2_WhyHand,1,healthy?,19,H_167.jpg,1627568687.55513,1627568687.5694,439.787511339188,7.52747964859009,447.323662748337,449.424450149536,0.3,453.292562475204,0.650243282318115,453.952541103363,1,left,0.633902072906494,453.942805757523,604.482462873459,607.242462873459,1627569130.10264,1627569130.10458,1627569137.63879,1627569137.65059,1627569139.73958,1627569143.60769,1627569143.61014,1627569144.26767,1627569144.25793,1627569294.79759,1
33,4,1,3,25,6,2,c2_WhyHand,2,healthy?,20,H_007.jpg,1627568687.55513,1627568687.5694,439.787511339188,7.52747964859009,447.323662748337,449.424450149536,0.3,454.259592046738,0.750281095504761,455.012307157516,3,right,0.726276874542236,455.009873142242,604.482462873459,607.242462873459,1627569130.10264,1627569130.10458,1627569137.63879,1627569137.65059,1627569139.73958,1627569144.57472,1627569144.57696,1627569145.32743,1627569145.325,1627569294.79759,0
33,4,1,3,25,7,2,c2_WhyHand,1,healthy?,21,H_627.jpg,1627568687.55513,1627568687.5694,439.787511339188,7.52747964859009,447.323662748337,449.424450149536,0.3,455.326657524109,0.700261831283569,456.036011209488,1,left,0.687238931655884,456.026919355392,604.482462873459,607.242462873459,1627569130.10264,1627569130.10458,1627569137.63879,1627569137.65059,1627569139.73958,1627569145.64178,1627569145.64385,1627569146.35114,1627569146.34205,1627569294.79759,1
33,4,1,3,25,8,2,c2_WhyHand,2,healthy?,22,H_130.jpg,1627568687.55513,1627568687.5694,439.787511339188,7.52747964859009,447.323662748337,449.424450149536,0.3,456.34370516777,0.600224256515503,456.952428092957,3,right,0.59157395362854,456.943929424286,604.482462873459,607.242462873459,1627569130.10264,1627569130.10458,1627569137.63879,1627569137.65059,1627569139.73958,1627569146.65883,1627569146.66086,1627569147.26755,1627569147.25906,1627569294.79759,0
33,4,1,3,26,1,4,c4_HowHand,1,pressing button?,82,H_126.jpg,1627568687.55513,1627568687.5694,457.060639610291,9.30842256546021,466.38079284668,468.481578817368,2.10078597068787,468.631635417938,0.650243997573853,469.285564174652,1,left,0.630218029022217,469.281879415512,604.482462873459,607.242462873459,1627569147.37577,1627569147.38417,1627569156.69592,1627569156.70082,1627569158.79671,1627569158.94676,1627569158.95108,1627569159.60069,1627569159.59701,1627569294.79759,1
33,4,1,3,26,2,4,c4_HowHand,2,pressing button?,85,H_130.jpg,1627568687.55513,1627568687.5694,457.060639610291,9.30842256546021,466.38079284668,468.481578817368,0.3,469.598664035797,0.700262308120728,470.302722206116,3,right,0.677889108657837,470.298926343918,604.482462873459,607.242462873459,1627569147.37577,1627569147.38417,1627569156.69592,1627569156.70082,1627569158.79671,1627569159.91379,1627569159.91724,1627569160.61785,1627569160.61405,1627569294.79759,0
33,4,1,3,26,3,4,c4_HowHand,1,pressing button?,84,H_483.jpg,1627568687.55513,1627568687.5694,457.060639610291,9.30842256546021,466.38079284668,468.481578817368,0.3,470.615710487366,0.516860485076904,471.135534992218,1,left,0.493541955947876,471.132570972443,604.482462873459,607.242462873459,1627569147.37577,1627569147.38417,1627569156.69592,1627569156.70082,1627569158.79671,1627569160.93084,1627569160.93409,1627569161.45066,1627569161.4477,1627569294.79759,1
33,4,1,3,26,4,4,c4_HowHand,2,pressing button?,87,H_024.jpg,1627568687.55513,1627568687.5694,457.060639610291,9.30842256546021,466.38079284668,468.481578817368,0.3,471.449357500076,0.650242328643799,472.102466096878,3,right,0.633893966674805,472.09959982872,604.482462873459,607.242462873459,1627569147.37577,1627569147.38417,1627569156.69592,1627569156.70082,1627569158.79671,1627569161.76448,1627569161.76751,1627569162.41759,1627569162.41473,1627569294.79759,0
33,4,1,3,26,5,4,c4_HowHand,1,pressing button?,86,H_332.jpg,1627568687.55513,1627568687.5694,457.060639610291,9.30842256546021,466.38079284668,468.481578817368,0.3,472.416384687424,0.466841459274292,472.885796060562,1,left,0.448891162872314,472.883226146698,604.482462873459,607.242462873459,1627569147.37577,1627569147.38417,1627569156.69592,1627569156.70082,1627569158.79671,1627569162.73151,1627569162.7343,1627569163.20092,1627569163.19835,1627569294.79759,1
33,4,1,3,26,6,4,c4_HowHand,1,pressing button?,88,H_019.jpg,1627568687.55513,1627568687.5694,457.060639610291,9.30842256546021,466.38079284668,468.481578817368,0.3,473.200010528564,0.466842412948608,473.669145097733,1,left,0.442406892776489,473.666852941513,604.482462873459,607.242462873459,1627569147.37577,1627569147.38417,1627569156.69592,1627569156.70082,1627569158.79671,1627569163.51514,1627569163.51765,1627569163.98427,1627569163.98198,1627569294.79759,1
33,4,1,3,26,7,4,c4_HowHand,2,pressing button?,81,H_261.jpg,1627568687.55513,1627568687.5694,457.060639610291,9.30842256546021,466.38079284668,468.481578817368,0.3,473.983637800217,0.516860246658325,474.502252092361,3,right,0.503561973571777,474.500498046875,604.482462873459,607.242462873459,1627569147.37577,1627569147.38417,1627569156.69592,1627569156.70082,1627569158.79671,1627569164.29876,1627569164.30111,1627569164.81738,1627569164.81562,1627569294.79759,0
33,4,1,3,26,8,4,c4_HowHand,1,pressing button?,83,H_502.jpg,1627568687.55513,1627568687.5694,457.060639610291,9.30842256546021,466.38079284668,468.481578817368,0.3,474.81728266716,0.483514070510864,475.302952041626,1,left,0.469834089279175,475.300796737671,604.482462873459,607.242462873459,1627569147.37577,1627569147.38417,1627569156.69592,1627569156.70082,1627569158.79671,1627569165.13241,1627569165.1344,1627569165.61808,1627569165.61592,1627569294.79759,1
33,4,1,3,27,1,3,c3_HowFace,1,looking at camera?,60,F_618.jpg,1627568687.55513,1627568687.5694,475.41750787735,8.48158431053162,483.904016246796,486.004802217484,2.10078597068787,486.15485786438,0.483515739440918,486.641122093201,1,left,0.445723056793213,486.638373603821,604.482462873459,607.242462873459,1627569165.73263,1627569165.73477,1627569174.21914,1627569174.23417,1627569176.31993,1627569176.46998,1627569176.48435,1627569176.95625,1627569176.9535,1627569294.79759,1
33,4,1,3,27,2,3,c3_HowFace,2,looking at camera?,58,F_754.jpg,1627568687.55513,1627568687.5694,475.41750787735,8.48158431053162,483.904016246796,486.004802217484,0.3,486.955157985687,0.716934204101562,487.674327125549,3,right,0.693602085113525,487.672092189789,604.482462873459,607.242462873459,1627569165.73263,1627569165.73477,1627569174.21914,1627569174.23417,1627569176.31993,1627569177.27028,1627569177.27242,1627569177.98945,1627569177.98722,1627569294.79759,0
33,4,1,3,27,3,3,c3_HowFace,1,looking at camera?,59,F_129.jpg,1627568687.55513,1627568687.5694,475.41750787735,8.48158431053162,483.904016246796,486.004802217484,0.3,487.988878240585,0.516860246658325,488.507894983292,1,left,0.491731882095337,488.505738487244,604.482462873459,607.242462873459,1627569165.73263,1627569165.73477,1627569174.21914,1627569174.23417,1627569176.31993,1627569178.30401,1627569178.30628,1627569178.82302,1627569178.82087,1627569294.79759,1
33,4,1,3,27,4,3,c3_HowFace,1,looking at camera?,62,F_598.jpg,1627568687.55513,1627568687.5694,475.41750787735,8.48158431053162,483.904016246796,486.004802217484,0.3,488.822523345947,0.500186920166016,489.325025072098,1,left,0.481817960739136,489.322710266113,604.482462873459,607.242462873459,1627569165.73263,1627569165.73477,1627569174.21914,1627569174.23417,1627569176.31993,1627569179.13765,1627569179.13963,1627569179.64015,1627569179.63784,1627569294.79759,1
33,4,1,3,27,5,3,c3_HowFace,1,looking at camera?,64,F_128.jpg,1627568687.55513,1627568687.5694,475.41750787735,8.48158431053162,483.904016246796,486.004802217484,0.3,489.639494886398,0.566879272460938,490.208999147415,1,left,0.546720027923584,490.206374158859,604.482462873459,607.242462873459,1627569165.73263,1627569165.73477,1627569174.21914,1627569174.23417,1627569176.31993,1627569179.95462,1627569179.95636,1627569180.52413,1627569180.5215,1627569294.79759,1
33,4,1,3,27,6,3,c3_HowFace,2,looking at camera?,57,F_582.jpg,1627568687.55513,1627568687.5694,475.41750787735,8.48158431053162,483.904016246796,486.004802217484,0.3,490.523158779144,0.533532857894897,491.059144010544,3,right,0.515822172164917,491.056691637039,604.482462873459,607.242462873459,1627569165.73263,1627569165.73477,1627569174.21914,1627569174.23417,1627569176.31993,1627569180.83829,1627569180.84039,1627569181.37427,1627569181.37182,1627569294.79759,0
33,4,1,3,27,7,3,c3_HowFace,1,looking at camera?,61,F_774.jpg,1627568687.55513,1627568687.5694,475.41750787735,8.48158431053162,483.904016246796,486.004802217484,0.3,491.373477449417,0.40014910697937,491.775816192627,1,left,0.381096839904785,491.773626556396,604.482462873459,607.242462873459,1627569165.73263,1627569165.73477,1627569174.21914,1627569174.23417,1627569176.31993,1627569181.6886,1627569181.69066,1627569182.09094,1627569182.08875,1627569294.79759,1
33,4,1,3,27,8,3,c3_HowFace,2,looking at camera?,63,F_743.jpg,1627568687.55513,1627568687.5694,475.41750787735,8.48158431053162,483.904016246796,486.004802217484,0.3,492.09041308403,0.566878318786621,492.669177999496,3,right,0.546535015106201,492.657291402817,604.482462873459,607.242462873459,1627569165.73263,1627569165.73477,1627569174.21914,1627569174.23417,1627569176.31993,1627569182.40554,1627569182.40803,1627569182.9843,1627569182.97242,1627569294.79759,0
