src_subject_id,session_id,run_id,param_counterbalance_ver,param_block_num,param_trial_num,param_cond_type_num,param_cond_type_string,param_normative_response,param_ques_type_string,param_image_num,param_image_filename,param_trigger_onset,param_start_biopac,event01_fixation,event01_fixation_dur,event01_blockquestion_onset,event01_block_isi_blacksreen,event01_blockquestion_dur,event02_image_onset,event02_image_dur,event03_response_onset,event03_response_key,event03_response_keyname,event03_RT,event04_shortquestion_onset,param_end_instruct_onset,param_experiment_duration,RAW_e1_fixation,RAW_e1_fixation_biopac,RAW_e1_blockquestion_onset,RAW_e1_blockquestion_onset_biopac,RAW_e1_block_isi_blacksreen,RAW_e2_image_onset,RAW_e2_image_onset_biopac,RAW_e3_response_onset,RAW_e4_shortquestion_onset,RAW_param_end_instruct_onset,accuracy
132,4,1,3,1,1,4,c4_HowHand,1,reaching?,107,H_007.jpg,1657314403.08878,1657314403.10206,0.0473186874389646,0.0376672744750977,0.0973365211486814,2.11475562095642,2.01741909980774,2.26481126785278,1.16710186004639,3.43595384597778,1,left,1.14025115966797,3.43191312789917,604.489393224716,607.249393224716,1657314405.8961,1657314405.90217,1657314405.94611,1657314405.95161,1657314407.96353,1657314408.11359,1657314408.11798,1657314409.28473,1657314409.28069,1657315010.33817,1
132,4,1,3,1,2,4,c4_HowHand,2,reaching?,108,H_532.jpg,1657314403.08878,1657314403.10206,0.0473186874389646,0.0376672744750977,0.0973365211486814,2.11475562095642,0.3,3.74869846343994,0.666914939880371,4.41853093147278,1,left,0.649312019348145,4.41561340332031,604.489393224716,607.249393224716,1657314405.8961,1657314405.90217,1657314405.94611,1657314405.95161,1657314407.96353,1657314409.59748,1657314409.60114,1657314410.26731,1657314410.26439,1657315010.33817,0
132,4,1,3,1,3,4,c4_HowHand,1,reaching?,109,H_474.jpg,1657314403.08878,1657314403.10206,0.0473186874389646,0.0376672744750977,0.0973365211486814,2.11475562095642,0.3,4.73239802360535,0.68358850479126,5.41859387397766,1,left,0.66748309135437,5.41598652839661,604.489393224716,607.249393224716,1657314405.8961,1657314405.90217,1657314405.94611,1657314405.95161,1657314407.96353,1657314410.58118,1657314410.58424,1657314411.26737,1657314411.26476,1657315010.33817,1
132,4,1,3,1,4,4,c4_HowHand,2,reaching?,105,H_438.jpg,1657314403.08878,1657314403.10206,0.0473186874389646,0.0376672744750977,0.0973365211486814,2.11475562095642,0.3,5.73277138710022,0.783625602722168,6.51878999710083,3,right,0.767703056335449,6.51639698982239,604.489393224716,607.249393224716,1657314405.8961,1657314405.90217,1657314405.94611,1657314405.95161,1657314407.96353,1657314411.58155,1657314411.58452,1657314412.36757,1657314412.36517,1657315010.33817,0
132,4,1,3,1,5,4,c4_HowHand,1,reaching?,110,H_364.jpg,1657314403.08878,1657314403.10206,0.0473186874389646,0.0376672744750977,0.0973365211486814,2.11475562095642,0.3,6.83318137168884,0.666914939880371,7.50405501365662,3,right,0.649544954299927,7.50009631156921,604.489393224716,607.249393224716,1657314405.8961,1657314405.90217,1657314405.94611,1657314405.95161,1657314407.96353,1657314412.68196,1657314412.68548,1657314413.35283,1657314413.34887,1657315010.33817,0
132,4,1,3,1,6,4,c4_HowHand,1,reaching?,106,H_006.jpg,1657314403.08878,1657314403.10206,0.0473186874389646,0.0376672744750977,0.0973365211486814,2.11475562095642,0.3,7.81688164710999,0.967027187347412,8.78504203796387,1,left,0.950240850448608,8.7839088344574,604.489393224716,607.249393224716,1657314405.8961,1657314405.90217,1657314405.94611,1657314405.95161,1657314407.96353,1657314413.66566,1657314413.66756,1657314414.63382,1657314414.63269,1657315010.33817,1
132,4,1,3,1,7,4,c4_HowHand,1,reaching?,111,H_003.jpg,1657314403.08878,1657314403.10206,0.0473186874389646,0.0376672744750977,0.0973365211486814,2.11475562095642,0.3,9.10069416999817,0.616897106170654,9.71904992103577,1,left,0.595112085342407,9.71759127616882,604.489393224716,607.249393224716,1657314405.8961,1657314405.90217,1657314405.94611,1657314405.95161,1657314407.96353,1657314414.94947,1657314414.95136,1657314415.56783,1657314415.56637,1657315010.33817,1
132,4,1,3,1,8,4,c4_HowHand,2,reaching?,112,H_132.jpg,1657314403.08878,1657314403.10206,0.0473186874389646,0.0376672744750977,0.0973365211486814,2.11475562095642,0.3,10.0343751811981,0.53353214263916,10.5694849395752,1,left,0.521450996398926,10.5679073238373,604.489393224716,607.249393224716,1657314405.8961,1657314405.90217,1657314405.94611,1657314405.95161,1657314407.96353,1657314415.88315,1657314415.88496,1657314416.41826,1657314416.41668,1657315010.33817,0
132,4,1,3,2,1,2,c2_WhyHand,1,healthy?,21,H_627.jpg,1657314403.08878,1657314403.10206,10.8180017375946,6.71326327323914,17.5371732616425,19.6379558944702,2.10078263282776,19.7880136871338,0.650241851806641,20.4396269226074,1,left,0.616899967193604,20.4382555389404,604.489393224716,607.249393224716,1657314416.66678,1657314416.66924,1657314423.38595,1657314423.40126,1657314425.48673,1657314425.63679,1657314425.65139,1657314426.2884,1657314426.28703,1657315010.33817,1
132,4,1,3,2,2,2,c2_WhyHand,1,healthy?,18,H_438.jpg,1657314403.08878,1657314403.10206,10.8180017375946,6.71326327323914,17.5371732616425,19.6379558944702,0.3,20.7550408744812,0.65024209022522,21.4068639183044,1,left,0.631955862045288,21.4052829647064,604.489393224716,607.249393224716,1657314416.66678,1657314416.66924,1657314423.38595,1657314423.40126,1657314425.48673,1657314426.60382,1657314426.6054,1657314427.25564,1657314427.25406,1657315010.33817,1
132,4,1,3,2,3,2,c2_WhyHand,1,healthy?,23,H_364.jpg,1657314403.08878,1657314403.10206,10.8180017375946,6.71326327323914,17.5371732616425,19.6379558944702,0.3,21.7220673465729,0.683588266372681,22.4073049926758,1,left,0.667948961257935,22.4056556129456,604.489393224716,607.249393224716,1657314416.66678,1657314416.66924,1657314423.38595,1657314423.40126,1657314425.48673,1657314427.57084,1657314427.57231,1657314428.25608,1657314428.25443,1657315010.33817,1
132,4,1,3,2,4,2,c2_WhyHand,2,healthy?,22,H_130.jpg,1657314403.08878,1657314403.10206,10.8180017375946,6.71326327323914,17.5371732616425,19.6379558944702,0.3,22.7224402332306,0.500187158584595,23.2352528476715,1,left,0.490473031997681,23.2226273918152,604.489393224716,607.249393224716,1657314416.66678,1657314416.66924,1657314423.38595,1657314423.40126,1657314425.48673,1657314428.57122,1657314428.57311,1657314429.08403,1657314429.0714,1657315010.33817,0
132,4,1,3,2,5,2,c2_WhyHand,1,healthy?,17,H_362.jpg,1657314403.08878,1657314403.10206,10.8180017375946,6.71326327323914,17.5371732616425,19.6379558944702,0.3,23.5394112968445,0.650242805480957,24.1907238864899,1,left,0.632733106613159,24.1896541023254,604.489393224716,607.249393224716,1657314416.66678,1657314416.66924,1657314423.38595,1657314423.40126,1657314425.48673,1657314429.38819,1657314429.38999,1657314430.0395,1657314430.03843,1657315010.33817,1
132,4,1,3,2,6,2,c2_WhyHand,2,healthy?,20,H_007.jpg,1657314403.08878,1657314403.10206,10.8180017375946,6.71326327323914,17.5371732616425,19.6379558944702,0.3,24.5064391994476,0.53353214263916,25.0515639686584,1,left,0.521485090255737,25.0399713420868,604.489393224716,607.249393224716,1657314416.66678,1657314416.66924,1657314423.38595,1657314423.40126,1657314425.48673,1657314430.35522,1657314430.3571,1657314430.90034,1657314430.88875,1657315010.33817,0
132,4,1,3,2,7,2,c2_WhyHand,1,healthy?,19,H_167.jpg,1657314403.08878,1657314403.10206,10.8180017375946,6.71326327323914,17.5371732616425,19.6379558944702,0.3,25.3567569160461,0.683587312698364,26.0519349479675,1,left,0.674565076828003,26.0403442287445,604.489393224716,607.249393224716,1657314416.66678,1657314416.66924,1657314423.38595,1657314423.40126,1657314425.48673,1657314431.20553,1657314431.20728,1657314431.90071,1657314431.88912,1657315010.33817,1
132,4,1,3,2,8,2,c2_WhyHand,2,healthy?,24,H_019.jpg,1657314403.08878,1657314403.10206,10.8180017375946,6.71326327323914,17.5371732616425,19.6379558944702,0.3,26.3571293258667,0.733606576919556,27.0918078327179,1,left,0.717956066131592,27.0907359027863,604.489393224716,607.249393224716,1657314416.66678,1657314416.66924,1657314423.38595,1657314423.40126,1657314425.48673,1657314432.20591,1657314432.20784,1657314432.94058,1657314432.93951,1657315010.33817,0
132,4,1,3,3,1,1,c1_WhyFace,1,admiring?,4,F_779.jpg,1657314403.08878,1657314403.10206,27.1907732391357,9.44834971427917,36.6442992591858,38.7450823688507,2.10078310966492,38.8951384925842,0.416822195053101,39.3188989067078,1,left,0.400179862976074,39.3119606876373,604.489393224716,607.249393224716,1657314433.03955,1657314433.04145,1657314442.49308,1657314442.50133,1657314444.59386,1657314444.74392,1657314444.7511,1657314445.16768,1657314445.16074,1657315010.33817,1
132,4,1,3,3,2,1,c1_WhyFace,1,admiring?,1,F_593.jpg,1657314403.08878,1657314403.10206,27.1907732391357,9.44834971427917,36.6442992591858,38.7450823688507,0.3,39.6287453079224,0.53353214263916,40.1681809329987,1,left,0.51755690574646,40.1622774505615,604.489393224716,607.249393224716,1657314433.03955,1657314433.04145,1657314442.49308,1657314442.50133,1657314444.59386,1657314445.47752,1657314445.47952,1657314446.01696,1657314446.01105,1657315010.33817,1
132,4,1,3,3,3,1,c1_WhyFace,2,admiring?,3,F_110.jpg,1657314403.08878,1657314403.10206,27.1907732391357,9.44834971427917,36.6442992591858,38.7450823688507,0.3,40.4790623092651,0.533531904220581,41.013875951767,1,left,0.514322996139526,41.0125942134857,604.489393224716,607.249393224716,1657314433.03955,1657314433.04145,1657314442.49308,1657314442.50133,1657314444.59386,1657314446.32784,1657314446.32956,1657314446.86265,1657314446.86137,1657315010.33817,0
132,4,1,3,3,4,1,c1_WhyFace,1,admiring?,8,F_590.jpg,1657314403.08878,1657314403.10206,27.1907732391357,9.44834971427917,36.6442992591858,38.7450823688507,0.3,41.3293793106079,0.366803884506226,41.7015838527679,1,left,0.35643196105957,41.6961831951141,604.489393224716,607.249393224716,1657314433.03955,1657314433.04145,1657314442.49308,1657314442.50133,1657314444.59386,1657314447.17816,1657314447.17984,1657314447.55036,1657314447.54496,1657315010.33817,1
132,4,1,3,3,5,1,c1_WhyFace,2,admiring?,6,F_692.jpg,1657314403.08878,1657314403.10206,27.1907732391357,9.44834971427917,36.6442992591858,38.7450823688507,0.3,42.012967338562,0.400148868560791,42.4181690120697,3,right,0.384660005569458,42.4131162071228,604.489393224716,607.249393224716,1657314433.03955,1657314433.04145,1657314442.49308,1657314442.50133,1657314444.59386,1657314447.86174,1657314447.86365,1657314448.26695,1657314448.26189,1657315010.33817,0
132,4,1,3,3,6,1,c1_WhyFace,1,admiring?,5,F_759.jpg,1657314403.08878,1657314403.10206,27.1907732391357,9.44834971427917,36.6442992591858,38.7450823688507,0.3,42.729901304245,0.333457946777344,43.0685279273987,1,left,0.326123952865601,43.0633592510223,604.489393224716,607.249393224716,1657314433.03955,1657314433.04145,1657314442.49308,1657314442.50133,1657314444.59386,1657314448.57868,1657314448.58037,1657314448.9173,1657314448.91214,1657315010.33817,1
132,4,1,3,3,7,1,c1_WhyFace,1,admiring?,7,F_648.jpg,1657314403.08878,1657314403.10206,27.1907732391357,9.44834971427917,36.6442992591858,38.7450823688507,0.3,43.380144109726,0.26676607131958,43.652003993988,3,right,0.258955955505371,43.6469101810455,604.489393224716,607.249393224716,1657314433.03955,1657314433.04145,1657314442.49308,1657314442.50133,1657314444.59386,1657314449.22892,1657314449.23051,1657314449.50078,1657314449.49569,1657315010.33817,0
132,4,1,3,3,8,1,c1_WhyFace,2,admiring?,2,F_129.jpg,1657314403.08878,1657314403.10206,27.1907732391357,9.44834971427917,36.6442992591858,38.7450823688507,0.3,43.9636955165863,0.416821479797363,44.3852779769897,3,right,0.404950857162476,44.3805169963837,604.489393224716,607.249393224716,1657314433.03955,1657314433.04145,1657314442.49308,1657314442.50133,1657314444.59386,1657314449.81247,1657314449.81426,1657314450.23406,1657314450.22929,1657315010.33817,0
132,4,1,3,4,1,3,c3_HowFace,1,smiling?,119,F_139.jpg,1657314403.08878,1657314403.10206,44.4805545711517,11.1228122711182,55.6180419826508,57.7188246154785,2.10078263282776,57.8688812160492,0.450166940689087,58.3204660320282,1,left,0.437304019927979,58.3190481567383,604.489393224716,607.249393224716,1657314450.32933,1657314450.33445,1657314461.46682,1657314461.46876,1657314463.5676,1657314463.71766,1657314463.71997,1657314464.16924,1657314464.16783,1657315010.33817,1
132,4,1,3,4,2,3,c3_HowFace,2,smiling?,113,F_712.jpg,1657314403.08878,1657314403.10206,44.4805545711517,11.1228122711182,55.6180419826508,57.7188246154785,0.3,58.6358339691162,0.416821718215942,59.0542929077148,3,right,0.404363870620728,59.0526556873322,604.489393224716,607.249393224716,1657314450.32933,1657314450.33445,1657314461.46682,1657314461.46876,1657314463.5676,1657314464.48461,1657314464.48622,1657314464.90307,1657314464.90143,1657315010.33817,0
132,4,1,3,4,3,3,c3_HowFace,1,smiling?,115,F_695.jpg,1657314403.08878,1657314403.10206,44.4805545711517,11.1228122711182,55.6180419826508,57.7188246154785,0.3,59.3694403076172,0.450168132781982,59.8206889533997,1,left,0.431343793869019,59.8196084403992,604.489393224716,607.249393224716,1657314450.32933,1657314450.33445,1657314461.46682,1657314461.46876,1657314463.5676,1657314465.21822,1657314465.21995,1657314465.66947,1657314465.66839,1657315010.33817,1
132,4,1,3,4,4,3,c3_HowFace,2,smiling?,120,F_758.jpg,1657314403.08878,1657314403.10206,44.4805545711517,11.1228122711182,55.6180419826508,57.7188246154785,0.3,60.1363932991028,0.500186920166016,60.637656917572,1,left,0.481665134429932,60.6365802192688,604.489393224716,607.249393224716,1657314450.32933,1657314450.33445,1657314461.46682,1657314461.46876,1657314463.5676,1657314465.98517,1657314465.98702,1657314466.48643,1657314466.48536,1657315010.33817,0
132,4,1,3,4,5,3,c3_HowFace,1,smiling?,116,F_083.jpg,1657314403.08878,1657314403.10206,44.4805545711517,11.1228122711182,55.6180419826508,57.7188246154785,0.3,60.9533641242981,0.366804361343384,61.3220288658142,1,left,0.352220058441162,61.3201684856415,604.489393224716,607.249393224716,1657314450.32933,1657314450.33445,1657314461.46682,1657314461.46876,1657314463.5676,1657314466.80214,1657314466.80382,1657314467.17081,1657314467.16895,1657315010.33817,1
132,4,1,3,4,6,3,c3_HowFace,1,smiling?,118,F_759.jpg,1657314403.08878,1657314403.10206,44.4805545711517,11.1228122711182,55.6180419826508,57.7188246154785,0.3,61.6369528675079,0.316784620285034,61.9547660255432,3,right,0.303740978240967,61.953737487793,604.489393224716,607.249393224716,1657314450.32933,1657314450.33445,1657314461.46682,1657314461.46876,1657314463.5676,1657314467.48573,1657314467.48757,1657314467.80354,1657314467.80251,1657315010.33817,0
132,4,1,3,4,7,3,c3_HowFace,2,smiling?,114,F_412.jpg,1657314403.08878,1657314403.10206,44.4805545711517,11.1228122711182,55.6180419826508,57.7188246154785,0.3,62.2705218696594,0.316785335540771,62.5887918376923,3,right,0.305626153945923,62.5873072052002,604.489393224716,607.249393224716,1657314450.32933,1657314450.33445,1657314461.46682,1657314461.46876,1657314463.5676,1657314468.1193,1657314468.12097,1657314468.43757,1657314468.43608,1657315010.33817,0
132,4,1,3,4,8,3,c3_HowFace,1,smiling?,117,F_593.jpg,1657314403.08878,1657314403.10206,44.4805545711517,11.1228122711182,55.6180419826508,57.7188246154785,0.3,62.9040918254852,0.350130319595337,63.2556569480896,1,left,0.331861972808838,63.2542221450806,604.489393224716,607.249393224716,1657314450.32933,1657314450.33445,1657314461.46682,1657314461.46876,1657314463.5676,1657314468.75287,1657314468.75479,1657314469.10443,1657314469.103,1657315010.33817,1
132,4,1,3,5,1,4,c4_HowHand,1,lifting?,56,H_136.jpg,1657314403.08878,1657314403.10206,63.3209144973755,9.81310844421387,73.1412429714203,75.2420263195038,2.1007833480835,75.3920822048187,0.416822195053101,75.8187780284882,1,left,0.395763874053955,75.8089043998718,604.489393224716,607.249393224716,1657314469.16969,1657314469.17142,1657314478.99002,1657314479.00259,1657314481.0908,1657314481.24086,1657314481.25136,1657314481.66756,1657314481.65768,1657315010.33817,1
132,4,1,3,5,2,4,c4_HowHand,2,lifting?,51,H_038.jpg,1657314403.08878,1657314403.10206,63.3209144973755,9.81310844421387,73.1412429714203,75.2420263195038,0.3,76.1256897354126,0.383475780487061,76.5181870365143,1,left,0.377017974853516,76.5091655158997,604.489393224716,607.249393224716,1657314469.16969,1657314469.17142,1657314478.99002,1657314479.00259,1657314481.0908,1657314481.97447,1657314481.97606,1657314482.36696,1657314482.35794,1657315010.33817,0
132,4,1,3,5,3,4,c4_HowHand,1,lifting?,52,H_189.jpg,1657314403.08878,1657314403.10206,63.3209144973755,9.81310844421387,73.1412429714203,75.2420263195038,0.3,76.8259501361847,0.450168132781982,77.2776968383789,1,left,0.433143854141235,77.2761182689667,604.489393224716,607.249393224716,1657314469.16969,1657314469.17142,1657314478.99002,1657314479.00259,1657314481.0908,1657314482.67473,1657314482.6765,1657314483.12647,1657314483.1249,1657315010.33817,1
132,4,1,3,5,4,4,c4_HowHand,2,lifting?,53,H_077.jpg,1657314403.08878,1657314403.10206,63.3209144973755,9.81310844421387,73.1412429714203,75.2420263195038,0.3,77.5929033660889,0.466840744018555,78.0611648464203,1,left,0.447250127792358,78.0597441101074,604.489393224716,607.249393224716,1657314469.16969,1657314469.17142,1657314478.99002,1657314479.00259,1657314481.0908,1657314483.44168,1657314483.4434,1657314483.90994,1657314483.90852,1657315010.33817,0
132,4,1,3,5,5,4,c4_HowHand,1,lifting?,50,H_443.jpg,1657314403.08878,1657314403.10206,63.3209144973755,9.81310844421387,73.1412429714203,75.2420263195038,0.3,78.3765280151367,0.433495759963989,78.8187630081177,1,left,0.417081117630005,78.8100237751007,604.489393224716,607.249393224716,1657314469.16969,1657314469.17142,1657314478.99002,1657314479.00259,1657314481.0908,1657314484.22531,1657314484.22717,1657314484.66754,1657314484.6588,1657315010.33817,1
132,4,1,3,5,6,4,c4_HowHand,2,lifting?,55,H_012.jpg,1657314403.08878,1657314403.10206,63.3209144973755,9.81310844421387,73.1412429714203,75.2420263195038,0.3,79.1268083953857,0.533531665802002,79.6682138347626,3,right,0.518462181091309,79.6603400611877,604.489393224716,607.249393224716,1657314469.16969,1657314469.17142,1657314478.99002,1657314479.00259,1657314481.0908,1657314484.97559,1657314484.97747,1657314485.51699,1657314485.50912,1657315010.33817,0
132,4,1,3,5,7,4,c4_HowHand,1,lifting?,49,H_362.jpg,1657314403.08878,1657314403.10206,63.3209144973755,9.81310844421387,73.1412429714203,75.2420263195038,0.3,79.9771246814728,0.350131750106812,80.3348278903961,1,left,0.341977119445801,80.3272564315796,604.489393224716,607.249393224716,1657314469.16969,1657314469.17142,1657314478.99002,1657314479.00259,1657314481.0908,1657314485.8259,1657314485.82774,1657314486.1836,1657314486.17603,1657315010.33817,1
132,4,1,3,5,8,4,c4_HowHand,1,lifting?,54,H_170.jpg,1657314403.08878,1657314403.10206,63.3209144973755,9.81310844421387,73.1412429714203,75.2420263195038,0.3,80.6440403366089,0.333457708358765,80.9791839027405,3,right,0.310935020446777,80.9774980449676,604.489393224716,607.249393224716,1657314469.16969,1657314469.17142,1657314478.99002,1657314479.00259,1657314481.0908,1657314486.49282,1657314486.49424,1657314486.82796,1657314486.82628,1657315010.33817,0
132,4,1,3,6,1,2,c2_WhyHand,1,helping?,38,H_077.jpg,1657314403.08878,1657314403.10206,81.0775358581543,14.5374240875244,95.6329634094238,97.7170741462707,2.08411073684692,97.8838028812408,0.350131750106812,98.2353408241272,1,left,0.328152894973755,98.2339346313477,604.489393224716,607.249393224716,1657314486.92631,1657314486.92806,1657314501.48174,1657314501.48449,1657314503.56585,1657314503.73258,1657314503.73476,1657314504.08412,1657314504.08271,1657315010.33817,1
132,4,1,3,6,2,2,c2_WhyHand,1,helping?,36,H_349.jpg,1657314403.08878,1657314403.10206,81.0775358581543,14.5374240875244,95.6329634094238,97.7170741462707,0.3,98.5507190132141,0.383476257324219,98.9356439018249,1,left,0.373898983001709,98.9341952705383,604.489393224716,607.249393224716,1657314486.92631,1657314486.92806,1657314501.48174,1657314501.48449,1657314503.56585,1657314504.3995,1657314504.40107,1657314504.78442,1657314504.78297,1657315010.33817,1
132,4,1,3,6,3,2,c2_WhyHand,1,helping?,37,H_474.jpg,1657314403.08878,1657314403.10206,81.0775358581543,14.5374240875244,95.6329634094238,97.7170741462707,0.3,99.2509791755676,0.500187397003174,99.7526209259033,1,left,0.489589214324951,99.7511665725708,604.489393224716,607.249393224716,1657314486.92631,1657314486.92806,1657314501.48174,1657314501.48449,1657314503.56585,1657314505.09976,1657314505.10143,1657314505.6014,1657314505.59994,1657315010.33817,1
132,4,1,3,6,4,2,c2_WhyHand,1,helping?,39,H_024.jpg,1657314403.08878,1657314403.10206,81.0775358581543,14.5374240875244,95.6329634094238,97.7170741462707,0.3,100.067951431274,0.533532381057739,100.602936973572,3,right,0.521643877029419,100.601483812332,604.489393224716,607.249393224716,1657314486.92631,1657314486.92806,1657314501.48174,1657314501.48449,1657314503.56585,1657314505.91673,1657314505.91844,1657314506.45171,1657314506.45026,1657315010.33817,0
132,4,1,3,6,5,2,c2_WhyHand,2,helping?,40,H_012.jpg,1657314403.08878,1657314403.10206,81.0775358581543,14.5374240875244,95.6329634094238,97.7170741462707,0.3,100.918268432617,0.350132703781128,101.269602050781,1,left,0.32793402671814,101.268401136398,604.489393224716,607.249393224716,1657314486.92631,1657314486.92806,1657314501.48174,1657314501.48449,1657314503.56585,1657314506.76705,1657314506.76846,1657314507.11838,1657314507.11718,1657315010.33817,0
132,4,1,3,6,6,2,c2_WhyHand,2,helping?,35,H_159.jpg,1657314403.08878,1657314403.10206,81.0775358581543,14.5374240875244,95.6329634094238,97.7170741462707,0.3,101.585183610916,0.350131273269653,101.951908817291,1,left,0.341516971588135,101.935314884186,604.489393224716,607.249393224716,1657314486.92631,1657314486.92806,1657314501.48174,1657314501.48449,1657314503.56585,1657314507.43396,1657314507.43551,1657314507.80069,1657314507.78409,1657315010.33817,0
132,4,1,3,6,7,2,c2_WhyHand,1,helping?,34,H_111.jpg,1657314403.08878,1657314403.10206,81.0775358581543,14.5374240875244,95.6329634094238,97.7170741462707,0.3,102.252101650238,0.500183343887329,102.768684854507,3,right,0.492342948913574,102.752284994125,604.489393224716,607.249393224716,1657314486.92631,1657314486.92806,1657314501.48174,1657314501.48449,1657314503.56585,1657314508.10088,1657314508.10255,1657314508.61746,1657314508.60106,1657315010.33817,0
132,4,1,3,6,8,2,c2_WhyHand,2,helping?,33,H_091.jpg,1657314403.08878,1657314403.10206,81.0775358581543,14.5374240875244,95.6329634094238,97.7170741462707,0.3,103.069070568085,0.650242328643799,103.721089830399,1,left,0.628830909729004,103.719312896729,604.489393224716,607.249393224716,1657314486.92631,1657314486.92806,1657314501.48174,1657314501.48449,1657314503.56585,1657314508.91785,1657314508.91939,1657314509.56987,1657314509.56809,1657315010.33817,0
132,4,1,3,7,1,1,c1_WhyFace,1,proud?,104,F_598.jpg,1657314403.08878,1657314403.10206,103.786004772186,9.70422005653381,113.5062961483,115.607079257965,2.10078310966492,115.75713514328,0.36680269241333,116.135485877991,1,left,0.360025882720947,116.123937835693,604.489393224716,607.249393224716,1657314509.63478,1657314509.63633,1657314519.35507,1657314519.35719,1657314521.45586,1657314521.60591,1657314521.60777,1657314521.98426,1657314521.97271,1657315010.33817,1
132,4,1,3,7,2,1,c1_WhyFace,2,proud?,102,F_760.jpg,1657314403.08878,1657314403.10206,103.786004772186,9.70422005653381,113.5062961483,115.607079257965,0.3,116.440723648071,0.500186681747437,116.951994886398,3,right,0.491247892379761,116.940910329819,604.489393224716,607.249393224716,1657314509.63478,1657314509.63633,1657314519.35507,1657314519.35719,1657314521.45586,1657314522.2895,1657314522.2911,1657314522.80077,1657314522.78969,1657315010.33817,0
132,4,1,3,7,3,1,c1_WhyFace,1,proud?,97,F_582.jpg,1657314403.08878,1657314403.10206,103.786004772186,9.70422005653381,113.5062961483,115.607079257965,0.3,117.257695426941,0.383475780487061,117.642380943298,1,left,0.362951040267944,117.641171207428,604.489393224716,607.249393224716,1657314509.63478,1657314509.63633,1657314519.35507,1657314519.35719,1657314521.45586,1657314523.10647,1657314523.10834,1657314523.49116,1657314523.48995,1657315010.33817,1
132,4,1,3,7,4,1,c1_WhyFace,2,proud?,98,F_412.jpg,1657314403.08878,1657314403.10206,103.786004772186,9.70422005653381,113.5062961483,115.607079257965,0.3,117.95795630455,0.483512878417969,118.451586952209,3,right,0.470262050628662,118.441469182968,604.489393224716,607.249393224716,1657314509.63478,1657314509.63633,1657314519.35507,1657314519.35719,1657314521.45586,1657314523.80673,1657314523.80838,1657314524.30036,1657314524.29025,1657315010.33817,0
132,4,1,3,7,5,1,c1_WhyFace,1,proud?,101,F_083.jpg,1657314403.08878,1657314403.10206,103.786004772186,9.70422005653381,113.5062961483,115.607079257965,0.3,118.75825428009,0.400149583816528,119.168189992905,1,left,0.394170999526978,119.158403863907,604.489393224716,607.249393224716,1657314509.63478,1657314509.63633,1657314519.35507,1657314519.35719,1657314521.45586,1657314524.60703,1657314524.60811,1657314525.01697,1657314525.00718,1657315010.33817,1
132,4,1,3,7,6,1,c1_WhyFace,2,proud?,100,F_776.jpg,1657314403.08878,1657314403.10206,103.786004772186,9.70422005653381,113.5062961483,115.607079257965,0.3,119.475188961029,0.466840028762817,119.943574895859,1,left,0.446875095367432,119.942028989792,604.489393224716,607.249393224716,1657314509.63478,1657314509.63633,1657314519.35507,1657314519.35719,1657314521.45586,1657314525.32397,1657314525.32546,1657314525.79235,1657314525.79081,1657315010.33817,0
132,4,1,3,7,7,1,c1_WhyFace,1,proud?,103,F_618.jpg,1657314403.08878,1657314403.10206,103.786004772186,9.70422005653381,113.5062961483,115.607079257965,0.3,120.258814086914,0.433495283126831,120.702311029434,1,left,0.423158168792725,120.692309370041,604.489393224716,607.249393224716,1657314509.63478,1657314509.63633,1657314519.35507,1657314519.35719,1657314521.45586,1657314526.10759,1657314526.10964,1657314526.55109,1657314526.54109,1657315010.33817,1
132,4,1,3,7,8,1,c1_WhyFace,1,proud?,99,F_695.jpg,1657314403.08878,1657314403.10206,103.786004772186,9.70422005653381,113.5062961483,115.607079257965,0.3,121.00909327507,0.433495044708252,121.451719989777,3,right,0.418222904205322,121.442588319778,604.489393224716,607.249393224716,1657314509.63478,1657314509.63633,1657314519.35507,1657314519.35719,1657314521.45586,1657314526.85787,1657314526.85962,1657314527.3005,1657314527.29137,1657315010.33817,0
132,4,1,3,8,1,3,c3_HowFace,1,looking to side?,72,F_590.jpg,1657314403.08878,1657314403.10206,121.509280672073,9.51068329811096,131.029497613907,133.130281915665,2.10078430175781,133.280336847305,0.333457469940186,133.615574827194,1,left,0.307449817657471,133.613794317245,604.489393224716,607.249393224716,1657314527.35806,1657314527.36757,1657314536.87827,1657314536.88448,1657314538.97906,1657314539.12911,1657314539.13449,1657314539.46435,1657314539.46257,1657315010.33817,1
132,4,1,3,8,2,3,c3_HowFace,1,looking to side?,71,F_433.jpg,1657314403.08878,1657314403.10206,121.509280672073,9.51068329811096,131.029497613907,133.130281915665,0.3,133.930579652786,0.400148391723633,134.335279932022,1,left,0.381144046783447,134.33072804451,604.489393224716,607.249393224716,1657314527.35806,1657314527.36757,1657314536.87827,1657314536.88448,1657314538.97906,1657314539.77936,1657314539.7808,1657314540.18406,1657314540.17951,1657315010.33817,1
132,4,1,3,8,3,3,c3_HowFace,1,looking to side?,67,F_716.jpg,1657314403.08878,1657314403.10206,121.509280672073,9.51068329811096,131.029497613907,133.130281915665,0.3,134.647513380051,0.36680269241333,135.018175830841,1,left,0.3527991771698,135.014316072464,604.489393224716,607.249393224716,1657314527.35806,1657314527.36757,1657314536.87827,1657314536.88448,1657314538.97906,1657314540.49629,1657314540.50121,1657314540.86695,1657314540.86309,1657315010.33817,1
132,4,1,3,8,4,3,c3_HowFace,2,looking to side?,70,F_779.jpg,1657314403.08878,1657314403.10206,121.509280672073,9.51068329811096,131.029497613907,133.130281915665,0.3,135.331101646423,0.383476257324219,135.7182538414,1,left,0.362231016159058,135.714577903748,604.489393224716,607.249393224716,1657314527.35806,1657314527.36757,1657314536.87827,1657314536.88448,1657314538.97906,1657314541.17988,1657314541.18407,1657314541.56703,1657314541.56335,1657315010.33817,0
132,4,1,3,8,5,3,c3_HowFace,1,looking to side?,68,F_760.jpg,1657314403.08878,1657314403.10206,121.509280672073,9.51068329811096,131.029497613907,133.130281915665,0.3,136.031362285614,0.433495283126831,136.468160858154,3,right,0.412253141403198,136.464857568741,604.489393224716,607.249393224716,1657314527.35806,1657314527.36757,1657314536.87827,1657314536.88448,1657314538.97906,1657314541.88014,1657314541.88438,1657314542.31694,1657314542.31363,1657315010.33817,0
132,4,1,3,8,6,3,c3_HowFace,2,looking to side?,66,F_111.jpg,1657314403.08878,1657314403.10206,121.509280672073,9.51068329811096,131.029497613907,133.130281915665,0.3,136.781642427444,0.416821479797363,137.202234020233,3,right,0.392792940139771,137.198463907242,604.489393224716,607.249393224716,1657314527.35806,1657314527.36757,1657314536.87827,1657314536.88448,1657314538.97906,1657314542.63042,1657314542.63431,1657314543.05101,1657314543.04724,1657315010.33817,0
132,4,1,3,8,7,3,c3_HowFace,1,looking to side?,69,F_110.jpg,1657314403.08878,1657314403.10206,121.509280672073,9.51068329811096,131.029497613907,133.130281915665,0.3,137.515249481201,0.433494567871094,137.951575031281,1,left,0.419751882553101,137.948744049072,604.489393224716,607.249393224716,1657314527.35806,1657314527.36757,1657314536.87827,1657314536.88448,1657314538.97906,1657314543.36403,1657314543.36775,1657314543.80035,1657314543.79752,1657315010.33817,1
132,4,1,3,8,8,3,c3_HowFace,2,looking to side?,65,F_798.jpg,1657314403.08878,1657314403.10206,121.509280672073,9.51068329811096,131.029497613907,133.130281915665,0.3,138.265529623032,0.433494091033936,138.701961984634,1,left,0.424521923065186,138.699023714066,604.489393224716,607.249393224716,1657314527.35806,1657314527.36757,1657314536.87827,1657314536.88448,1657314538.97906,1657314544.11431,1657314544.11752,1657314544.55074,1657314544.5478,1657315010.33817,0
132,4,1,3,9,1,1,c1_WhyFace,1,argument?,43,F_716.jpg,1657314403.08878,1657314403.10206,138.765715112686,11.3622167110443,150.136623134613,152.237406482697,2.1007833480835,152.387462129593,0.383476734161377,152.785533895493,1,left,0.372714996337891,152.770938863754,604.489393224716,607.249393224716,1657314544.61449,1657314544.61692,1657314555.9854,1657314555.98711,1657314558.08618,1657314558.23624,1657314558.23817,1657314558.63431,1657314558.61972,1657315010.33817,1
132,4,1,3,9,2,1,c1_WhyFace,2,argument?,44,F_139.jpg,1657314403.08878,1657314403.10206,138.765715112686,11.3622167110443,150.136623134613,152.237406482697,0.3,153.087723245621,0.350130319595337,153.451571931839,1,left,0.342628955841064,153.437853565216,604.489393224716,607.249393224716,1657314544.61449,1657314544.61692,1657314555.9854,1657314555.98711,1657314558.08618,1657314558.9365,1657314558.93816,1657314559.30035,1657314559.28663,1657315010.33817,0
132,4,1,3,9,3,1,c1_WhyFace,1,argument?,41,F_712.jpg,1657314403.08878,1657314403.10206,138.765715112686,11.3622167110443,150.136623134613,152.237406482697,0.3,153.754638662338,0.483513832092285,154.239251842499,1,left,0.468291997909546,154.238152494431,604.489393224716,607.249393224716,1657314544.61449,1657314544.61692,1657314555.9854,1657314555.98711,1657314558.08618,1657314559.60342,1657314559.6045,1657314560.08803,1657314560.08693,1657315010.33817,1
132,4,1,3,9,4,1,c1_WhyFace,2,argument?,45,F_433.jpg,1657314403.08878,1657314403.10206,138.765715112686,11.3622167110443,150.136623134613,152.237406482697,0.3,154.554936876297,0.483514785766602,155.052168836594,3,right,0.474517107009888,155.038451662064,604.489393224716,607.249393224716,1657314544.61449,1657314544.61692,1657314555.9854,1657314555.98711,1657314558.08618,1657314560.40371,1657314560.40545,1657314560.90095,1657314560.88723,1657315010.33817,0
132,4,1,3,9,5,1,c1_WhyFace,1,argument?,42,F_403.jpg,1657314403.08878,1657314403.10206,138.765715112686,11.3622167110443,150.136623134613,152.237406482697,0.3,155.355235090256,0.400149583816528,155.756659021378,1,left,0.384017944335938,155.755384674072,604.489393224716,607.249393224716,1657314544.61449,1657314544.61692,1657314555.9854,1657314555.98711,1657314558.08618,1657314561.20401,1657314561.20565,1657314561.60544,1657314561.60416,1657315010.33817,1
132,4,1,3,9,6,1,c1_WhyFace,2,argument?,46,F_844.jpg,1657314403.08878,1657314403.10206,138.765715112686,11.3622167110443,150.136623134613,152.237406482697,0.3,156.072169055939,0.450168371200562,156.534873952866,3,right,0.441959142684937,156.522337427139,604.489393224716,607.249393224716,1657314544.61449,1657314544.61692,1657314555.9854,1657314555.98711,1657314558.08618,1657314561.92095,1657314561.92246,1657314562.38365,1657314562.37111,1657315010.33817,0
132,4,1,3,9,7,1,c1_WhyFace,1,argument?,47,F_743.jpg,1657314403.08878,1657314403.10206,138.765715112686,11.3622167110443,150.136623134613,152.237406482697,0.3,156.839122047424,0.466841697692871,157.307869901657,1,left,0.446247100830078,157.305963745117,604.489393224716,607.249393224716,1657314544.61449,1657314544.61692,1657314555.9854,1657314555.98711,1657314558.08618,1657314562.6879,1657314562.68936,1657314563.15665,1657314563.15474,1657315010.33817,1
132,4,1,3,9,8,1,c1_WhyFace,1,argument?,48,F_758.jpg,1657314403.08878,1657314403.10206,138.765715112686,11.3622167110443,150.136623134613,152.237406482697,0.3,157.622746458054,0.283440351486206,157.907582988739,3,right,0.263524055480957,157.90618680954,604.489393224716,607.249393224716,1657314544.61449,1657314544.61692,1657314555.9854,1657314555.98711,1657314558.08618,1657314563.47152,1657314563.47313,1657314563.75636,1657314563.75496,1657315010.33817,0
132,4,1,3,10,1,3,c3_HowFace,1,open mouth?,80,F_844.jpg,1657314403.08878,1657314403.10206,157.972878446579,9.99500441551208,167.976608982086,170.077392568588,2.10078358650208,170.227448692322,0.366803884506226,170.595968952179,1,left,0.33887791633606,170.594252576828,604.489393224716,607.249393224716,1657314563.82166,1657314563.82328,1657314573.82539,1657314573.83449,1657314575.92617,1657314576.07623,1657314576.08419,1657314576.44475,1657314576.44303,1657315010.33817,1
132,4,1,3,10,2,3,c3_HowFace,1,open mouth?,74,F_776.jpg,1657314403.08878,1657314403.10206,157.972878446579,9.99500441551208,167.976608982086,170.077392568588,0.3,170.911036481857,0.366803646087646,171.278918018341,1,left,0.344232082366943,171.277840127945,604.489393224716,607.249393224716,1657314563.82166,1657314563.82328,1657314573.82539,1657314573.83449,1657314575.92617,1657314576.75981,1657314576.76151,1657314577.1277,1657314577.12662,1657315010.33817,1
132,4,1,3,10,3,3,c3_HowFace,2,open mouth?,76,F_544.jpg,1657314403.08878,1657314403.10206,157.972878446579,9.99500441551208,167.976608982086,170.077392568588,0.3,171.594625701904,0.416821956634521,172.013193836212,1,left,0.393784046173096,172.011447658539,604.489393224716,607.249393224716,1657314563.82166,1657314563.82328,1657314573.82539,1657314573.83449,1657314575.92617,1657314577.4434,1657314577.44536,1657314577.86197,1657314577.86022,1657315010.33817,0
132,4,1,3,10,4,3,c3_HowFace,1,open mouth?,78,F_692.jpg,1657314403.08878,1657314403.10206,157.972878446579,9.99500441551208,167.976608982086,170.077392568588,0.3,172.328231086731,0.283440589904785,172.612915029526,1,left,0.26470685005188,172.611671676636,604.489393224716,607.249393224716,1657314563.82166,1657314563.82328,1657314573.82539,1657314573.83449,1657314575.92617,1657314578.17701,1657314578.17898,1657314578.46169,1657314578.46045,1657315010.33817,1
132,4,1,3,10,5,3,c3_HowFace,2,open mouth?,77,F_584.jpg,1657314403.08878,1657314403.10206,157.972878446579,9.99500441551208,167.976608982086,170.077392568588,0.3,172.928455820084,0.383476495742798,173.318236818314,1,left,0.366380929946899,173.311932315826,604.489393224716,607.249393224716,1657314563.82166,1657314563.82328,1657314573.82539,1657314573.83449,1657314575.92617,1657314578.77723,1657314578.77911,1657314579.16701,1657314579.16071,1657315010.33817,0
132,4,1,3,10,6,3,c3_HowFace,1,open mouth?,73,F_403.jpg,1657314403.08878,1657314403.10206,157.972878446579,9.99500441551208,167.976608982086,170.077392568588,0.3,173.62871717453,0.500186204910278,174.134872903824,3,right,0.486222982406616,174.12890337944,604.489393224716,607.249393224716,1657314563.82166,1657314563.82328,1657314573.82539,1657314573.83449,1657314575.92617,1657314579.47749,1657314579.47923,1657314579.98365,1657314579.97768,1657315010.33817,0
132,4,1,3,10,7,3,c3_HowFace,1,open mouth?,75,F_086.jpg,1657314403.08878,1657314403.10206,157.972878446579,9.99500441551208,167.976608982086,170.077392568588,0.3,174.4456889534,0.0166723728179932,174.468765964508,1,left,0.000371932983398438,174.462361326218,604.489393224716,607.249393224716,1657314563.82166,1657314563.82328,1657314573.82539,1657314573.83449,1657314575.92617,1657314580.29447,1657314580.29617,1657314580.31754,1657314580.31114,1657315010.33817,1
132,4,1,3,10,8,3,c3_HowFace,2,open mouth?,79,F_648.jpg,1657314403.08878,1657314403.10206,157.972878446579,9.99500441551208,167.976608982086,170.077392568588,0.3,174.779145469666,0.250093698501587,175.034914960861,1,left,0.234348058700562,175.029239168167,604.489393224716,607.249393224716,1657314563.82166,1657314563.82328,1657314573.82539,1657314573.83449,1657314575.92617,1657314580.62792,1657314580.62929,1657314580.88369,1657314580.87802,1657315010.33817,0
132,4,1,3,11,1,4,c4_HowHand,1,pressing button?,88,H_019.jpg,1657314403.08878,1657314403.10206,175.095930566788,10.7619934082031,185.866614332199,187.967397441864,2.10078310966492,188.117453327179,0.400148630142212,188.519125928879,1,left,0.383493185043335,188.517601957321,604.489393224716,607.249393224716,1657314580.94471,1657314580.95112,1657314591.71539,1657314591.71755,1657314593.81617,1657314593.96623,1657314593.96797,1657314594.3679,1657314594.36638,1657315010.33817,1
132,4,1,3,11,2,4,c4_HowHand,2,pressing button?,87,H_024.jpg,1657314403.08878,1657314403.10206,175.095930566788,10.7619934082031,185.866614332199,187.967397441864,0.3,188.834387531281,0.466840505599976,189.303060998917,1,left,0.455222845077515,189.301228036881,604.489393224716,607.249393224716,1657314580.94471,1657314580.95112,1657314591.71539,1657314591.71755,1657314593.81617,1657314594.68316,1657314594.68473,1657314595.15184,1657314595.15001,1657315010.33817,0
132,4,1,3,11,3,4,c4_HowHand,2,pressing button?,85,H_130.jpg,1657314403.08878,1657314403.10206,175.095930566788,10.7619934082031,185.866614332199,187.967397441864,0.3,189.618013372421,0.366803169250488,189.9862849617,1,left,0.3556809425354,189.984816541672,604.489393224716,607.249393224716,1657314580.94471,1657314580.95112,1657314591.71539,1657314591.71755,1657314593.81617,1657314595.46679,1657314595.46864,1657314595.83506,1657314595.83359,1657315010.33817,0
132,4,1,3,11,4,4,c4_HowHand,1,pressing button?,83,H_502.jpg,1657314403.08878,1657314403.10206,175.095930566788,10.7619934082031,185.866614332199,187.967397441864,0.3,190.301601400375,0.466840744018555,190.770094861984,1,left,0.448080062866211,190.768442144394,604.489393224716,607.249393224716,1657314580.94471,1657314580.95112,1657314591.71539,1657314591.71755,1657314593.81617,1657314596.15038,1657314596.15228,1657314596.61887,1657314596.61722,1657315010.33817,1
132,4,1,3,11,5,4,c4_HowHand,2,pressing button?,81,H_261.jpg,1657314403.08878,1657314403.10206,175.095930566788,10.7619934082031,185.866614332199,187.967397441864,0.3,191.08522652626,0.466840744018555,191.553144922256,3,right,0.452630043029785,191.552067270279,604.489393224716,607.249393224716,1657314580.94471,1657314580.95112,1657314591.71539,1657314591.71755,1657314593.81617,1657314596.934,1657314596.93559,1657314597.40192,1657314597.40084,1657315010.33817,0
132,4,1,3,11,6,4,c4_HowHand,1,pressing button?,86,H_332.jpg,1657314403.08878,1657314403.10206,175.095930566788,10.7619934082031,185.866614332199,187.967397441864,0.3,191.86885260582,0.483513593673706,192.35382484436,1,left,0.471694946289062,192.352366199493,604.489393224716,607.249393224716,1657314580.94471,1657314580.95112,1657314591.71539,1657314591.71755,1657314593.81617,1657314597.71763,1657314597.71931,1657314598.2026,1657314598.20114,1657315010.33817,1
132,4,1,3,11,7,4,c4_HowHand,1,pressing button?,82,H_126.jpg,1657314403.08878,1657314403.10206,175.095930566788,10.7619934082031,185.866614332199,187.967397441864,0.3,192.669150819778,0.583550214767456,193.254120817184,1,left,0.570858955383301,193.252701034546,604.489393224716,607.249393224716,1657314580.94471,1657314580.95112,1657314591.71539,1657314591.71755,1657314593.81617,1657314598.51793,1657314598.51958,1657314599.1029,1657314599.10148,1657315010.33817,1
132,4,1,3,11,8,4,c4_HowHand,1,pressing button?,84,H_483.jpg,1657314403.08878,1657314403.10206,175.095930566788,10.7619934082031,185.866614332199,187.967397441864,0.3,193.569486131668,0.516860485076904,194.087383022308,3,right,0.497391939163208,194.086346616745,604.489393224716,607.249393224716,1657314580.94471,1657314580.95112,1657314591.71539,1657314591.71755,1657314593.81617,1657314599.41826,1657314599.41982,1657314599.93616,1657314599.93512,1657315010.33817,0
132,4,1,3,12,1,2,c2_WhyHand,1,competing?,9,H_261.jpg,1657314403.08878,1657314403.10206,194.169710388184,9.47826051712036,203.656581392288,205.75736497879,2.10078358650208,205.907420387268,0.400150060653687,206.31861495018,1,left,0.382997989654541,206.307570447922,604.489393224716,607.249393224716,1657314600.01849,1657314600.02013,1657314609.50536,1657314609.51876,1657314611.60614,1657314611.7562,1657314611.76789,1657314612.16739,1657314612.15635,1657315010.33817,1
132,4,1,3,12,2,2,c2_WhyHand,2,competing?,12,H_483.jpg,1657314403.08878,1657314403.10206,194.169710388184,9.47826051712036,203.656581392288,205.75736497879,0.3,206.624355068207,0.716934442520142,207.351590862274,3,right,0.70258092880249,207.341289510727,604.489393224716,607.249393224716,1657314600.01849,1657314600.02013,1657314609.50536,1657314609.51876,1657314611.60614,1657314612.47313,1657314612.47505,1657314613.20037,1657314613.19007,1657315010.33817,0
132,4,1,3,12,3,2,c2_WhyHand,1,competing?,14,H_132.jpg,1657314403.08878,1657314403.10206,194.169710388184,9.47826051712036,203.656581392288,205.75736497879,0.3,207.658073892593,0.70026159286499,208.359835853577,1,left,0.681596994400024,208.358335485458,604.489393224716,607.249393224716,1657314600.01849,1657314600.02013,1657314609.50536,1657314609.51876,1657314611.60614,1657314613.50685,1657314613.50839,1657314614.20861,1657314614.20711,1657315010.33817,1
132,4,1,3,12,4,2,c2_WhyHand,2,competing?,10,H_126.jpg,1657314403.08878,1657314403.10206,194.169710388184,9.47826051712036,203.656581392288,205.75736497879,0.3,208.675119867325,0.650243043899536,209.326822986603,3,right,0.624673128128052,209.325362911224,604.489393224716,607.249393224716,1657314600.01849,1657314600.02013,1657314609.50536,1657314609.51876,1657314611.60614,1657314614.5239,1657314614.52603,1657314615.1756,1657314615.17414,1657315010.33817,0
132,4,1,3,12,5,2,c2_WhyHand,1,competing?,16,H_136.jpg,1657314403.08878,1657314403.10206,194.169710388184,9.47826051712036,203.656581392288,205.75736497879,0.3,209.642147293091,0.633568525314331,210.285600891113,1,left,0.622353076934814,210.275715818405,604.489393224716,607.249393224716,1657314600.01849,1657314600.02013,1657314609.50536,1657314609.51876,1657314611.60614,1657314615.49092,1657314615.49255,1657314616.13438,1657314616.12449,1657315010.33817,1
132,4,1,3,12,6,2,c2_WhyHand,2,competing?,11,H_502.jpg,1657314403.08878,1657314403.10206,194.169710388184,9.47826051712036,203.656581392288,205.75736497879,0.3,210.592501392365,0.650243282318115,211.251917829514,1,left,0.637755155563354,211.242744674683,604.489393224716,607.249393224716,1657314600.01849,1657314600.02013,1657314609.50536,1657314609.51876,1657314611.60614,1657314616.44128,1657314616.44315,1657314617.10069,1657314617.09152,1657315010.33817,0
132,4,1,3,12,7,2,c2_WhyHand,1,competing?,13,H_003.jpg,1657314403.08878,1657314403.10206,194.169710388184,9.47826051712036,203.656581392288,205.75736497879,0.3,211.559528341293,0.533533096313477,212.101595869064,3,right,0.525285959243774,212.093061437607,604.489393224716,607.249393224716,1657314600.01849,1657314600.02013,1657314609.50536,1657314609.51876,1657314611.60614,1657314617.40831,1657314617.41001,1657314617.95037,1657314617.94184,1657315010.33817,0
132,4,1,3,12,8,2,c2_WhyHand,1,competing?,15,H_170.jpg,1657314403.08878,1657314403.10206,194.169710388184,9.47826051712036,203.656581392288,205.75736497879,0.3,212.409846057892,0.483513116836548,212.902041902542,1,left,0.472020149230957,212.893359174728,604.489393224716,607.249393224716,1657314600.01849,1657314600.02013,1657314609.50536,1657314609.51876,1657314611.60614,1657314618.25862,1657314618.25997,1657314618.75082,1657314618.74214,1657315010.33817,1
132,4,1,3,13,1,1,c1_WhyFace,1,self-doubt?,29,F_544.jpg,1657314403.08878,1657314403.10206,212.960051288605,8.75799560546875,221.729988803864,223.830771198273,2.10078239440918,223.98082660675,0.633570432662964,224.618789901733,3,right,0.619302034378052,224.614397039413,604.489393224716,607.249393224716,1657314618.80883,1657314618.81739,1657314627.57877,1657314627.58453,1657314629.67955,1657314629.8296,1657314629.8342,1657314630.46757,1657314630.46317,1657315010.33817,0
132,4,1,3,13,2,1,c1_WhyFace,2,self-doubt?,27,F_086.jpg,1657314403.08878,1657314403.10206,212.960051288605,8.75799560546875,221.729988803864,223.830771198273,0.3,224.931182613373,0.866989135742188,225.801544895172,3,right,0.857136011123657,225.798171749115,604.489393224716,607.249393224716,1657314618.80883,1657314618.81739,1657314627.57877,1657314627.58453,1657314629.67955,1657314630.77996,1657314630.78405,1657314631.65032,1657314631.64695,1657315010.33817,0
132,4,1,3,13,3,1,c1_WhyFace,1,self-doubt?,25,F_798.jpg,1657314403.08878,1657314403.10206,212.960051288605,8.75799560546875,221.729988803864,223.830771198273,0.3,226.114956846237,0.616896867752075,226.734765043259,1,left,0.606693029403687,226.731853713989,604.489393224716,607.249393224716,1657314618.80883,1657314618.81739,1657314627.57877,1657314627.58453,1657314629.67955,1657314631.96373,1657314631.96763,1657314632.58354,1657314632.58063,1657315010.33817,1
132,4,1,3,13,4,1,c1_WhyFace,1,self-doubt?,26,F_111.jpg,1657314403.08878,1657314403.10206,212.960051288605,8.75799560546875,221.729988803864,223.830771198273,0.3,227.048638334274,0.633569955825806,227.685103883743,1,left,0.618166923522949,227.6822082901,604.489393224716,607.249393224716,1657314618.80883,1657314618.81739,1657314627.57877,1657314627.58453,1657314629.67955,1657314632.89742,1657314632.90085,1657314633.53388,1657314633.53099,1657315010.33817,1
132,4,1,3,13,5,1,c1_WhyFace,2,self-doubt?,31,F_774.jpg,1657314403.08878,1657314403.10206,212.960051288605,8.75799560546875,221.729988803864,223.830771198273,0.3,227.998992195129,0.616897344589233,228.618692865372,3,right,0.607733011245728,228.615889539719,604.489393224716,607.249393224716,1657314618.80883,1657314618.81739,1657314627.57877,1657314627.58453,1657314629.67955,1657314633.84777,1657314633.851,1657314634.46747,1657314634.46467,1657315010.33817,0
132,4,1,3,13,6,1,c1_WhyFace,1,self-doubt?,28,F_754.jpg,1657314403.08878,1657314403.10206,212.960051288605,8.75799560546875,221.729988803864,223.830771198273,0.3,228.932674398422,0.766952276229858,229.702309837341,3,right,0.751468181610107,229.699626674652,604.489393224716,607.249393224716,1657314618.80883,1657314618.81739,1657314627.57877,1657314627.58453,1657314629.67955,1657314634.78145,1657314634.78404,1657314635.55109,1657314635.5484,1657315010.33817,0
132,4,1,3,13,7,1,c1_WhyFace,2,self-doubt?,32,F_128.jpg,1657314403.08878,1657314403.10206,212.960051288605,8.75799560546875,221.729988803864,223.830771198273,0.3,230.016411056519,0.917009592056274,230.935318937302,3,right,0.903043985366821,230.933420648575,604.489393224716,607.249393224716,1657314618.80883,1657314618.81739,1657314627.57877,1657314627.58453,1657314629.67955,1657314635.86519,1657314635.86734,1657314636.7841,1657314636.7822,1657315010.33817,0
132,4,1,3,13,8,1,c1_WhyFace,1,self-doubt?,30,F_584.jpg,1657314403.08878,1657314403.10206,212.960051288605,8.75799560546875,221.729988803864,223.830771198273,0.3,231.25020526886,0.967026948928833,232.218189945221,1,left,0.95759105682373,232.217232217789,604.489393224716,607.249393224716,1657314618.80883,1657314618.81739,1657314627.57877,1657314627.58453,1657314629.67955,1657314637.09898,1657314637.10098,1657314638.06697,1657314638.06601,1657315010.33817,1
132,4,1,3,14,1,3,c3_HowFace,1,looking at camera?,64,F_128.jpg,1657314403.08878,1657314403.10206,232.283924570084,8.48803734779358,240.787095060349,242.887878646851,2.10078358650208,243.037934293747,0.650243043899536,243.689923038483,1,left,0.627790927886963,243.688177337646,604.489393224716,607.249393224716,1657314638.1327,1657314638.13459,1657314646.63587,1657314646.63783,1657314648.73666,1657314648.88671,1657314648.88838,1657314649.5387,1657314649.53695,1657315010.33817,1
132,4,1,3,14,2,3,c3_HowFace,1,looking at camera?,60,F_618.jpg,1657314403.08878,1657314403.10206,232.283924570084,8.48803734779358,240.787095060349,242.887878646851,0.3,244.004961481094,0.666915655136108,244.685118904114,1,left,0.660027980804443,244.67187713623,604.489393224716,607.249393224716,1657314638.1327,1657314638.13459,1657314646.63587,1657314646.63783,1657314648.73666,1657314649.85374,1657314649.85552,1657314650.5339,1657314650.52065,1657315010.33817,1
132,4,1,3,14,3,3,c3_HowFace,1,looking at camera?,62,F_598.jpg,1657314403.08878,1657314403.10206,232.283924570084,8.48803734779358,240.787095060349,242.887878646851,0.3,244.988662471771,0.683587551116943,245.684851875305,1,left,0.672338008880615,245.672250022888,604.489393224716,607.249393224716,1657314638.1327,1657314638.13459,1657314646.63587,1657314646.63783,1657314648.73666,1657314650.83744,1657314650.83922,1657314651.53363,1657314651.52103,1657315010.33817,1
132,4,1,3,14,4,3,c3_HowFace,2,looking at camera?,63,F_743.jpg,1657314403.08878,1657314403.10206,232.283924570084,8.48803734779358,240.787095060349,242.887878646851,0.3,245.989035596848,0.750278949737549,246.740404834747,3,right,0.737097024917603,246.739314546585,604.489393224716,607.249393224716,1657314638.1327,1657314638.13459,1657314646.63587,1657314646.63783,1657314648.73666,1657314651.83781,1657314651.83985,1657314652.58918,1657314652.58809,1657315010.33817,0
132,4,1,3,14,5,3,c3_HowFace,1,looking at camera?,61,F_774.jpg,1657314403.08878,1657314403.10206,232.283924570084,8.48803734779358,240.787095060349,242.887878646851,0.3,247.056099643707,0.0166730880737305,247.074254026413,3,right,0.000325202941894531,247.072772731781,604.489393224716,607.249393224716,1657314638.1327,1657314638.13459,1657314646.63587,1657314646.63783,1657314648.73666,1657314652.90488,1657314652.90703,1657314652.92303,1657314652.92155,1657315010.33817,0
132,4,1,3,14,6,3,c3_HowFace,2,looking at camera?,57,F_582.jpg,1657314403.08878,1657314403.10206,232.283924570084,8.48803734779358,240.787095060349,242.887878646851,0.3,247.389557828903,1.36717534065247,248.758612861633,3,right,1.34842705726624,248.756733169556,604.489393224716,607.249393224716,1657314638.1327,1657314638.13459,1657314646.63587,1657314646.63783,1657314648.73666,1657314653.23833,1657314653.24035,1657314654.60739,1657314654.60551,1657315010.33817,0
132,4,1,3,14,7,3,c3_HowFace,2,looking at camera?,58,F_754.jpg,1657314403.08878,1657314403.10206,232.283924570084,8.48803734779358,240.787095060349,242.887878646851,0.3,249.073518981934,1.28381109237671,250.358490934372,3,right,1.26464891433716,250.35733007431,604.489393224716,607.249393224716,1657314638.1327,1657314638.13459,1657314646.63587,1657314646.63783,1657314648.73666,1657314654.9223,1657314654.92377,1657314656.20727,1657314656.20611,1657315010.33817,0
132,4,1,3,14,8,3,c3_HowFace,1,looking at camera?,59,F_129.jpg,1657314403.08878,1657314403.10206,232.283924570084,8.48803734779358,240.787095060349,242.887878646851,0.3,250.674115409851,0.733607053756714,251.408786048889,1,left,0.712198972702026,251.407722463608,604.489393224716,607.249393224716,1657314638.1327,1657314638.13459,1657314646.63587,1657314646.63783,1657314648.73666,1657314656.52289,1657314656.52447,1657314657.25756,1657314657.2565,1657315010.33817,1
132,4,1,3,15,1,4,c4_HowHand,1,both hands?,123,H_167.jpg,1657314403.08878,1657314403.10206,251.474413385391,8.08747553825378,259.577435245514,261.678218832016,2.10078358650208,261.828275671005,1.03371930122375,262.868278970718,1,left,1.02366018295288,262.861994972229,604.489393224716,607.249393224716,1657314657.32319,1657314657.33404,1657314665.42621,1657314665.42784,1657314667.527,1657314667.67705,1657314667.67866,1657314668.71706,1657314668.71077,1657315010.33817,1
132,4,1,3,15,2,4,c4_HowHand,2,both hands?,121,H_091.jpg,1657314403.08878,1657314403.10206,251.474413385391,8.08747553825378,259.577435245514,261.678218832016,0.3,263.178778400421,0.683587789535522,263.869104852676,3,right,0.668306827545166,263.862366189957,604.489393224716,607.249393224716,1657314657.32319,1657314657.33404,1657314665.42621,1657314665.42784,1657314667.527,1657314669.02756,1657314669.02913,1657314669.71788,1657314669.71114,1657315010.33817,0
132,4,1,3,15,3,4,c4_HowHand,2,both hands?,125,H_627.jpg,1657314403.08878,1657314403.10206,251.474413385391,8.08747553825378,259.577435245514,261.678218832016,0.3,264.179151287079,0.933682680130005,265.114497890472,3,right,0.912133932113647,265.112833967209,604.489393224716,607.249393224716,1657314657.32319,1657314657.33404,1657314665.42621,1657314665.42784,1657314667.527,1657314670.02793,1657314670.02929,1657314670.96327,1657314670.96161,1657315010.33817,0
132,4,1,3,15,4,4,c4_HowHand,1,both hands?,128,H_027.jpg,1657314403.08878,1657314403.10206,251.474413385391,8.08747553825378,259.577435245514,261.678218832016,0.3,265.429618110657,0.850317239761353,266.285279026032,1,left,0.831687927246094,266.279935350418,604.489393224716,607.249393224716,1657314657.32319,1657314657.33404,1657314665.42621,1657314665.42784,1657314667.527,1657314671.2784,1657314671.28022,1657314672.13406,1657314672.12871,1657315010.33817,1
132,4,1,3,15,5,4,c4_HowHand,1,both hands?,122,H_111.jpg,1657314403.08878,1657314403.10206,251.474413385391,8.08747553825378,259.577435245514,261.678218832016,0.3,266.59672044754,0.866990089416504,267.465461959839,1,left,0.845759868621826,267.463710536957,604.489393224716,607.249393224716,1657314657.32319,1657314657.33404,1657314665.42621,1657314665.42784,1657314667.527,1657314672.4455,1657314672.44735,1657314673.31424,1657314673.31249,1657315010.33817,1
132,4,1,3,15,6,4,c4_HowHand,2,both hands?,126,H_159.jpg,1657314403.08878,1657314403.10206,251.474413385391,8.08747553825378,259.577435245514,261.678218832016,0.3,267.780495634079,0.78362512588501,268.56542681694,3,right,0.762639999389648,268.564120759964,604.489393224716,607.249393224716,1657314657.32319,1657314657.33404,1657314665.42621,1657314665.42784,1657314667.527,1657314673.62927,1657314673.63123,1657314674.4142,1657314674.4129,1657315010.33817,0
132,4,1,3,15,7,4,c4_HowHand,1,both hands?,124,H_581.jpg,1657314403.08878,1657314403.10206,251.474413385391,8.08747553825378,259.577435245514,261.678218832016,0.3,268.88090514183,0.983700037002563,269.866129865646,1,left,0.957824945449829,269.864605178833,604.489393224716,607.249393224716,1657314657.32319,1657314657.33404,1657314665.42621,1657314665.42784,1657314667.527,1657314674.72968,1657314674.73411,1657314675.71491,1657314675.71338,1657315010.33817,1
132,4,1,3,15,8,4,c4_HowHand,1,both hands?,127,H_349.jpg,1657314403.08878,1657314403.10206,251.474413385391,8.08747553825378,259.577435245514,261.678218832016,0.3,270.181390752792,0.733607292175293,270.918838968277,1,left,0.712367057800293,270.914998044968,604.489393224716,607.249393224716,1657314657.32319,1657314657.33404,1657314665.42621,1657314665.42784,1657314667.527,1657314676.03017,1657314676.03424,1657314676.76762,1657314676.76378,1657315010.33817,1
132,4,1,3,16,1,2,c2_WhyHand,1,self-protection?,89,H_443.jpg,1657314403.08878,1657314403.10206,270.998361816406,7.35360813140869,278.367776145935,280.468559732437,2.10078358650208,280.618616333008,0.633569002151489,281.253195991516,1,left,0.622883081436157,281.252185335159,604.489393224716,607.249393224716,1657314676.84714,1657314676.85075,1657314684.21655,1657314684.21856,1657314686.31734,1657314686.46739,1657314686.4692,1657314687.10197,1657314687.10096,1657315010.33817,1
132,4,1,3,16,2,2,c2_WhyHand,2,self-protection?,90,H_006.jpg,1657314403.08878,1657314403.10206,270.998361816406,7.35360813140869,278.367776145935,280.468559732437,0.3,281.5689706707,0.766953229904175,282.336943855286,3,right,0.745322942733765,282.335923900604,604.489393224716,607.249393224716,1657314676.84714,1657314676.85075,1657314684.21655,1657314684.21856,1657314686.31734,1657314687.41775,1657314687.41924,1657314688.18572,1657314688.1847,1657315010.33817,0
132,4,1,3,16,3,2,c2_WhyHand,1,self-protection?,91,H_581.jpg,1657314403.08878,1657314403.10206,270.998361816406,7.35360813140869,278.367776145935,280.468559732437,0.3,282.652707805634,0.933681726455688,283.587589969635,1,left,0.911096811294556,283.586389532089,604.489393224716,607.249393224716,1657314676.84714,1657314676.85075,1657314684.21655,1657314684.21856,1657314686.31734,1657314688.50148,1657314688.50307,1657314689.43637,1657314689.43517,1657315010.33817,1
132,4,1,3,16,4,2,c2_WhyHand,2,self-protection?,92,H_532.jpg,1657314403.08878,1657314403.10206,270.998361816406,7.35360813140869,278.367776145935,280.468559732437,0.3,283.903174152374,0.733606576919556,284.637840023041,3,right,0.718756914138794,284.636780729294,604.489393224716,607.249393224716,1657314676.84714,1657314676.85075,1657314684.21655,1657314684.21856,1657314686.31734,1657314689.75195,1657314689.75413,1657314690.48662,1657314690.48556,1657315010.33817,0
132,4,1,3,16,5,2,c2_WhyHand,1,self-protection?,96,H_027.jpg,1657314403.08878,1657314403.10206,270.998361816406,7.35360813140869,278.367776145935,280.468559732437,0.3,284.95356511116,0.917009353637695,285.872077932358,1,left,0.894486904144287,285.870574464798,604.489393224716,607.249393224716,1657314676.84714,1657314676.85075,1657314684.21655,1657314684.21856,1657314686.31734,1657314690.80234,1657314690.80397,1657314691.72085,1657314691.71935,1657315010.33817,1
132,4,1,3,16,6,2,c2_WhyHand,1,self-protection?,93,H_038.jpg,1657314403.08878,1657314403.10206,270.998361816406,7.35360813140869,278.367776145935,280.468559732437,0.3,286.187359323502,0.80029821395874,286.988718976974,1,left,0.780104875564575,286.98765753746,604.489393224716,607.249393224716,1657314676.84714,1657314676.85075,1657314684.21655,1657314684.21856,1657314686.31734,1657314692.03614,1657314692.03763,1657314692.8375,1657314692.83643,1657315010.33817,1
132,4,1,3,16,7,2,c2_WhyHand,2,self-protection?,95,H_332.jpg,1657314403.08878,1657314403.10206,270.998361816406,7.35360813140869,278.367776145935,280.468559732437,0.3,287.304442634583,0.967026710510254,288.272603025436,3,right,0.952363014221191,288.271469345093,604.489393224716,607.249393224716,1657314676.84714,1657314676.85075,1657314684.21655,1657314684.21856,1657314686.31734,1657314693.15322,1657314693.15565,1657314694.12138,1657314694.12025,1657315010.33817,0
132,4,1,3,16,8,2,c2_WhyHand,1,self-protection?,94,H_189.jpg,1657314403.08878,1657314403.10206,270.998361816406,7.35360813140869,278.367776145935,280.468559732437,0.3,288.588254442215,1.15042901039124,289.75198387146,1,left,1.14393401145935,289.738683452606,604.489393224716,607.249393224716,1657314676.84714,1657314676.85075,1657314684.21655,1657314684.21856,1657314686.31734,1657314694.43703,1657314694.43872,1657314695.60076,1657314695.58746,1657315010.33817,1
132,4,1,3,17,1,3,c3_HowFace,1,smiling?,118,F_759.jpg,1657314403.08878,1657314403.10206,289.8387200737,9.99337577819824,299.842451562881,301.943235626221,2.10078406333923,302.093290557861,0.483513832092285,302.584895839691,1,left,0.466567993164062,302.576804389954,604.489393224716,607.249393224716,1657314695.6875,1657314695.68914,1657314705.69123,1657314705.70118,1657314707.79201,1657314707.94207,1657314707.95166,1657314708.43367,1657314708.42558,1657315010.33817,1
132,4,1,3,17,2,3,c3_HowFace,2,smiling?,114,F_412.jpg,1657314403.08878,1657314403.10206,289.8387200737,9.99337577819824,299.842451562881,301.943235626221,0.3,302.893589248657,0.666914701461792,303.561960926056,3,right,0.647207021713257,303.560503950119,604.489393224716,607.249393224716,1657314695.6875,1657314695.68914,1657314705.69123,1657314705.70118,1657314707.79201,1657314708.74237,1657314708.74426,1657314709.41074,1657314709.40928,1657315010.33817,0
132,4,1,3,17,3,3,c3_HowFace,1,smiling?,117,F_593.jpg,1657314403.08878,1657314403.10206,289.8387200737,9.99337577819824,299.842451562881,301.943235626221,0.3,303.877289047241,0.683588266372681,304.562607040405,1,left,0.663540124893188,304.560877313614,604.489393224716,607.249393224716,1657314695.6875,1657314695.68914,1657314705.69123,1657314705.70118,1657314707.79201,1657314709.72607,1657314709.72758,1657314710.41138,1657314710.40965,1657315010.33817,1
132,4,1,3,17,4,3,c3_HowFace,2,smiling?,113,F_712.jpg,1657314403.08878,1657314403.10206,289.8387200737,9.99337577819824,299.842451562881,301.943235626221,0.3,304.877662649155,0.633569955825806,305.512840976715,3,right,0.613630056381226,305.51123260498,604.489393224716,607.249393224716,1657314695.6875,1657314695.68914,1657314705.69123,1657314705.70118,1657314707.79201,1657314710.72644,1657314710.72831,1657314711.36162,1657314711.36001,1657315010.33817,0
132,4,1,3,17,5,3,c3_HowFace,1,smiling?,115,F_695.jpg,1657314403.08878,1657314403.10206,289.8387200737,9.99337577819824,299.842451562881,301.943235626221,0.3,305.828017225266,0.600223064422607,306.430343856812,1,left,0.579899072647095,306.428240289688,604.489393224716,607.249393224716,1657314695.6875,1657314695.68914,1657314705.69123,1657314705.70118,1657314707.79201,1657314711.67679,1657314711.67836,1657314712.27912,1657314712.27702,1657315010.33817,1
132,4,1,3,17,6,3,c3_HowFace,1,smiling?,119,F_139.jpg,1657314403.08878,1657314403.10206,289.8387200737,9.99337577819824,299.842451562881,301.943235626221,0.3,306.745025625229,0.616897106170654,307.363673915863,1,left,0.593294143676758,307.3619227314,604.489393224716,607.249393224716,1657314695.6875,1657314695.68914,1657314705.69123,1657314705.70118,1657314707.79201,1657314712.5938,1657314712.59606,1657314713.21245,1657314713.2107,1657315010.33817,1
132,4,1,3,17,7,3,c3_HowFace,1,smiling?,116,F_083.jpg,1657314403.08878,1657314403.10206,289.8387200737,9.99337577819824,299.842451562881,301.943235626221,0.3,307.678707351685,0.550204515457153,308.235262861252,1,left,0.535022020339966,308.228911867142,604.489393224716,607.249393224716,1657314695.6875,1657314695.68914,1657314705.69123,1657314705.70118,1657314707.79201,1657314713.52748,1657314713.529,1657314714.08404,1657314714.07769,1657315010.33817,1
132,4,1,3,17,8,3,c3_HowFace,2,smiling?,120,F_758.jpg,1657314403.08878,1657314403.10206,289.8387200737,9.99337577819824,299.842451562881,301.943235626221,0.3,308.54569767952,0.650241851806641,309.201670875549,3,right,0.639988899230957,309.195939531326,604.489393224716,607.249393224716,1657314695.6875,1657314695.68914,1657314705.69123,1657314705.70118,1657314707.79201,1657314714.39447,1657314714.3961,1657314715.05045,1657314715.04472,1657315010.33817,0
132,4,1,3,18,1,1,c1_WhyFace,1,admiring?,1,F_593.jpg,1657314403.08878,1657314403.10206,309.279304971695,8.34268093109131,317.632419338226,319.733203163147,2.10078382492065,319.883258333206,0.466841220855713,320.351935853958,1,left,0.444606065750122,320.350099554062,604.489393224716,607.249393224716,1657314715.12808,1657314715.13434,1657314723.4812,1657314723.48458,1657314725.58198,1657314725.73204,1657314725.7345,1657314726.20071,1657314726.19888,1657315010.33817,1
132,4,1,3,18,2,1,c1_WhyFace,2,admiring?,2,F_129.jpg,1657314403.08878,1657314403.10206,309.279304971695,8.34268093109131,317.632419338226,319.733203163147,0.3,320.666884174347,0.600223302841187,321.268857946396,3,right,0.575391054153442,321.267107477188,604.489393224716,607.249393224716,1657314715.12808,1657314715.13434,1657314723.4812,1657314723.48458,1657314725.58198,1657314726.51566,1657314726.51761,1657314727.11764,1657314727.11588,1657315010.33817,0
132,4,1,3,18,3,1,c1_WhyFace,1,admiring?,5,F_759.jpg,1657314403.08878,1657314403.10206,309.279304971695,8.34268093109131,317.632419338226,319.733203163147,0.3,321.583891859055,0.583552122116089,322.168359031677,1,left,0.576169967651367,322.167443981171,604.489393224716,607.249393224716,1657314715.12808,1657314715.13434,1657314723.4812,1657314723.48458,1657314725.58198,1657314727.43267,1657314727.4346,1657314728.01714,1657314728.01622,1657315010.33817,1
132,4,1,3,18,4,1,c1_WhyFace,2,admiring?,6,F_692.jpg,1657314403.08878,1657314403.10206,309.279304971695,8.34268093109131,317.632419338226,319.733203163147,0.3,322.484228839874,0.600223779678345,323.08544801712,3,right,0.588477849960327,323.084452619553,604.489393224716,607.249393224716,1657314715.12808,1657314715.13434,1657314723.4812,1657314723.48458,1657314725.58198,1657314728.33301,1657314728.33456,1657314728.93423,1657314728.93323,1657315010.33817,0
132,4,1,3,18,5,1,c1_WhyFace,1,admiring?,4,F_779.jpg,1657314403.08878,1657314403.10206,309.279304971695,8.34268093109131,317.632419338226,319.733203163147,0.3,323.401237478256,0.583549976348877,324.00237988472,1,left,0.576106071472168,323.984787454605,604.489393224716,607.249393224716,1657314715.12808,1657314715.13434,1657314723.4812,1657314723.48458,1657314725.58198,1657314729.25001,1657314729.25171,1657314729.85116,1657314729.83356,1657315010.33817,1
132,4,1,3,18,6,1,c1_WhyFace,1,admiring?,8,F_590.jpg,1657314403.08878,1657314403.10206,309.279304971695,8.34268093109131,317.632419338226,319.733203163147,0.3,324.301572551727,0.616897106170654,324.919602861404,1,left,0.596891164779663,324.918469657898,604.489393224716,607.249393224716,1657314715.12808,1657314715.13434,1657314723.4812,1657314723.48458,1657314725.58198,1657314730.15035,1657314730.15213,1657314730.76838,1657314730.76725,1657315010.33817,1
132,4,1,3,18,7,1,c1_WhyFace,1,admiring?,7,F_648.jpg,1657314403.08878,1657314403.10206,309.279304971695,8.34268093109131,317.632419338226,319.733203163147,0.3,325.235254516602,0.766952991485596,326.003943910599,1,left,0.751139879226685,326.002207508087,604.489393224716,607.249393224716,1657314715.12808,1657314715.13434,1657314723.4812,1657314723.48458,1657314725.58198,1657314731.08403,1657314731.08514,1657314731.85272,1657314731.85098,1657315010.33817,1
132,4,1,3,18,8,1,c1_WhyFace,2,admiring?,3,F_110.jpg,1657314403.08878,1657314403.10206,309.279304971695,8.34268093109131,317.632419338226,319.733203163147,0.3,326.318991651535,0.766952753067017,327.102229824066,3,right,0.758983135223389,327.085944404602,604.489393224716,607.249393224716,1657314715.12808,1657314715.13434,1657314723.4812,1657314723.48458,1657314725.58198,1657314732.16777,1657314732.16938,1657314732.95101,1657314732.93472,1657315010.33817,0
132,4,1,3,19,1,2,c2_WhyHand,1,competing?,9,H_261.jpg,1657314403.08878,1657314403.10206,327.185982694626,8.32592129707336,335.522424211502,337.623207798004,2.10078358650208,337.773262968063,0.600222587585449,338.385689964294,1,left,0.59100604057312,338.373485555649,604.489393224716,607.249393224716,1657314733.03476,1657314733.03636,1657314741.3712,1657314741.37285,1657314743.47198,1657314743.62204,1657314743.62403,1657314744.23447,1657314744.22226,1657315010.33817,1
132,4,1,3,19,2,2,c2_WhyHand,1,competing?,15,H_170.jpg,1657314403.08878,1657314403.10206,327.185982694626,8.32592129707336,335.522424211502,337.623207798004,0.3,338.690271129608,0.500186920166016,339.191938867569,1,left,0.482149124145508,339.190458049774,604.489393224716,607.249393224716,1657314733.03476,1657314733.03636,1657314741.3712,1657314741.37285,1657314743.47198,1657314744.53905,1657314744.54078,1657314745.04072,1657314745.03924,1657315010.33817,1
132,4,1,3,19,3,2,c2_WhyHand,2,competing?,12,H_483.jpg,1657314403.08878,1657314403.10206,327.185982694626,8.32592129707336,335.522424211502,337.623207798004,0.3,339.507243146896,0.633569717407227,340.142500867844,3,right,0.613831996917725,340.140812864304,604.489393224716,607.249393224716,1657314733.03476,1657314733.03636,1657314741.3712,1657314741.37285,1657314743.47198,1657314745.35602,1657314745.35747,1657314745.99128,1657314745.98959,1657315010.33817,0
132,4,1,3,19,4,2,c2_WhyHand,1,competing?,14,H_132.jpg,1657314403.08878,1657314403.10206,327.185982694626,8.32592129707336,335.522424211502,337.623207798004,0.3,340.457598676682,0.583549976348877,341.04285692215,1,left,0.560739994049072,341.04114865303,604.489393224716,607.249393224716,1657314733.03476,1657314733.03636,1657314741.3712,1657314741.37285,1657314743.47198,1657314746.30638,1657314746.30816,1657314746.89163,1657314746.88993,1657315010.33817,1
132,4,1,3,19,5,2,c2_WhyHand,1,competing?,16,H_136.jpg,1657314403.08878,1657314403.10206,327.185982694626,8.32592129707336,335.522424211502,337.623207798004,0.3,341.357933511734,0.60022497177124,341.968188037872,1,left,0.58721399307251,341.958158483505,604.489393224716,607.249393224716,1657314733.03476,1657314733.03636,1657314741.3712,1657314741.37285,1657314743.47198,1657314747.20671,1657314747.2083,1657314747.81697,1657314747.80694,1657315010.33817,1
132,4,1,3,19,6,2,c2_WhyHand,1,competing?,13,H_003.jpg,1657314403.08878,1657314403.10206,327.185982694626,8.32592129707336,335.522424211502,337.623207798004,0.3,342.274942150116,0.600223302841187,342.885396947861,1,left,0.588696956634521,342.875165452957,604.489393224716,607.249393224716,1657314733.03476,1657314733.03636,1657314741.3712,1657314741.37285,1657314743.47198,1657314748.12372,1657314748.12521,1657314748.73417,1657314748.72394,1657315010.33817,1
132,4,1,3,19,7,2,c2_WhyHand,2,competing?,10,H_126.jpg,1657314403.08878,1657314403.10206,327.185982694626,8.32592129707336,335.522424211502,337.623207798004,0.3,343.191950550079,0.783626317977905,343.985314836502,3,right,0.769473075866699,343.975576868057,604.489393224716,607.249393224716,1657314733.03476,1657314733.03636,1657314741.3712,1657314741.37285,1657314743.47198,1657314749.04073,1657314749.04233,1657314749.83409,1657314749.82435,1657315010.33817,0
132,4,1,3,19,8,2,c2_WhyHand,2,competing?,11,H_502.jpg,1657314403.08878,1657314403.10206,327.185982694626,8.32592129707336,335.522424211502,337.623207798004,0.3,344.292361011505,0.716934442520142,345.011132946014,3,right,0.693610906600952,345.009295454025,604.489393224716,607.249393224716,1657314733.03476,1657314733.03636,1657314741.3712,1657314741.37285,1657314743.47198,1657314750.14114,1657314750.14299,1657314750.85991,1657314750.85807,1657315010.33817,0
132,4,1,3,20,1,4,c4_HowHand,1,reaching?,111,H_003.jpg,1657314403.08878,1657314403.10206,345.092659702301,11.8992321491241,356.997098674774,359.097882738113,2.10078406333923,359.247940292358,0.616895437240601,359.868836870193,1,left,0.595509052276611,359.864835729599,604.489393224716,607.249393224716,1657314750.94144,1657314750.94309,1657314762.84588,1657314762.85113,1657314764.94666,1657314765.09672,1657314765.10112,1657314765.71761,1657314765.71361,1657315010.33817,1
132,4,1,3,20,2,4,c4_HowHand,1,reaching?,110,H_364.jpg,1657314403.08878,1657314403.10206,345.092659702301,11.8992321491241,356.997098674774,359.097882738113,0.3,360.181619873047,0.716933250427246,360.902210941315,1,left,0.700321912765503,360.898553123474,604.489393224716,607.249393224716,1657314750.94144,1657314750.94309,1657314762.84588,1657314762.85113,1657314764.94666,1657314766.0304,1657314766.0344,1657314766.75099,1657314766.74733,1657315010.33817,1
132,4,1,3,20,3,4,c4_HowHand,2,reaching?,108,H_532.jpg,1657314403.08878,1657314403.10206,345.092659702301,11.8992321491241,356.997098674774,359.097882738113,0.3,361.215338459015,0.866989850997925,362.085684051514,3,right,0.844336986541748,362.082328310013,604.489393224716,607.249393224716,1657314750.94144,1657314750.94309,1657314762.84588,1657314762.85113,1657314764.94666,1657314767.06412,1657314767.06773,1657314767.93446,1657314767.93111,1657315010.33817,0
132,4,1,3,20,4,4,c4_HowHand,1,reaching?,106,H_006.jpg,1657314403.08878,1657314403.10206,345.092659702301,11.8992321491241,356.997098674774,359.097882738113,0.3,362.399113407135,0.666915893554688,363.068657865524,1,left,0.651774168014526,363.06602930069,604.489393224716,607.249393224716,1657314750.94144,1657314750.94309,1657314762.84588,1657314762.85113,1657314764.94666,1657314768.24789,1657314768.2512,1657314768.91743,1657314768.91481,1657315010.33817,1
132,4,1,3,20,5,4,c4_HowHand,2,reaching?,105,H_438.jpg,1657314403.08878,1657314403.10206,345.092659702301,11.8992321491241,356.997098674774,359.097882738113,0.3,363.382813444138,0.750280141830444,364.135473003387,3,right,0.728471994400024,364.133093585968,604.489393224716,607.249393224716,1657314750.94144,1657314750.94309,1657314762.84588,1657314762.85113,1657314764.94666,1657314769.23159,1657314769.23452,1657314769.98425,1657314769.98187,1657315010.33817,0
132,4,1,3,20,6,4,c4_HowHand,1,reaching?,107,H_007.jpg,1657314403.08878,1657314403.10206,345.092659702301,11.8992321491241,356.997098674774,359.097882738113,0.3,364.44987868309,0.866990089416504,365.318379869461,1,left,0.848443984985352,365.316868772507,604.489393224716,607.249393224716,1657314750.94144,1657314750.94309,1657314762.84588,1657314762.85113,1657314764.94666,1657314770.29866,1657314770.30075,1657314771.16716,1657314771.16565,1657315010.33817,1
132,4,1,3,20,7,4,c4_HowHand,1,reaching?,109,H_474.jpg,1657314403.08878,1657314403.10206,345.092659702301,11.8992321491241,356.997098674774,359.097882738113,0.3,365.633652915955,0.983700275421143,366.619281997681,1,left,0.973654985427856,366.617353191376,604.489393224716,607.249393224716,1657314750.94144,1657314750.94309,1657314762.84588,1657314762.85113,1657314764.94666,1657314771.48243,1657314771.48397,1657314772.46806,1657314772.46613,1657315010.33817,1
132,4,1,3,20,8,4,c4_HowHand,2,reaching?,112,H_132.jpg,1657314403.08878,1657314403.10206,345.092659702301,11.8992321491241,356.997098674774,359.097882738113,0.3,366.934139003754,0.833643198013306,367.769289960861,3,right,0.816971063613892,367.767782201767,604.489393224716,607.249393224716,1657314750.94144,1657314750.94309,1657314762.84588,1657314762.85113,1657314764.94666,1657314772.78292,1657314772.78469,1657314773.61807,1657314773.61656,1657315010.33817,0
132,4,1,3,21,1,3,c3_HowFace,1,open mouth?,73,F_403.jpg,1657314403.08878,1657314403.10206,367.851146211624,6.98073363304138,374.837085475922,376.937868108749,2.10078263282776,377.087924470901,0.583551406860352,377.672432889938,1,left,0.558804988861084,377.671475877762,604.489393224716,607.249393224716,1657314773.69992,1657314773.70091,1657314780.68586,1657314780.70123,1657314782.78665,1657314782.9367,1657314782.95158,1657314783.52121,1657314783.52025,1657315010.33817,1
132,4,1,3,21,2,3,c3_HowFace,2,open mouth?,79,F_648.jpg,1657314403.08878,1657314403.10206,367.851146211624,6.98073363304138,374.837085475922,376.937868108749,0.3,377.988260498047,0.583551168441772,378.572968950272,3,right,0.562741041183472,378.571811666489,604.489393224716,607.249393224716,1657314773.69992,1657314773.70091,1657314780.68586,1657314780.70123,1657314782.78665,1657314783.83704,1657314783.83877,1657314784.42175,1657314784.42059,1657315010.33817,0
132,4,1,3,21,3,3,c3_HowFace,1,open mouth?,74,F_776.jpg,1657314403.08878,1657314403.10206,367.851146211624,6.98073363304138,374.837085475922,376.937868108749,0.3,378.888595809937,0.466840744018555,379.357141962051,1,left,0.447489976882935,379.355436553955,604.489393224716,607.249393224716,1657314773.69992,1657314773.70091,1657314780.68586,1657314780.70123,1657314782.78665,1657314784.73737,1657314784.73925,1657314785.20592,1657314785.20421,1657315010.33817,1
132,4,1,3,21,4,3,c3_HowFace,2,open mouth?,77,F_584.jpg,1657314403.08878,1657314403.10206,367.851146211624,6.98073363304138,374.837085475922,376.937868108749,0.3,379.67222117424,0.600224494934082,380.273514976501,3,right,0.580239057540894,380.272445669174,604.489393224716,607.249393224716,1657314773.69992,1657314773.70091,1657314780.68586,1657314780.70123,1657314782.78665,1657314785.521,1657314785.52279,1657314786.12229,1657314786.12122,1657315010.33817,0
132,4,1,3,21,5,3,c3_HowFace,1,open mouth?,80,F_844.jpg,1657314403.08878,1657314403.10206,367.851146211624,6.98073363304138,374.837085475922,376.937868108749,0.3,380.589230051041,0.600224018096924,381.202380886078,1,left,0.593207120895386,381.189454069138,604.489393224716,607.249393224716,1657314773.69992,1657314773.70091,1657314780.68586,1657314780.70123,1657314782.78665,1657314786.43801,1657314786.43972,1657314787.05116,1657314787.03823,1657315010.33817,1
132,4,1,3,21,6,3,c3_HowFace,1,open mouth?,78,F_692.jpg,1657314403.08878,1657314403.10206,367.851146211624,6.98073363304138,374.837085475922,376.937868108749,0.3,381.506239404678,0.700260877609253,382.208281030655,1,left,0.678030014038086,382.206500282288,604.489393224716,607.249393224716,1657314773.69992,1657314773.70091,1657314780.68586,1657314780.70123,1657314782.78665,1657314787.35502,1657314787.35675,1657314788.05706,1657314788.05528,1657315010.33817,1
132,4,1,3,21,7,3,c3_HowFace,1,open mouth?,75,F_086.jpg,1657314403.08878,1657314403.10206,367.851146211624,6.98073363304138,374.837085475922,376.937868108749,0.3,382.52328537941,0.683587789535522,383.208636035919,1,left,0.66526198387146,383.206873168945,604.489393224716,607.249393224716,1657314773.69992,1657314773.70091,1657314780.68586,1657314780.70123,1657314782.78665,1657314788.37206,1657314788.37372,1657314789.05741,1657314789.05565,1657315010.33817,1
132,4,1,3,21,8,3,c3_HowFace,2,open mouth?,76,F_544.jpg,1657314403.08878,1657314403.10206,367.851146211624,6.98073363304138,374.837085475922,376.937868108749,0.3,383.523657550812,0.650242805480957,384.174949874878,3,right,0.630608081817627,384.173900356293,604.489393224716,607.249393224716,1657314773.69992,1657314773.70091,1657314780.68586,1657314780.70123,1657314782.78665,1657314789.37243,1657314789.374,1657314790.02373,1657314790.02268,1657315010.33817,0
132,4,1,3,22,1,1,c1_WhyFace,1,argument?,42,F_403.jpg,1657314403.08878,1657314403.10206,384.257264842987,9.25064516067505,393.527388086319,395.611499061584,2.0841109752655,395.761555423737,0.500186443328857,396.268216838837,1,left,0.487748146057129,396.261741867065,604.489393224716,607.249393224716,1657314790.10604,1657314790.10764,1657314799.37617,1657314799.37799,1657314801.46028,1657314801.61033,1657314801.61806,1657314802.11699,1657314802.11052,1657315010.33817,1
132,4,1,3,22,2,1,c1_WhyFace,2,argument?,46,F_844.jpg,1657314403.08878,1657314403.10206,384.257264842987,9.25064516067505,393.527388086319,395.611499061584,0.3,396.578526725769,0.583550214767456,397.168843975067,3,right,0.565742969512939,397.162076940537,604.489393224716,607.249393224716,1657314790.10604,1657314790.10764,1657314799.37617,1657314799.37799,1657314801.46028,1657314802.4273,1657314802.42901,1657314803.01762,1657314803.01085,1657315010.33817,0
132,4,1,3,22,3,1,c1_WhyFace,1,argument?,41,F_712.jpg,1657314403.08878,1657314403.10206,384.257264842987,9.25064516067505,393.527388086319,395.611499061584,0.3,397.478862752914,0.66691517829895,398.151610841751,1,left,0.656702995300293,398.145777931213,604.489393224716,607.249393224716,1657314790.10604,1657314790.10764,1657314799.37617,1657314799.37799,1657314801.46028,1657314803.32764,1657314803.32947,1657314804.00039,1657314803.99455,1657315010.33817,1
132,4,1,3,22,4,1,c1_WhyFace,1,argument?,48,F_758.jpg,1657314403.08878,1657314403.10206,384.257264842987,9.25064516067505,393.527388086319,395.611499061584,0.3,398.46256231308,0.600224256515503,399.068222990036,1,left,0.58761191368103,399.062786569595,604.489393224716,607.249393224716,1657314790.10604,1657314790.10764,1657314799.37617,1657314799.37799,1657314801.46028,1657314804.31134,1657314804.31313,1657314804.917,1657314804.91156,1657315010.33817,1
132,4,1,3,22,5,1,c1_WhyFace,2,argument?,45,F_433.jpg,1657314403.08878,1657314403.10206,384.257264842987,9.25064516067505,393.527388086319,395.611499061584,0.3,399.37957118988,0.633569240570068,400.01831697464,3,right,0.615831851959229,400.01314043045,604.489393224716,607.249393224716,1657314790.10604,1657314790.10764,1657314799.37617,1657314799.37799,1657314801.46028,1657314805.22835,1657314805.22998,1657314805.86709,1657314805.86192,1657315010.33817,0
132,4,1,3,22,6,1,c1_WhyFace,1,argument?,43,F_716.jpg,1657314403.08878,1657314403.10206,384.257264842987,9.25064516067505,393.527388086319,395.611499061584,0.3,400.329925289154,0.750280618667603,401.085293998718,1,left,0.74080491065979,401.080205907822,604.489393224716,607.249393224716,1657314790.10604,1657314790.10764,1657314799.37617,1657314799.37799,1657314801.46028,1657314806.1787,1657314806.18042,1657314806.93407,1657314806.92898,1657315010.33817,1
132,4,1,3,22,7,1,c1_WhyFace,2,argument?,44,F_139.jpg,1657314403.08878,1657314403.10206,384.257264842987,9.25064516067505,393.527388086319,395.611499061584,0.3,401.39699005127,0.683588266372681,402.084946861267,3,right,0.664344072341919,402.080578317642,604.489393224716,607.249393224716,1657314790.10604,1657314790.10764,1657314799.37617,1657314799.37799,1657314801.46028,1657314807.24577,1657314807.24774,1657314807.93372,1657314807.92936,1657315010.33817,0
132,4,1,3,22,8,1,c1_WhyFace,1,argument?,47,F_743.jpg,1657314403.08878,1657314403.10206,384.257264842987,9.25064516067505,393.527388086319,395.611499061584,0.3,402.397363891602,0.550204515457153,402.949125041962,1,left,0.525065898895264,402.947568407059,604.489393224716,607.249393224716,1657314790.10604,1657314790.10764,1657314799.37617,1657314799.37799,1657314801.46028,1657314808.24614,1657314808.25086,1657314808.7979,1657314808.79635,1657315010.33817,1
132,4,1,3,23,1,2,c2_WhyHand,1,helping?,39,H_024.jpg,1657314403.08878,1657314403.10206,403.030932893753,8.69707012176514,411.734178056717,413.834960927963,2.10078287124634,413.985017290115,0.866990566253662,414.853557815552,3,right,0.851551055908203,414.852007856369,604.489393224716,607.249393224716,1657314808.87971,1657314808.88419,1657314817.58296,1657314817.58479,1657314819.68374,1657314819.83379,1657314819.83534,1657314820.70233,1657314820.70078,1657315010.33817,0
132,4,1,3,23,2,2,c2_WhyHand,1,helping?,36,H_349.jpg,1657314403.08878,1657314403.10206,403.030932893753,8.69707012176514,411.734178056717,413.834960927963,0.3,415.168792476654,0.650242805480957,415.820788850784,1,left,0.638454914093018,415.819035282135,604.489393224716,607.249393224716,1657314808.87971,1657314808.88419,1657314817.58296,1657314817.58479,1657314819.68374,1657314821.01757,1657314821.01914,1657314821.66957,1657314821.66781,1657315010.33817,1
132,4,1,3,23,3,2,c2_WhyHand,1,helping?,38,H_077.jpg,1657314403.08878,1657314403.10206,403.030932893753,8.69707012176514,411.734178056717,413.834960927963,0.3,416.135819187164,0.850316047668457,416.987711896896,3,right,0.836416006088257,416.986135234833,604.489393224716,607.249393224716,1657314808.87971,1657314808.88419,1657314817.58296,1657314817.58479,1657314819.68374,1657314821.9846,1657314821.98664,1657314822.83649,1657314822.83491,1657315010.33817,0
132,4,1,3,23,4,2,c2_WhyHand,1,helping?,37,H_474.jpg,1657314403.08878,1657314403.10206,403.030932893753,8.69707012176514,411.734178056717,413.834960927963,0.3,417.302921524048,0.917008638381958,418.220981826782,1,left,0.898112058639526,418.21993016243,604.489393224716,607.249393224716,1657314808.87971,1657314808.88419,1657314817.58296,1657314817.58479,1657314819.68374,1657314823.1517,1657314823.15351,1657314824.06976,1657314824.06871,1657315010.33817,1
132,4,1,3,23,5,2,c2_WhyHand,2,helping?,33,H_091.jpg,1657314403.08878,1657314403.10206,403.030932893753,8.69707012176514,411.734178056717,413.834960927963,0.3,418.536715259552,0.683587789535522,419.222018947601,3,right,0.663558959960938,419.220303049088,604.489393224716,607.249393224716,1657314808.87971,1657314808.88419,1657314817.58296,1657314817.58479,1657314819.68374,1657314824.38549,1657314824.38771,1657314825.0708,1657314825.06908,1657315010.33817,0
132,4,1,3,23,6,2,c2_WhyHand,2,helping?,35,H_159.jpg,1657314403.08878,1657314403.10206,403.030932893753,8.69707012176514,411.734178056717,413.834960927963,0.3,419.53708814621,0.733606815338135,420.285794010162,3,right,0.726152896881104,420.270694961548,604.489393224716,607.249393224716,1657314808.87971,1657314808.88419,1657314817.58296,1657314817.58479,1657314819.68374,1657314825.38587,1657314825.3876,1657314826.13457,1657314826.11947,1657315010.33817,0
132,4,1,3,23,7,2,c2_WhyHand,1,helping?,34,H_111.jpg,1657314403.08878,1657314403.10206,403.030932893753,8.69707012176514,411.734178056717,413.834960927963,0.3,420.587479104996,0.683589220046997,421.272122850418,1,left,0.663944959640503,421.271068325043,604.489393224716,607.249393224716,1657314808.87971,1657314808.88419,1657314817.58296,1657314817.58479,1657314819.68374,1657314826.43626,1657314826.43793,1657314827.1209,1657314827.11985,1657315010.33817,1
132,4,1,3,23,8,2,c2_WhyHand,2,helping?,40,H_012.jpg,1657314403.08878,1657314403.10206,403.030932893753,8.69707012176514,411.734178056717,413.834960927963,0.3,421.587852230072,0.883664131164551,422.473203887939,3,right,0.868567943572998,422.471516361237,604.489393224716,607.249393224716,1657314808.87971,1657314808.88419,1657314817.58296,1657314817.58479,1657314819.68374,1657314827.43663,1657314827.4385,1657314828.32198,1657314828.32029,1657315010.33817,0
132,4,1,3,24,1,4,c4_HowHand,1,both hands?,122,H_111.jpg,1657314403.08878,1657314403.10206,422.554879894257,7.24310708045959,429.807585706711,431.908368816376,2.10078310966492,432.058424224854,0.716933727264404,432.776422014236,1,left,0.690356016159058,432.775357952118,604.489393224716,607.249393224716,1657314828.40366,1657314828.40525,1657314835.65636,1657314835.66805,1657314837.75715,1657314837.9072,1657314837.91829,1657314838.6252,1657314838.62414,1657315010.33817,1
132,4,1,3,24,2,4,c4_HowHand,1,both hands?,128,H_027.jpg,1657314403.08878,1657314403.10206,422.554879894257,7.24310708045959,429.807585706711,431.908368816376,0.3,433.092144479752,0.550203561782837,433.652114858627,1,left,0.544477224349976,433.642348041534,604.489393224716,607.249393224716,1657314828.40366,1657314828.40525,1657314835.65636,1657314835.66805,1657314837.75715,1657314838.94092,1657314838.9421,1657314839.50089,1657314839.49113,1657315010.33817,1
132,4,1,3,24,3,4,c4_HowHand,2,both hands?,121,H_091.jpg,1657314403.08878,1657314403.10206,422.554879894257,7.24310708045959,429.807585706711,431.908368816376,0.3,433.959133138657,0.566878080368042,434.535151948929,3,right,0.554095983505249,434.526011219025,604.489393224716,607.249393224716,1657314828.40366,1657314828.40525,1657314835.65636,1657314835.66805,1657314837.75715,1657314839.80791,1657314839.80977,1657314840.38393,1657314840.37479,1657315010.33817,0
132,4,1,3,24,4,4,c4_HowHand,1,both hands?,123,H_167.jpg,1657314403.08878,1657314403.10206,422.554879894257,7.24310708045959,429.807585706711,431.908368816376,0.3,434.842796554565,0.65024209022522,435.502472867966,1,left,0.637599945068359,435.493038644791,604.489393224716,607.249393224716,1657314828.40366,1657314828.40525,1657314835.65636,1657314835.66805,1657314837.75715,1657314840.69157,1657314840.69329,1657314841.35125,1657314841.34182,1657315010.33817,1
132,4,1,3,24,5,4,c4_HowHand,1,both hands?,124,H_581.jpg,1657314403.08878,1657314403.10206,422.554879894257,7.24310708045959,429.807585706711,431.908368816376,0.3,435.80982421875,0.683587312698364,436.494834890366,1,left,0.662533044815063,436.493411531448,604.489393224716,607.249393224716,1657314828.40366,1657314828.40525,1657314835.65636,1657314835.66805,1657314837.75715,1657314841.6586,1657314841.66053,1657314842.34361,1657314842.34219,1657315010.33817,1
132,4,1,3,24,6,4,c4_HowHand,2,both hands?,126,H_159.jpg,1657314403.08878,1657314403.10206,422.554879894257,7.24310708045959,429.807585706711,431.908368816376,0.3,436.810195198059,0.833645343780518,437.645585050583,3,right,0.814972877502441,437.64384054184,604.489393224716,607.249393224716,1657314828.40366,1657314828.40525,1657314835.65636,1657314835.66805,1657314837.75715,1657314842.65897,1657314842.6606,1657314843.49436,1657314843.49262,1657315010.33817,0
132,4,1,3,24,7,4,c4_HowHand,1,both hands?,127,H_349.jpg,1657314403.08878,1657314403.10206,422.554879894257,7.24310708045959,429.807585706711,431.908368816376,0.3,437.960625162125,0.550204992294312,438.518195858002,1,left,0.534283876419067,438.510830154419,604.489393224716,607.249393224716,1657314828.40366,1657314828.40525,1657314835.65636,1657314835.66805,1657314837.75715,1657314843.8094,1657314843.81131,1657314844.36697,1657314844.35961,1657315010.33817,1
132,4,1,3,24,8,4,c4_HowHand,2,both hands?,125,H_627.jpg,1657314403.08878,1657314403.10206,422.554879894257,7.24310708045959,429.807585706711,431.908368816376,0.3,438.827615966797,0.716932773590088,439.551640024185,3,right,0.700875997543335,439.544548740387,604.489393224716,607.249393224716,1657314828.40366,1657314828.40525,1657314835.65636,1657314835.66805,1657314837.75715,1657314844.67639,1657314844.67808,1657314845.40042,1657314845.39333,1657315010.33817,0
132,4,1,3,25,1,2,c2_WhyHand,1,healthy?,18,H_438.jpg,1657314403.08878,1657314403.10206,439.627913703918,7.6870002746582,447.330786457062,449.431569328308,2.10078287124634,449.581627120972,0.833643913269043,450.417156925201,1,left,0.808932065963745,450.415271034241,604.489393224716,607.249393224716,1657314845.47669,1657314845.48432,1657314853.17956,1657314853.18421,1657314855.28035,1657314855.4304,1657314855.43462,1657314856.26593,1657314856.26405,1657315010.33817,1
132,4,1,3,25,2,2,c2_WhyHand,1,healthy?,23,H_364.jpg,1657314403.08878,1657314403.10206,439.627913703918,7.6870002746582,447.330786457062,449.431569328308,0.3,450.732055177689,0.616896152496338,451.352118005753,1,left,0.594919919967651,451.348951330185,604.489393224716,607.249393224716,1657314845.47669,1657314845.48432,1657314853.17956,1657314853.18421,1657314855.28035,1657314856.58083,1657314856.58417,1657314857.2009,1657314857.19773,1657315010.33817,1
132,4,1,3,25,3,2,c2_WhyHand,1,healthy?,17,H_362.jpg,1657314403.08878,1657314403.10206,439.627913703918,7.6870002746582,447.330786457062,449.431569328308,0.3,451.665736427307,0.633568286895752,452.301627864838,1,left,0.61532187461853,452.299304714203,604.489393224716,607.249393224716,1657314845.47669,1657314845.48432,1657314853.17956,1657314853.18421,1657314855.28035,1657314857.51451,1657314857.51758,1657314858.1504,1657314858.14808,1657315010.33817,1
132,4,1,3,25,4,2,c2_WhyHand,2,healthy?,24,H_019.jpg,1657314403.08878,1657314403.10206,439.627913703918,7.6870002746582,447.330786457062,449.431569328308,0.3,452.616090049744,0.866990804672241,453.485308876038,3,right,0.852211952209473,453.483080854416,604.489393224716,607.249393224716,1657314845.47669,1657314845.48432,1657314853.17956,1657314853.18421,1657314855.28035,1657314858.46487,1657314858.46742,1657314859.33409,1657314859.33186,1657315010.33817,0
132,4,1,3,25,5,2,c2_WhyHand,1,healthy?,19,H_167.jpg,1657314403.08878,1657314403.10206,439.627913703918,7.6870002746582,447.330786457062,449.431569328308,0.3,453.799865474701,0.666915416717529,454.469137897491,1,left,0.652008056640625,454.466780891418,604.489393224716,607.249393224716,1657314845.47669,1657314845.48432,1657314853.17956,1657314853.18421,1657314855.28035,1657314859.64864,1657314859.65066,1657314860.31791,1657314860.31556,1657315010.33817,1
132,4,1,3,25,6,2,c2_WhyHand,2,healthy?,20,H_007.jpg,1657314403.08878,1657314403.10206,439.627913703918,7.6870002746582,447.330786457062,449.431569328308,0.3,454.783565034866,1.11708354949951,455.902477016449,1,left,1.09820604324341,455.900648584366,604.489393224716,607.249393224716,1657314845.47669,1657314845.48432,1657314853.17956,1657314853.18421,1657314855.28035,1657314860.63234,1657314860.63442,1657314861.75125,1657314861.74943,1657315010.33817,0
132,4,1,3,25,7,2,c2_WhyHand,1,healthy?,21,H_627.jpg,1657314403.08878,1657314403.10206,439.627913703918,7.6870002746582,447.330786457062,449.431569328308,0.3,456.217433204651,0.833645105361938,457.052826871872,1,left,0.815900087356567,457.051078310013,604.489393224716,607.249393224716,1657314845.47669,1657314845.48432,1657314853.17956,1657314853.18421,1657314855.28035,1657314862.06621,1657314862.06815,1657314862.9016,1657314862.89986,1657315010.33817,1
132,4,1,3,25,8,2,c2_WhyHand,2,healthy?,22,H_130.jpg,1657314403.08878,1657314403.10206,439.627913703918,7.6870002746582,447.330786457062,449.431569328308,0.3,457.367863407135,0.7669517993927,458.135752906799,3,right,0.75637412071228,458.134815206528,604.489393224716,607.249393224716,1657314845.47669,1657314845.48432,1657314853.17956,1657314853.18421,1657314855.28035,1657314863.21664,1657314863.21837,1657314863.98453,1657314863.98359,1657315010.33817,0
132,4,1,3,26,1,4,c4_HowHand,1,pressing button?,82,H_126.jpg,1657314403.08878,1657314403.10206,458.218180885315,8.15073704719543,466.387893428802,468.472004165649,2.08411073684692,468.622059574127,0.650243282318115,469.273743858337,1,left,0.620945930480957,469.272302856445,604.489393224716,607.249393224716,1657314864.06696,1657314864.06874,1657314872.23667,1657314872.23855,1657314874.32078,1657314874.47084,1657314874.48445,1657314875.12252,1657314875.12108,1657315010.33817,1
132,4,1,3,26,2,4,c4_HowHand,2,pressing button?,85,H_130.jpg,1657314403.08878,1657314403.10206,458.218180885315,8.15073704719543,466.387893428802,468.472004165649,0.3,469.58908747673,0.700260877609253,470.290397872925,3,right,0.682724952697754,470.28934835434,604.489393224716,607.249393224716,1657314864.06696,1657314864.06874,1657314872.23667,1657314872.23855,1657314874.32078,1657314875.43786,1657314875.43941,1657314876.13917,1657314876.13813,1657315010.33817,0
132,4,1,3,26,3,4,c4_HowHand,1,pressing button?,84,H_483.jpg,1657314403.08878,1657314403.10206,458.218180885315,8.15073704719543,466.387893428802,468.472004165649,0.3,470.60613368988,0.616896152496338,471.224061956406,1,left,0.594876050949097,471.223029842377,604.489393224716,607.249393224716,1657314864.06696,1657314864.06874,1657314872.23667,1657314872.23855,1657314874.32078,1657314876.45491,1657314876.45672,1657314877.07284,1657314877.07181,1657315010.33817,1
132,4,1,3,26,4,4,c4_HowHand,2,pressing button?,87,H_024.jpg,1657314403.08878,1657314403.10206,458.218180885315,8.15073704719543,466.387893428802,468.472004165649,0.3,471.539814224243,0.60022497177124,472.151633014679,3,right,0.587721109390259,472.140039196014,604.489393224716,607.249393224716,1657314864.06696,1657314864.06874,1657314872.23667,1657314872.23855,1657314874.32078,1657314877.38859,1657314877.39018,1657314878.00041,1657314877.98882,1657315010.33817,0
132,4,1,3,26,5,4,c4_HowHand,1,pressing button?,86,H_332.jpg,1657314403.08878,1657314403.10206,458.218180885315,8.15073704719543,466.387893428802,468.472004165649,0.3,472.456823101044,0.616897106170654,473.075211038589,1,left,0.598529100418091,473.073720207214,604.489393224716,607.249393224716,1657314864.06696,1657314864.06874,1657314872.23667,1657314872.23855,1657314874.32078,1657314878.3056,1657314878.30741,1657314878.92399,1657314878.9225,1657315010.33817,1
132,4,1,3,26,6,4,c4_HowHand,1,pressing button?,88,H_019.jpg,1657314403.08878,1657314403.10206,458.218180885315,8.15073704719543,466.387893428802,468.472004165649,0.3,473.390504589081,0.733606815338135,474.135429849625,1,left,0.726587057113647,474.124111404419,604.489393224716,607.249393224716,1657314864.06696,1657314864.06874,1657314872.23667,1657314872.23855,1657314874.32078,1657314879.23928,1657314879.24083,1657314879.98421,1657314879.97289,1657315010.33817,1
132,4,1,3,26,7,4,c4_HowHand,2,pressing button?,81,H_261.jpg,1657314403.08878,1657314403.10206,458.218180885315,8.15073704719543,466.387893428802,468.472004165649,0.3,474.440896263123,0.600223779678345,475.051627864838,3,right,0.592548131942749,475.041120042801,604.489393224716,607.249393224716,1657314864.06696,1657314864.06874,1657314872.23667,1657314872.23855,1657314874.32078,1657314880.28967,1657314880.29172,1657314880.9004,1657314880.8899,1657315010.33817,0
132,4,1,3,26,8,4,c4_HowHand,1,pressing button?,83,H_502.jpg,1657314403.08878,1657314403.10206,458.218180885315,8.15073704719543,466.387893428802,468.472004165649,0.3,475.357904186249,0.500187158584595,475.859686841965,1,left,0.480669021606445,475.858091344833,604.489393224716,607.249393224716,1657314864.06696,1657314864.06874,1657314872.23667,1657314872.23855,1657314874.32078,1657314881.20668,1657314881.20827,1657314881.70846,1657314881.70687,1657315010.33817,1
132,4,1,3,27,1,3,c3_HowFace,1,looking at camera?,60,F_618.jpg,1657314403.08878,1657314403.10206,475.941456069946,7.95745277404785,483.911094417572,486.011878480911,2.10078406333923,486.161933889389,0.483513832092285,486.651622047424,1,left,0.469699859619141,486.645447721481,604.489393224716,607.249393224716,1657314881.79023,1657314881.79174,1657314889.75987,1657314889.76773,1657314891.86066,1657314892.01071,1657314892.01842,1657314892.5004,1657314892.49422,1657315010.33817,1
132,4,1,3,27,2,3,c3_HowFace,2,looking at camera?,58,F_754.jpg,1657314403.08878,1657314403.10206,475.941456069946,7.95745277404785,483.911094417572,486.011878480911,0.3,486.962232103348,0.600224256515503,487.563498010635,3,right,0.576948165893555,487.562456359863,604.489393224716,607.249393224716,1657314881.79023,1657314881.79174,1657314889.75987,1657314889.76773,1657314891.86066,1657314892.81101,1657314892.81304,1657314893.41228,1657314893.41123,1657315010.33817,0
132,4,1,3,27,3,3,c3_HowFace,1,looking at camera?,59,F_129.jpg,1657314403.08878,1657314403.10206,475.941456069946,7.95745277404785,483.911094417572,486.011878480911,0.3,487.879241933823,0.583550453186035,488.468613853455,1,left,0.572488069534302,488.462792387009,604.489393224716,607.249393224716,1657314881.79023,1657314881.79174,1657314889.75987,1657314889.76773,1657314891.86066,1657314893.72802,1657314893.72966,1657314894.31739,1657314894.31157,1657315010.33817,1
132,4,1,3,27,4,3,c3_HowFace,1,looking at camera?,62,F_598.jpg,1657314403.08878,1657314403.10206,475.941456069946,7.95745277404785,483.911094417572,486.011878480911,0.3,488.779575576782,0.650243997573853,489.43521188736,1,left,0.63978099822998,489.429819574356,604.489393224716,607.249393224716,1657314881.79023,1657314881.79174,1657314889.75987,1657314889.76773,1657314891.86066,1657314894.62835,1657314894.63012,1657314895.28399,1657314895.2786,1657315010.33817,1
132,4,1,3,27,5,3,c3_HowFace,1,looking at camera?,64,F_128.jpg,1657314403.08878,1657314403.10206,475.941456069946,7.95745277404785,483.911094417572,486.011878480911,0.3,489.746604671478,0.583551168441772,490.335403909683,1,left,0.568009853363037,490.33015583992,604.489393224716,607.249393224716,1657314881.79023,1657314881.79174,1657314889.75987,1657314889.76773,1657314891.86066,1657314895.59538,1657314895.597,1657314896.18418,1657314896.17893,1657315010.33817,1
132,4,1,3,27,6,3,c3_HowFace,2,looking at camera?,57,F_582.jpg,1657314403.08878,1657314403.10206,475.941456069946,7.95745277404785,483.911094417572,486.011878480911,0.3,490.646940698624,0.700260877609253,491.34888504982,3,right,0.679194927215576,491.347201576233,604.489393224716,607.249393224716,1657314881.79023,1657314881.79174,1657314889.75987,1657314889.76773,1657314891.86066,1657314896.49572,1657314896.49735,1657314897.19766,1657314897.19598,1657315010.33817,0
132,4,1,3,27,7,3,c3_HowFace,1,looking at camera?,61,F_774.jpg,1657314403.08878,1657314403.10206,475.941456069946,7.95745277404785,483.911094417572,486.011878480911,0.3,491.663986911774,0.533531665802002,492.202502002716,1,left,0.517752885818481,492.197518577576,604.489393224716,607.249393224716,1657314881.79023,1657314881.79174,1657314889.75987,1657314889.76773,1657314891.86066,1657314897.51276,1657314897.51775,1657314898.05128,1657314898.0463,1657315010.33817,1
