src_subject_id,session_id,run_id,param_counterbalance_ver,param_block_num,param_trial_num,param_cond_type_num,param_cond_type_string,param_normative_response,param_ques_type_string,param_image_num,param_image_filename,param_trigger_onset,param_start_biopac,event01_fixation,event01_fixation_dur,event01_blockquestion_onset,event01_block_isi_blacksreen,event01_blockquestion_dur,event02_image_onset,event02_image_dur,event03_response_onset,event03_response_key,event03_response_keyname,event03_RT,event04_shortquestion_onset,param_end_instruct_onset,param_experiment_duration,RAW_e1_fixation,RAW_e1_fixation_biopac,RAW_e1_blockquestion_onset,RAW_e1_blockquestion_onset_biopac,RAW_e1_block_isi_blacksreen,RAW_e2_image_onset,RAW_e2_image_onset_biopac,RAW_e3_response_onset,RAW_e4_shortquestion_onset,RAW_param_end_instruct_onset,accuracy
88,4,1,3,1,1,4,c4_HowHand,1,reaching?,107,H_007.jpg,1635345224.60769,1635345224.61739,0.0495941543579099,0.0356190204620361,0.0996124649047849,2.11703108787537,2.01741862297058,2.26708721160889,1.08373737335205,3.35444902420044,1,left,1.05945801734924,3.35082458496094,604.474998226166,607.234998226166,1635345227.41729,1635345227.42247,1635345227.46731,1635345227.47196,1635345229.48472,1635345229.63478,1635345229.6392,1635345230.72214,1635345230.71852,1635345831.84269,1
88,4,1,3,1,2,4,c4_HowHand,2,reaching?,108,H_532.jpg,1635345224.60769,1635345224.61739,0.0495941543579099,0.0356190204620361,0.0996124649047849,2.11703108787537,0.3,3.66761015892029,1.00037264823914,4.67137717247009,3,right,0.981645107269287,4.66798280715942,604.474998226166,607.234998226166,1635345227.41729,1635345227.42247,1635345227.46731,1635345227.47196,1635345229.48472,1635345231.0353,1635345231.03891,1635345232.03907,1635345232.03568,1635345831.84269,0
88,4,1,3,1,3,4,c4_HowHand,1,reaching?,109,H_474.jpg,1635345224.60769,1635345224.61739,0.0495941543579099,0.0356190204620361,0.0996124649047849,2.11703108787537,0.3,4.98476790428162,0.866989612579346,5.8549799823761,1,left,0.85208797454834,5.85175751686096,604.474998226166,607.234998226166,1635345227.41729,1635345227.42247,1635345227.46731,1635345227.47196,1635345229.48472,1635345232.35246,1635345232.35567,1635345233.22267,1635345233.21945,1635345831.84269,1
88,4,1,3,1,4,4,c4_HowHand,2,reaching?,105,H_438.jpg,1635345224.60769,1635345224.61739,0.0495941543579099,0.0356190204620361,0.0996124649047849,2.11703108787537,0.3,6.16854237556458,0.967027425765991,7.13765810966492,3,right,0.94690203666687,7.13556980133057,604.474998226166,607.234998226166,1635345227.41729,1635345227.42247,1635345227.46731,1635345227.47196,1635345229.48472,1635345233.53624,1635345233.53892,1635345234.50535,1635345234.50326,1635345831.84269,0
88,4,1,3,1,5,4,c4_HowHand,1,reaching?,110,H_364.jpg,1635345224.60769,1635345224.61739,0.0495941543579099,0.0356190204620361,0.0996124649047849,2.11703108787537,0.3,7.4523544216156,0.866990804672241,8.3236341381073,1,left,0.841330051422119,8.31934522628784,604.474998226166,607.234998226166,1635345227.41729,1635345227.42247,1635345227.46731,1635345227.47196,1635345229.48472,1635345234.82005,1635345234.82342,1635345235.69133,1635345235.68704,1635345831.84269,1
88,4,1,3,1,6,4,c4_HowHand,1,reaching?,106,H_006.jpg,1635345224.60769,1635345224.61739,0.0495941543579099,0.0356190204620361,0.0996124649047849,2.11703108787537,0.3,8.63613008499146,1.38384771347046,10.0214831733704,1,left,1.36648917198181,10.0199777984619,604.474998226166,607.234998226166,1635345227.41729,1635345227.42247,1635345227.46731,1635345227.47196,1635345229.48472,1635345236.00382,1635345236.00575,1635345237.38918,1635345237.38767,1635345831.84269,1
88,4,1,3,1,7,4,c4_HowHand,1,reaching?,111,H_003.jpg,1635345224.60769,1635345224.61739,0.0495941543579099,0.0356190204620361,0.0996124649047849,2.11703108787537,0.3,10.3367626571655,1.06706571578979,11.4047710800171,1,left,1.05736589431763,11.4038283729553,604.474998226166,607.234998226166,1635345227.41729,1635345227.42247,1635345227.46731,1635345227.47196,1635345229.48472,1635345237.70446,1635345237.70617,1635345238.77246,1635345238.77152,1635345831.84269,1
88,4,1,3,1,8,4,c4_HowHand,2,reaching?,112,H_132.jpg,1635345224.60769,1635345224.61739,0.0495941543579099,0.0356190204620361,0.0996124649047849,2.11703108787537,0.3,11.7206137084961,1.71730661392212,13.5186161899567,3,right,1.77551002502441,13.4379203224182,604.474998226166,607.234998226166,1635345227.41729,1635345227.42247,1635345227.46731,1635345227.47196,1635345229.48472,1635345239.08831,1635345239.09006,1635345240.88631,1635345240.80561,1635345831.84269,0
88,4,1,3,2,1,2,c2_WhyHand,1,healthy?,21,H_627.jpg,1635345224.60769,1635345224.61739,13.7046859169006,3.82643508911133,17.5394499206543,19.6402339839935,2.10078406333923,19.790288438797,1.26713895797729,21.0709571743011,3,right,1.25838804244995,21.0574273967743,604.474998226166,607.234998226166,1635345241.07238,1635345241.07522,1635345244.90714,1635345244.90889,1635345247.00793,1635345247.15798,1635345247.15956,1635345248.43865,1635345248.42512,1635345831.84269,0
88,4,1,3,2,2,2,c2_WhyHand,1,healthy?,18,H_438.jpg,1635345224.60769,1635345224.61739,13.7046859169006,3.82643508911133,17.5394499206543,19.6402339839935,0.3,21.3742134475708,1.71730709075928,23.2850739860535,1,left,1.88973112106323,23.0915205383301,604.474998226166,607.234998226166,1635345241.07238,1635345241.07522,1635345244.90714,1635345244.90889,1635345247.00793,1635345248.74191,1635345248.74357,1635345250.65277,1635345250.45921,1635345831.84269,1
88,4,1,3,2,3,2,c2_WhyHand,1,healthy?,23,H_364.jpg,1635345224.60769,1635345224.61739,13.7046859169006,3.82643508911133,17.5394499206543,19.6402339839935,0.3,23.4083049201965,0.933681964874268,24.3547220134735,1,left,0.923871994018555,24.3419868850708,604.474998226166,607.234998226166,1635345241.07238,1635345241.07522,1635345244.90714,1635345244.90889,1635345247.00793,1635345250.776,1635345250.77757,1635345251.72242,1635345251.70968,1635345831.84269,1
88,4,1,3,2,4,2,c2_WhyHand,2,healthy?,22,H_130.jpg,1635345224.60769,1635345224.61739,13.7046859169006,3.82643508911133,17.5394499206543,19.6402339839935,0.3,24.658771982193,1.08373641967773,25.7443601989746,3,right,1.0614070892334,25.7425084018707,604.474998226166,607.234998226166,1635345241.07238,1635345241.07522,1635345244.90714,1635345244.90889,1635345247.00793,1635345252.02647,1635345252.0284,1635345253.11205,1635345253.1102,1635345831.84269,0
88,4,1,3,2,5,2,c2_WhyHand,1,healthy?,17,H_362.jpg,1635345224.60769,1635345224.61739,13.7046859169006,3.82643508911133,17.5394499206543,19.6402339839935,0.3,26.0592937374115,0.733606815338135,26.8047552013397,1,left,0.720417976379395,26.7929005527496,604.474998226166,607.234998226166,1635345241.07238,1635345241.07522,1635345244.90714,1635345244.90889,1635345247.00793,1635345253.42699,1635345253.42917,1635345254.17245,1635345254.16059,1635345831.84269,1
88,4,1,3,2,6,2,c2_WhyHand,2,healthy?,20,H_007.jpg,1635345224.60769,1635345224.61739,13.7046859169006,3.82643508911133,17.5394499206543,19.6402339839935,0.3,27.1096856498718,0.816972255706787,27.9287199878693,3,right,0.800089120864868,27.9266579055786,604.474998226166,607.234998226166,1635345241.07238,1635345241.07522,1635345244.90714,1635345244.90889,1635345247.00793,1635345254.47738,1635345254.47938,1635345255.29641,1635345255.29435,1635345831.84269,0
88,4,1,3,2,7,2,c2_WhyHand,1,healthy?,19,H_167.jpg,1635345224.60769,1635345224.61739,13.7046859169006,3.82643508911133,17.5394499206543,19.6402339839935,0.3,28.2434413337708,0.600224494934082,28.8448331260681,1,left,0.578321933746338,28.8436658287048,604.474998226166,607.234998226166,1635345241.07238,1635345241.07522,1635345244.90714,1635345244.90889,1635345247.00793,1635345255.61114,1635345255.61313,1635345256.21253,1635345256.21136,1635345831.84269,1
88,4,1,3,2,8,2,c2_WhyHand,2,healthy?,24,H_019.jpg,1635345224.60769,1635345224.61739,13.7046859169006,3.82643508911133,17.5394499206543,19.6402339839935,0.3,29.160449256897,0.716934442520142,29.8880250358582,3,right,0.707048892974854,29.8773836994171,604.474998226166,607.234998226166,1635345241.07238,1635345241.07522,1635345244.90714,1635345244.90889,1635345247.00793,1635345256.52814,1635345256.53004,1635345257.25572,1635345257.24508,1635345831.84269,0
88,4,1,3,3,1,1,c1_WhyFace,1,admiring?,4,F_779.jpg,1635345224.60769,1635345224.61739,29.9774215126038,6.66166067123413,36.6465759181976,38.7473583126068,2.10078239440918,38.8974149131775,0.816970825195312,39.7210371398926,1,left,0.793773889541626,39.7143857383728,604.474998226166,607.234998226166,1635345257.34512,1635345257.35601,1635345264.01427,1635345264.02259,1635345266.11505,1635345266.26511,1635345266.27222,1635345267.08873,1635345267.08208,1635345831.84269,1
88,4,1,3,3,2,1,c1_WhyFace,1,admiring?,1,F_593.jpg,1635345224.60769,1635345224.61739,29.9774215126038,6.66166067123413,36.6465759181976,38.7473583126068,0.3,40.0311713123322,0.700260639190674,40.7325191402435,1,left,0.68130898475647,40.7314319515228,604.474998226166,607.234998226166,1635345257.34512,1635345257.35601,1635345264.01427,1635345264.02259,1635345266.11505,1635345267.39887,1635345267.40034,1635345268.10021,1635345268.09913,1635345831.84269,1
88,4,1,3,3,3,1,c1_WhyFace,2,admiring?,3,F_110.jpg,1635345224.60769,1635345224.61739,29.9774215126038,6.66166067123413,36.6465759181976,38.7473583126068,0.3,41.048217048645,0.666915416717529,41.7206911945343,3,right,0.657480001449585,41.7151324653626,604.474998226166,607.234998226166,1635345257.34512,1635345257.35601,1635345264.01427,1635345264.02259,1635345266.11505,1635345268.41591,1635345268.41761,1635345269.08839,1635345269.08283,1635345831.84269,0
88,4,1,3,3,4,1,c1_WhyFace,1,admiring?,8,F_590.jpg,1635345224.60769,1635345224.61739,29.9774215126038,6.66166067123413,36.6465759181976,38.7473583126068,0.3,42.031916847229,0.516860246658325,42.5498161220551,1,left,0.494801998138428,42.5487770938873,604.474998226166,607.234998226166,1635345257.34512,1635345257.35601,1635345264.01427,1635345264.02259,1635345266.11505,1635345269.39961,1635345269.40131,1635345269.91751,1635345269.91647,1635345831.84269,1
88,4,1,3,3,5,1,c1_WhyFace,2,admiring?,6,F_692.jpg,1635345224.60769,1635345224.61739,29.9774215126038,6.66166067123413,36.6465759181976,38.7473583126068,0.3,42.8655605220795,0.650243282318115,43.5210580730438,3,right,0.638656139373779,43.5158038043976,604.474998226166,607.234998226166,1635345257.34512,1635345257.35601,1635345264.01427,1635345264.02259,1635345266.11505,1635345270.23325,1635345270.23481,1635345270.88875,1635345270.8835,1635345831.84269,0
88,4,1,3,3,6,1,c1_WhyFace,1,admiring?,5,F_759.jpg,1635345224.60769,1635345224.61739,29.9774215126038,6.66166067123413,36.6465759181976,38.7473583126068,0.3,43.8325891399384,0.46683931350708,44.3039581680298,1,left,0.455621957778931,44.2994284534454,604.474998226166,607.234998226166,1635345257.34512,1635345257.35601,1635345264.01427,1635345264.02259,1635345266.11505,1635345271.20028,1635345271.20206,1635345271.67165,1635345271.66712,1635345831.84269,1
88,4,1,3,3,7,1,c1_WhyFace,1,admiring?,7,F_648.jpg,1635345224.60769,1635345224.61739,29.9774215126038,6.66166067123413,36.6465759181976,38.7473583126068,0.3,44.6162147426605,0.66691517829895,45.2879300022125,1,left,0.652645111083984,45.2831299209595,604.474998226166,607.234998226166,1635345257.34512,1635345257.35601,1635345264.01427,1635345264.02259,1635345266.11505,1635345271.98391,1635345271.98925,1635345272.65562,1635345272.65082,1635345831.84269,1
88,4,1,3,3,8,1,c1_WhyFace,2,admiring?,2,F_129.jpg,1635345224.60769,1635345224.61739,29.9774215126038,6.66166067123413,36.6465759181976,38.7473583126068,0.3,45.5999152565002,0.666914701461792,46.2706761264801,3,right,0.651201963424683,46.266829957962,604.474998226166,607.234998226166,1635345257.34512,1635345257.35601,1635345264.01427,1635345264.02259,1635345266.11505,1635345272.96761,1635345272.97246,1635345273.63837,1635345273.63452,1635345831.84269,0
88,4,1,3,4,1,3,c3_HowFace,1,smiling?,119,F_139.jpg,1635345224.60769,1635345224.61739,46.3668668174744,9.23618817329407,55.6203172111511,57.7211007976532,2.10078358650208,57.8711573982239,0.516859531402588,58.3895230197907,1,left,0.501039028167725,58.3880169296265,604.474998226166,607.234998226166,1635345273.73456,1635345273.73904,1635345282.98801,1635345282.99003,1635345285.08879,1635345285.23885,1635345285.24065,1635345285.75722,1635345285.75571,1635345831.84269,1
88,4,1,3,4,2,3,c3_HowFace,2,smiling?,113,F_712.jpg,1635345224.60769,1635345224.61739,46.3668668174744,9.23618817329407,55.6203172111511,57.7211007976532,0.3,58.7048001194,0.600224733352661,59.3060610198975,3,right,0.586632966995239,59.3050248527527,604.474998226166,607.234998226166,1635345273.73456,1635345273.73904,1635345282.98801,1635345282.99003,1635345285.08879,1635345286.07249,1635345286.07411,1635345286.67375,1635345286.67272,1635345831.84269,0
88,4,1,3,4,3,3,c3_HowFace,1,smiling?,115,F_695.jpg,1635345224.60769,1635345224.61739,46.3668668174744,9.23618817329407,55.6203172111511,57.7211007976532,0.3,59.6218097114563,0.533533096313477,60.1564140224457,1,left,0.518828153610229,60.1553428077698,604.474998226166,607.234998226166,1635345273.73456,1635345273.73904,1635345282.98801,1635345282.99003,1635345285.08879,1635345286.9895,1635345286.99129,1635345287.52411,1635345287.52304,1635345831.84269,1
88,4,1,3,4,4,3,c3_HowFace,2,smiling?,120,F_758.jpg,1635345224.60769,1635345224.61739,46.3668668174744,9.23618817329407,55.6203172111511,57.7211007976532,0.3,60.4721269512177,0.65024209022522,61.1233920955658,3,right,0.639683961868286,61.1223690414429,604.474998226166,607.234998226166,1635345273.73456,1635345273.73904,1635345282.98801,1635345282.99003,1635345285.08879,1635345287.83982,1635345287.84102,1635345288.49109,1635345288.49006,1635345831.84269,0
88,4,1,3,4,5,3,c3_HowFace,1,smiling?,116,F_083.jpg,1635345224.60769,1635345224.61739,46.3668668174744,9.23618817329407,55.6203172111511,57.7211007976532,0.3,61.4391546154022,0.466840028762817,61.9070119762421,1,left,0.45042610168457,61.905994644165,604.474998226166,607.234998226166,1635345273.73456,1635345273.73904,1635345282.98801,1635345282.99003,1635345285.08879,1635345288.80685,1635345288.80839,1635345289.27471,1635345289.27369,1635345831.84269,1
88,4,1,3,4,6,3,c3_HowFace,1,smiling?,118,F_759.jpg,1635345224.60769,1635345224.61739,46.3668668174744,9.23618817329407,55.6203172111511,57.7211007976532,0.3,62.2227799797058,0.500186681747437,62.7239851856232,1,left,0.485850095748901,62.7229666614532,604.474998226166,607.234998226166,1635345273.73456,1635345273.73904,1635345282.98801,1635345282.99003,1635345285.08879,1635345289.59047,1635345289.59234,1635345290.09168,1635345290.09066,1635345831.84269,1
88,4,1,3,4,7,3,c3_HowFace,2,smiling?,114,F_412.jpg,1635345224.60769,1635345224.61739,46.3668668174744,9.23618817329407,55.6203172111511,57.7211007976532,0.3,63.039750328064,0.516860485076904,63.5582001113892,3,right,0.496748924255371,63.5566108131409,604.474998226166,607.234998226166,1635345273.73456,1635345273.73904,1635345282.98801,1635345282.99003,1635345285.08879,1635345290.40744,1635345290.40975,1635345290.92589,1635345290.9243,1635345831.84269,0
88,4,1,3,4,8,3,c3_HowFace,1,smiling?,117,F_593.jpg,1635345224.60769,1635345224.61739,46.3668668174744,9.23618817329407,55.6203172111511,57.7211007976532,0.3,63.8733949565887,0.500186920166016,64.3874001407623,1,left,0.490254878997803,64.3735818767548,604.474998226166,607.234998226166,1635345273.73456,1635345273.73904,1635345282.98801,1635345282.99003,1635345285.08879,1635345291.24109,1635345291.2428,1635345291.75509,1635345291.74128,1635345831.84269,1
88,4,1,3,5,1,4,c4_HowHand,1,lifting?,56,H_136.jpg,1635345224.60769,1635345224.61739,64.4569468402862,8.6769962310791,73.1435189151764,75.244302740097,2.10078382492065,75.3943588638306,0.783626079559326,76.1795151138306,1,left,0.759323120117188,76.1779849433899,604.474998226166,607.234998226166,1635345291.82464,1635345291.82695,1635345300.51121,1635345300.52357,1635345302.612,1635345302.76205,1635345302.77255,1635345303.54721,1635345303.54568,1635345831.84269,1
88,4,1,3,5,2,4,c4_HowHand,2,lifting?,51,H_038.jpg,1635345224.60769,1635345224.61739,64.4569468402862,8.6769962310791,73.1435189151764,75.244302740097,0.3,76.4947690868378,0.833643913269043,77.3297841453552,3,right,0.814373016357422,77.3284130001068,604.474998226166,607.234998226166,1635345291.82464,1635345291.82695,1635345300.51121,1635345300.52357,1635345302.612,1635345303.86246,1635345303.86388,1635345304.69748,1635345304.69611,1635345831.84269,0
88,4,1,3,5,3,4,c4_HowHand,1,lifting?,52,H_189.jpg,1635345224.60769,1635345224.61739,64.4569468402862,8.6769962310791,73.1435189151764,75.244302740097,0.3,77.6451966667175,0.98370099067688,78.6373801136017,1,left,0.969567060470581,78.6288976573944,604.474998226166,607.234998226166,1635345291.82464,1635345291.82695,1635345300.51121,1635345300.52357,1635345302.612,1635345305.01289,1635345305.01467,1635345306.00507,1635345305.99659,1635345831.84269,1
88,4,1,3,5,4,4,c4_HowHand,2,lifting?,53,H_077.jpg,1635345224.60769,1635345224.61739,64.4569468402862,8.6769962310791,73.1435189151764,75.244302740097,0.3,78.9456829929352,0.750279664993286,79.7043239974976,3,right,0.74180006980896,79.6959626579285,604.474998226166,607.234998226166,1635345291.82464,1635345291.82695,1635345300.51121,1635345300.52357,1635345302.612,1635345306.31338,1635345306.31523,1635345307.07202,1635345307.06366,1635345831.84269,0
88,4,1,3,5,5,4,c4_HowHand,1,lifting?,50,H_443.jpg,1635345224.60769,1635345224.61739,64.4569468402862,8.6769962310791,73.1435189151764,75.244302740097,0.3,80.0127463245392,0.633570194244385,80.6546871566772,1,left,0.624114990234375,80.6463165187836,604.474998226166,607.234998226166,1635345291.82464,1635345291.82695,1635345300.51121,1635345300.52357,1635345302.612,1635345307.38044,1635345307.38227,1635345308.02238,1635345308.01401,1635345831.84269,1
88,4,1,3,5,6,4,c4_HowHand,2,lifting?,55,H_012.jpg,1635345224.60769,1635345224.61739,64.4569468402862,8.6769962310791,73.1435189151764,75.244302740097,0.3,80.9631016159058,0.53353214263916,81.4976990127563,3,right,0.513309001922607,81.4966337585449,604.474998226166,607.234998226166,1635345291.82464,1635345291.82695,1635345300.51121,1635345300.52357,1635345302.612,1635345308.3308,1635345308.33266,1635345308.86539,1635345308.86433,1635345831.84269,0
88,4,1,3,5,7,4,c4_HowHand,1,lifting?,49,H_362.jpg,1635345224.60769,1635345224.61739,64.4569468402862,8.6769962310791,73.1435189151764,75.244302740097,0.3,81.81341837883,0.550205707550049,82.3713180923462,1,left,0.53668999671936,82.36362408638,604.474998226166,607.234998226166,1635345291.82464,1635345291.82695,1635345300.51121,1635345300.52357,1635345302.612,1635345309.18111,1635345309.18297,1635345309.73901,1635345309.73132,1635345831.84269,1
88,4,1,3,5,8,4,c4_HowHand,1,lifting?,54,H_170.jpg,1635345224.60769,1635345224.61739,64.4569468402862,8.6769962310791,73.1435189151764,75.244302740097,0.3,82.6804091835022,0.583550930023193,83.2707831764221,1,left,0.56926703453064,83.2639601135254,604.474998226166,607.234998226166,1635345291.82464,1635345291.82695,1635345300.51121,1635345300.52357,1635345302.612,1635345310.0481,1635345310.04999,1635345310.63848,1635345310.63165,1635345831.84269,1
88,4,1,3,6,1,2,c2_WhyHand,1,helping?,38,H_077.jpg,1635345224.60769,1635345224.61739,83.3473246002197,12.2675883769989,95.6185679340362,97.7193508052826,2.10078287124634,97.8694064521789,0.967026948928833,98.8375811481476,1,left,0.947400093078613,98.8364334011078,604.474998226166,607.234998226166,1635345310.71502,1635345310.72221,1635345322.98626,1635345322.98921,1635345325.08704,1635345325.2371,1635345325.23888,1635345326.20528,1635345326.20413,1635345831.84269,1
88,4,1,3,6,2,2,c2_WhyHand,1,helping?,36,H_349.jpg,1635345224.60769,1635345224.61739,83.3473246002197,12.2675883769989,95.6185679340362,97.7193508052826,0.3,99.1532192134857,0.683587789535522,99.8382530117035,1,left,0.663711071014404,99.8368070030212,604.474998226166,607.234998226166,1635345310.71502,1635345310.72221,1635345322.98626,1635345322.98921,1635345325.08704,1635345326.52091,1635345326.52196,1635345327.20595,1635345327.2045,1635345831.84269,1
88,4,1,3,6,3,2,c2_WhyHand,1,helping?,37,H_474.jpg,1635345224.60769,1635345224.61739,83.3473246002197,12.2675883769989,95.6185679340362,97.7193508052826,0.3,100.153591384888,0.950354099273682,101.104909172058,1,left,0.939772129058838,101.103945484161,604.474998226166,607.234998226166,1635345310.71502,1635345310.72221,1635345322.98626,1635345322.98921,1635345325.08704,1635345327.52129,1635345327.52302,1635345328.4726,1635345328.47164,1635345831.84269,1
88,4,1,3,6,4,2,c2_WhyHand,1,helping?,39,H_024.jpg,1635345224.60769,1635345224.61739,83.3473246002197,12.2675883769989,95.6185679340362,97.7193508052826,0.3,101.420730342865,0.750280618667603,102.172661056519,3,right,0.733846187591553,102.171010961533,604.474998226166,607.234998226166,1635345310.71502,1635345310.72221,1635345322.98626,1635345322.98921,1635345325.08704,1635345328.78842,1635345328.79008,1635345329.54035,1635345329.5387,1635345831.84269,0
88,4,1,3,6,5,2,c2_WhyHand,2,helping?,40,H_012.jpg,1635345224.60769,1635345224.61739,83.3473246002197,12.2675883769989,95.6185679340362,97.7193508052826,0.3,102.487795581818,0.917007923126221,103.406249036789,3,right,0.899665117263794,103.404803504944,604.474998226166,607.234998226166,1635345310.71502,1635345310.72221,1635345322.98626,1635345322.98921,1635345325.08704,1635345329.85549,1635345329.85718,1635345330.77394,1635345330.7725,1635345831.84269,0
88,4,1,3,6,6,2,c2_WhyHand,2,helping?,35,H_159.jpg,1635345224.60769,1635345224.61739,83.3473246002197,12.2675883769989,95.6185679340362,97.7193508052826,0.3,103.721588363647,0.967028379440308,104.704128017426,3,right,0.956668853759766,104.688616743088,604.474998226166,607.234998226166,1635345310.71502,1635345310.72221,1635345322.98626,1635345322.98921,1635345325.08704,1635345331.08928,1635345331.091,1635345332.07182,1635345332.05631,1635345831.84269,0
88,4,1,3,6,7,2,c2_WhyHand,1,helping?,34,H_111.jpg,1635345224.60769,1635345224.61739,83.3473246002197,12.2675883769989,95.6185679340362,97.7193508052826,0.3,105.005401363373,0.833643913269043,105.840231170654,1,left,0.82008695602417,105.839045276642,604.474998226166,607.234998226166,1635345310.71502,1635345310.72221,1635345322.98626,1635345322.98921,1635345325.08704,1635345332.3731,1635345332.37458,1635345333.20793,1635345333.20674,1635345831.84269,1
88,4,1,3,6,8,2,c2_WhyHand,2,helping?,33,H_091.jpg,1635345224.60769,1635345224.61739,83.3473246002197,12.2675883769989,95.6185679340362,97.7193508052826,0.3,106.15582942009,0.850318431854248,107.020820131302,3,right,0.841781854629517,107.006147851944,604.474998226166,607.234998226166,1635345310.71502,1635345310.72221,1635345322.98626,1635345322.98921,1635345325.08704,1635345333.52352,1635345333.52559,1635345334.38851,1635345334.37384,1635345831.84269,0
88,4,1,3,7,1,1,c1_WhyFace,1,proud?,104,F_598.jpg,1635345224.60769,1635345224.61739,107.089511623383,6.40052556991577,113.508571853638,115.592682352066,2.08411049842834,115.742738952637,0.983700275421143,116.728219022751,1,left,0.952586889266968,116.726439228058,604.474998226166,607.234998226166,1635345334.45721,1635345334.45837,1635345340.87627,1635345340.87819,1635345342.96038,1635345343.11043,1635345343.12239,1635345344.09591,1635345344.09413,1635345831.84269,1
88,4,1,3,7,2,1,c1_WhyFace,2,proud?,102,F_760.jpg,1635345224.60769,1635345224.61739,107.089511623383,6.40052556991577,113.508571853638,115.592682352066,0.3,117.043223609924,0.716933727264404,117.762006988525,3,right,0.696531057357788,117.760157337189,604.474998226166,607.234998226166,1635345334.45721,1635345334.45837,1635345340.87627,1635345340.87819,1635345342.96038,1635345344.41092,1635345344.41242,1635345345.1297,1635345345.12785,1635345831.84269,0
88,4,1,3,7,3,1,c1_WhyFace,1,proud?,97,F_582.jpg,1635345224.60769,1635345224.61739,107.089511623383,6.40052556991577,113.508571853638,115.592682352066,0.3,118.076943149567,0.600223302841187,118.687391986847,1,left,0.587970972061157,118.677166452408,604.474998226166,607.234998226166,1635345334.45721,1635345334.45837,1635345340.87627,1635345340.87819,1635345342.96038,1635345345.44464,1635345345.44636,1635345346.05509,1635345346.04486,1635345831.84269,1
88,4,1,3,7,4,1,c1_WhyFace,2,proud?,98,F_412.jpg,1635345224.60769,1635345224.61739,107.089511623383,6.40052556991577,113.508571853638,115.592682352066,0.3,118.993952026367,0.516858577728271,119.521247138977,3,right,0.50243091583252,119.510810604095,604.474998226166,607.234998226166,1635345334.45721,1635345334.45837,1635345340.87627,1635345340.87819,1635345342.96038,1635345346.36165,1635345346.36337,1635345346.88894,1635345346.8785,1635345831.84269,0
88,4,1,3,7,5,1,c1_WhyFace,1,proud?,101,F_083.jpg,1635345224.60769,1635345224.61739,107.089511623383,6.40052556991577,113.508571853638,115.592682352066,0.3,119.827594747543,0.816972017288208,120.646371116638,1,left,0.799754858016968,120.644566764832,604.474998226166,607.234998226166,1635345334.45721,1635345334.45837,1635345340.87627,1635345340.87819,1635345342.96038,1635345347.19529,1635345347.19726,1635345348.01407,1635345348.01226,1635345831.84269,1
88,4,1,3,7,6,1,c1_WhyFace,2,proud?,100,F_776.jpg,1635345224.60769,1635345224.61739,107.089511623383,6.40052556991577,113.508571853638,115.592682352066,0.3,120.961351861954,0.766950845718384,121.729973068237,3,right,0.746448040008545,121.728302707672,604.474998226166,607.234998226166,1635345334.45721,1635345334.45837,1635345340.87627,1635345340.87819,1635345342.96038,1635345348.32905,1635345348.33094,1635345349.09767,1635345349.096,1635345831.84269,0
88,4,1,3,7,7,1,c1_WhyFace,1,proud?,103,F_618.jpg,1635345224.60769,1635345224.61739,107.089511623383,6.40052556991577,113.508571853638,115.592682352066,0.3,122.04508852005,0.733606815338135,122.780273189545,1,left,0.717075109481812,122.778695335388,604.474998226166,607.234998226166,1635345334.45721,1635345334.45837,1635345340.87627,1635345340.87819,1635345342.96038,1635345349.41278,1635345349.41469,1635345350.14797,1635345350.14639,1635345831.84269,1
88,4,1,3,7,8,1,c1_WhyFace,1,proud?,99,F_695.jpg,1635345224.60769,1635345224.61739,107.089511623383,6.40052556991577,113.508571853638,115.592682352066,0.3,123.095480909348,0.833643436431885,123.937453975677,1,left,0.818660974502563,123.929124345779,604.474998226166,607.234998226166,1635345334.45721,1635345334.45837,1635345340.87627,1635345340.87819,1635345342.96038,1635345350.46317,1635345350.46494,1635345351.30515,1635345351.29682,1635345831.84269,1
88,4,1,3,8,1,3,c3_HowFace,1,looking to side?,72,F_590.jpg,1635345224.60769,1635345224.61739,123.995817174911,7.02410793304443,131.031773557663,133.132557621002,2.10078406333923,133.28261302948,0.766952753067017,134.054506053925,1,left,0.755297183990479,134.049565782547,604.474998226166,607.234998226166,1635345351.36351,1635345351.37222,1635345358.39947,1635345358.40593,1635345360.50025,1635345360.65031,1635345360.65556,1635345361.4222,1635345361.41726,1635345831.84269,1
88,4,1,3,8,2,3,c3_HowFace,1,looking to side?,71,F_433.jpg,1635345224.60769,1635345224.61739,123.995817174911,7.02410793304443,131.031773557663,133.132557621002,0.3,134.366349687576,0.650243282318115,135.017810096741,1,left,0.625318050384521,135.016592969894,604.474998226166,607.234998226166,1635345351.36351,1635345351.37222,1635345358.39947,1635345358.40593,1635345360.50025,1635345361.73404,1635345361.73907,1635345362.3855,1635345362.38429,1635345831.84269,1
88,4,1,3,8,3,3,c3_HowFace,1,looking to side?,67,F_716.jpg,1635345224.60769,1635345224.61739,123.995817174911,7.02410793304443,131.031773557663,133.132557621002,0.3,135.333377590179,0.583550930023193,135.921333065033,1,left,0.562582969665527,135.916928520203,604.474998226166,607.234998226166,1635345351.36351,1635345351.37222,1635345358.39947,1635345358.40593,1635345360.50025,1635345362.70107,1635345362.70583,1635345363.28903,1635345363.28462,1635345831.84269,1
88,4,1,3,8,4,3,c3_HowFace,2,looking to side?,70,F_779.jpg,1635345224.60769,1635345224.61739,123.995817174911,7.02410793304443,131.031773557663,133.132557621002,0.3,136.233713617325,0.900335073471069,137.135568132401,1,left,0.875901222229004,137.134048690796,604.474998226166,607.234998226166,1635345351.36351,1635345351.37222,1635345358.39947,1635345358.40593,1635345360.50025,1635345363.60141,1635345363.60578,1635345364.50326,1635345364.50174,1635345831.84269,0
88,4,1,3,8,5,3,c3_HowFace,1,looking to side?,68,F_760.jpg,1635345224.60769,1635345224.61739,123.995817174911,7.02410793304443,131.031773557663,133.132557621002,0.3,137.450834026337,1.11708307266235,138.570548048019,1,left,1.10640692710876,138.567917098999,604.474998226166,607.234998226166,1635345351.36351,1635345351.37222,1635345358.39947,1635345358.40593,1635345360.50025,1635345364.81853,1635345364.82206,1635345365.93824,1635345365.93561,1635345831.84269,1
88,4,1,3,8,6,3,c3_HowFace,2,looking to side?,66,F_111.jpg,1635345224.60769,1635345224.61739,123.995817174911,7.02410793304443,131.031773557663,133.132557621002,0.3,138.884701719284,0.683588981628418,139.570559015274,3,right,0.675557851791382,139.568290700912,604.474998226166,607.234998226166,1635345351.36351,1635345351.37222,1635345358.39947,1635345358.40593,1635345360.50025,1635345366.2524,1635345366.25546,1635345366.93825,1635345366.93598,1635345831.84269,0
88,4,1,3,8,7,3,c3_HowFace,1,looking to side?,69,F_110.jpg,1635345224.60769,1635345224.61739,123.995817174911,7.02410793304443,131.031773557663,133.132557621002,0.3,139.885075321198,0.65024209022522,140.537022104263,1,left,0.624083042144775,140.535317411423,604.474998226166,607.234998226166,1635345351.36351,1635345351.37222,1635345358.39947,1635345358.40593,1635345360.50025,1635345367.25277,1635345367.25557,1635345367.90472,1635345367.90301,1635345831.84269,1
88,4,1,3,8,8,3,c3_HowFace,2,looking to side?,65,F_798.jpg,1635345224.60769,1635345224.61739,123.995817174911,7.02410793304443,131.031773557663,133.132557621002,0.3,140.852103223801,0.933680295944214,141.787837972641,3,right,0.920003890991211,141.785783519745,604.474998226166,607.234998226166,1635345351.36351,1635345351.37222,1635345358.39947,1635345358.40593,1635345360.50025,1635345368.2198,1635345368.22221,1635345369.15553,1635345369.15348,1635345831.84269,0
88,4,1,3,9,1,1,c1_WhyFace,1,argument?,43,F_716.jpg,1635345224.60769,1635345224.61739,141.852476110458,8.27558207511902,150.138899078369,152.239682664871,2.10078358650208,152.389738311768,0.850318193435669,153.241640081406,1,left,0.827953100204468,153.240056505203,604.474998226166,607.234998226166,1635345369.22017,1635345369.22201,1635345377.50659,1635345377.5086,1635345379.60738,1635345379.75743,1635345379.75885,1635345380.60933,1635345380.60775,1635345831.84269,1
88,4,1,3,9,2,1,c1_WhyFace,2,argument?,44,F_139.jpg,1635345224.60769,1635345224.61739,141.852476110458,8.27558207511902,150.138899078369,152.239682664871,0.3,153.55684088707,0.716933965682983,154.275258054733,3,right,0.695118188858032,154.273774852753,604.474998226166,607.234998226166,1635345369.22017,1635345369.22201,1635345377.50659,1635345377.5086,1635345379.60738,1635345380.92453,1635345380.9265,1635345381.64295,1635345381.64147,1635345831.84269,0
88,4,1,3,9,3,1,c1_WhyFace,1,argument?,41,F_712.jpg,1635345224.60769,1635345224.61739,141.852476110458,8.27558207511902,150.138899078369,152.239682664871,0.3,154.590558757782,0.616897106170654,155.208536138535,1,left,0.60275411605835,155.207455863953,604.474998226166,607.234998226166,1635345369.22017,1635345369.22201,1635345377.50659,1635345377.5086,1635345379.60738,1635345381.95825,1635345381.95992,1635345382.57623,1635345382.57515,1635345831.84269,1
88,4,1,3,9,4,1,c1_WhyFace,2,argument?,45,F_433.jpg,1635345224.60769,1635345224.61739,141.852476110458,8.27558207511902,150.138899078369,152.239682664871,0.3,155.524240722656,0.766952753067017,156.3040001297,3,right,0.755806922912598,156.291193475723,604.474998226166,607.234998226166,1635345369.22017,1635345369.22201,1635345377.50659,1635345377.5086,1635345379.60738,1635345382.89193,1635345382.89355,1635345383.67169,1635345383.65889,1635345831.84269,0
88,4,1,3,9,5,1,c1_WhyFace,1,argument?,42,F_403.jpg,1635345224.60769,1635345224.61739,141.852476110458,8.27558207511902,150.138899078369,152.239682664871,0.3,156.60797785759,0.5668785572052,157.187378158569,1,left,0.55950403213501,157.174856414795,604.474998226166,607.234998226166,1635345369.22017,1635345369.22201,1635345377.50659,1635345377.5086,1635345379.60738,1635345383.97567,1635345383.97758,1635345384.55507,1635345384.54255,1635345831.84269,1
88,4,1,3,9,6,1,c1_WhyFace,2,argument?,46,F_844.jpg,1635345224.60769,1635345224.61739,141.852476110458,8.27558207511902,150.138899078369,152.239682664871,0.3,157.491640796661,0.766952753067017,158.259765138626,3,right,0.743759870529175,158.258593549728,604.474998226166,607.234998226166,1635345369.22017,1635345369.22201,1635345377.50659,1635345377.5086,1635345379.60738,1635345384.85933,1635345384.86134,1635345385.62746,1635345385.62629,1635345831.84269,0
88,4,1,3,9,7,1,c1_WhyFace,1,argument?,47,F_743.jpg,1635345224.60769,1635345224.61739,141.852476110458,8.27558207511902,150.138899078369,152.239682664871,0.3,158.575378408432,0.883662700653076,159.460587015152,1,left,0.861752986907959,159.459041109085,604.474998226166,607.234998226166,1635345369.22017,1635345369.22201,1635345377.50659,1635345377.5086,1635345379.60738,1635345385.94307,1635345385.9445,1635345386.82828,1635345386.82674,1635345831.84269,1
88,4,1,3,9,8,1,c1_WhyFace,1,argument?,48,F_758.jpg,1635345224.60769,1635345224.61739,141.852476110458,8.27558207511902,150.138899078369,152.239682664871,0.3,159.775827159882,0.633568525314331,160.421423187256,1,left,0.622833967208862,160.409395685196,604.474998226166,607.234998226166,1635345369.22017,1635345369.22201,1635345377.50659,1635345377.5086,1635345379.60738,1635345387.14352,1635345387.14537,1635345387.78912,1635345387.77709,1635345831.84269,1
88,4,1,3,10,1,3,c3_HowFace,1,open mouth?,80,F_844.jpg,1635345224.60769,1635345224.61739,160.492759456635,7.47524952888489,167.978886117935,170.0796692276,2.10078310966492,170.229725351334,0.550204038619995,170.781030168533,1,left,0.522607803344727,170.779929389954,604.474998226166,607.234998226166,1635345387.86045,1635345387.86192,1635345395.34658,1635345395.35563,1635345397.44736,1635345397.59742,1635345397.60558,1635345398.14872,1635345398.14762,1635345831.84269,1
88,4,1,3,10,2,3,c3_HowFace,1,open mouth?,74,F_776.jpg,1635345224.60769,1635345224.61739,160.492759456635,7.47524952888489,167.978886117935,170.0796692276,0.3,171.096714487076,0.51685905456543,171.614656200409,1,left,0.498228073120117,171.613573541641,604.474998226166,607.234998226166,1635345387.86045,1635345387.86192,1635345395.34658,1635345395.35563,1635345397.44736,1635345398.46441,1635345398.46608,1635345398.98235,1635345398.98127,1635345831.84269,1
88,4,1,3,10,3,3,c3_HowFace,2,open mouth?,76,F_544.jpg,1635345224.60769,1635345224.61739,160.492759456635,7.47524952888489,167.978886117935,170.0796692276,0.3,171.930358877182,0.616896629333496,172.55406712532,3,right,0.600255966186523,172.547255506516,604.474998226166,607.234998226166,1635345387.86045,1635345387.86192,1635345395.34658,1635345395.35563,1635345397.44736,1635345399.29805,1635345399.29955,1635345399.92176,1635345399.91495,1635345831.84269,0
88,4,1,3,10,4,3,c3_HowFace,1,open mouth?,78,F_692.jpg,1635345224.60769,1635345224.61739,160.492759456635,7.47524952888489,167.978886117935,170.0796692276,0.3,172.864040842056,0.416821956634521,173.287387123108,1,left,0.40677809715271,173.280862798691,604.474998226166,607.234998226166,1635345387.86045,1635345387.86192,1635345395.34658,1635345395.35563,1635345397.44736,1635345400.23173,1635345400.23348,1635345400.65508,1635345400.64856,1635345831.84269,1
88,4,1,3,10,5,3,c3_HowFace,2,open mouth?,77,F_584.jpg,1635345224.60769,1635345224.61739,160.492759456635,7.47524952888489,167.978886117935,170.0796692276,0.3,173.597647418976,0.500186204910278,174.098868122101,3,right,0.480720043182373,174.097833623886,604.474998226166,607.234998226166,1635345387.86045,1635345387.86192,1635345395.34658,1635345395.35563,1635345397.44736,1635345400.96534,1635345400.9669,1635345401.46656,1635345401.46553,1635345831.84269,0
88,4,1,3,10,6,3,c3_HowFace,1,open mouth?,73,F_403.jpg,1635345224.60769,1635345224.61739,160.492759456635,7.47524952888489,167.978886117935,170.0796692276,0.3,174.414619197845,0.433495283126831,174.854003181458,1,left,0.418750047683716,174.848114480972,604.474998226166,607.234998226166,1635345387.86045,1635345387.86192,1635345395.34658,1635345395.35563,1635345397.44736,1635345401.78231,1635345401.78391,1635345402.2217,1635345402.21581,1635345831.84269,1
88,4,1,3,10,7,3,c3_HowFace,1,open mouth?,75,F_086.jpg,1635345224.60769,1635345224.61739,160.492759456635,7.47524952888489,167.978886117935,170.0796692276,0.3,175.164898147583,0.483513593673706,175.654221048355,1,left,0.466954946517944,175.648411741257,604.474998226166,607.234998226166,1635345387.86045,1635345387.86192,1635345395.34658,1635345395.35563,1635345397.44736,1635345402.53259,1635345402.53466,1635345403.02191,1635345403.01611,1635345831.84269,1
88,4,1,3,10,8,3,c3_HowFace,2,open mouth?,79,F_648.jpg,1635345224.60769,1635345224.61739,160.492759456635,7.47524952888489,167.978886117935,170.0796692276,0.3,175.965196838379,0.483514070510864,176.450116147995,3,right,0.461555004119873,176.44871090889,604.474998226166,607.234998226166,1635345387.86045,1635345387.86192,1635345395.34658,1635345395.35563,1635345397.44736,1635345403.33289,1635345403.33469,1635345403.81781,1635345403.8164,1635345831.84269,0
88,4,1,3,11,1,4,c4_HowHand,1,pressing button?,88,H_019.jpg,1635345224.60769,1635345224.61739,176.515401592255,9.34253454208374,185.868890752792,187.969672908783,2.1007821559906,188.119729509354,0.566877841949463,188.68800901413,1,left,0.548383951187134,188.686607351303,604.474998226166,607.234998226166,1635345403.8831,1635345403.88897,1635345413.23658,1635345413.23902,1635345415.33737,1635345415.48742,1635345415.48963,1635345416.0557,1635345416.0543,1635345831.84269,1
88,4,1,3,11,2,4,c4_HowHand,2,pressing button?,87,H_024.jpg,1635345224.60769,1635345224.61739,176.515401592255,9.34253454208374,185.868890752792,187.969672908783,0.3,189.003392925262,0.600223064422607,189.605002155304,3,right,0.587883949279785,189.603615989685,604.474998226166,607.234998226166,1635345403.8831,1635345403.88897,1635345413.23658,1635345413.23902,1635345415.33737,1635345416.37109,1635345416.37267,1635345416.9727,1635345416.97131,1635345831.84269,0
88,4,1,3,11,3,4,c4_HowHand,2,pressing button?,85,H_130.jpg,1635345224.60769,1635345224.61739,176.515401592255,9.34253454208374,185.868890752792,187.969672908783,0.3,189.920401563644,0.650241613388062,190.571742048264,3,right,0.634265899658203,190.570643177032,604.474998226166,607.234998226166,1635345403.8831,1635345403.88897,1635345413.23658,1635345413.23902,1635345415.33737,1635345417.2881,1635345417.28986,1635345417.93944,1635345417.93834,1635345831.84269,0
88,4,1,3,11,4,4,c4_HowHand,1,pressing button?,83,H_502.jpg,1635345224.60769,1635345224.61739,176.515401592255,9.34253454208374,185.868890752792,187.969672908783,0.3,190.887428750992,0.433493852615356,191.322051038742,1,left,0.41918683052063,191.320922603607,604.474998226166,607.234998226166,1635345403.8831,1635345403.88897,1635345413.23658,1635345413.23902,1635345415.33737,1635345418.25512,1635345418.25683,1635345418.68974,1635345418.68862,1635345831.84269,1
88,4,1,3,11,5,4,c4_HowHand,2,pressing button?,81,H_261.jpg,1635345224.60769,1635345224.61739,176.515401592255,9.34253454208374,185.868890752792,187.969672908783,0.3,191.637707462311,0.583552360534668,192.222465028763,3,right,0.56663703918457,192.221259822845,604.474998226166,607.234998226166,1635345403.8831,1635345403.88897,1635345413.23658,1635345413.23902,1635345415.33737,1635345419.0054,1635345419.00702,1635345419.59016,1635345419.58895,1635345831.84269,0
88,4,1,3,11,6,4,c4_HowHand,1,pressing button?,86,H_332.jpg,1635345224.60769,1635345224.61739,176.515401592255,9.34253454208374,185.868890752792,187.969672908783,0.3,192.538043966293,0.500186681747437,193.039585103989,1,left,0.491100072860718,193.038230648041,604.474998226166,607.234998226166,1635345403.8831,1635345403.88897,1635345413.23658,1635345413.23902,1635345415.33737,1635345419.90574,1635345419.90724,1635345420.40728,1635345420.40592,1635345831.84269,1
88,4,1,3,11,7,4,c4_HowHand,1,pressing button?,82,H_126.jpg,1635345224.60769,1635345224.61739,176.515401592255,9.34253454208374,185.868890752792,187.969672908783,0.3,193.35501455307,0.483514308929443,193.839714040756,1,left,0.466372013092041,193.838528862,604.474998226166,607.234998226166,1635345403.8831,1635345403.88897,1635345413.23658,1635345413.23902,1635345415.33737,1635345420.72271,1635345420.72418,1635345421.20741,1635345421.20622,1635345831.84269,1
88,4,1,3,11,8,4,c4_HowHand,1,pressing button?,84,H_483.jpg,1635345224.60769,1635345224.61739,176.515401592255,9.34253454208374,185.868890752792,187.969672908783,0.3,194.155313720703,0.683587551116943,194.839990129471,1,left,0.668270826339722,194.83890127182,604.474998226166,607.234998226166,1635345403.8831,1635345403.88897,1635345413.23658,1635345413.23902,1635345415.33737,1635345421.52301,1635345421.52447,1635345422.20768,1635345422.2066,1635345831.84269,1
88,4,1,3,12,1,2,c2_WhyHand,1,competing?,9,H_261.jpg,1635345224.60769,1635345224.61739,194.905593862534,8.74236011505127,203.658857336044,205.759641637802,2.10078430175781,205.909697999954,0.60022234916687,206.520758142471,1,left,0.588464021682739,206.509920349121,604.474998226166,607.234998226166,1635345422.27329,1635345422.289,1635345431.02655,1635345431.02892,1635345433.12734,1635345433.27739,1635345433.2799,1635345433.88845,1635345433.87761,1635345831.84269,1
88,4,1,3,12,2,2,c2_WhyHand,2,competing?,12,H_483.jpg,1635345224.60769,1635345224.61739,194.905593862534,8.74236011505127,203.658857336044,205.759641637802,0.3,206.82670592308,0.650241851806641,207.48809718132,3,right,0.640620946884155,207.476947774887,604.474998226166,607.234998226166,1635345422.27329,1635345422.289,1635345431.02655,1635345431.02892,1635345433.12734,1635345434.1944,1635345434.19609,1635345434.85579,1635345434.84464,1635345831.84269,0
88,4,1,3,12,3,2,c2_WhyHand,1,competing?,14,H_132.jpg,1635345224.60769,1635345224.61739,194.905593862534,8.74236011505127,203.658857336044,205.759641637802,0.3,207.793733348846,0.666915893554688,208.462113132477,1,left,0.649521112442017,208.460649242401,604.474998226166,607.234998226166,1635345422.27329,1635345422.289,1635345431.02655,1635345431.02892,1635345433.12734,1635345435.16143,1635345435.16317,1635345435.82981,1635345435.82834,1635345831.84269,1
88,4,1,3,12,4,2,c2_WhyHand,2,competing?,10,H_126.jpg,1635345224.60769,1635345224.61739,194.905593862534,8.74236011505127,203.658857336044,205.759641637802,0.3,208.777433862686,0.61689567565918,209.395383110046,3,right,0.599776983261108,209.394329538345,604.474998226166,607.234998226166,1635345422.27329,1635345422.289,1635345431.02655,1635345431.02892,1635345433.12734,1635345436.14513,1635345436.14657,1635345436.76308,1635345436.76202,1635345831.84269,0
88,4,1,3,12,5,2,c2_WhyHand,1,competing?,16,H_136.jpg,1635345224.60769,1635345224.61739,194.905593862534,8.74236011505127,203.658857336044,205.759641637802,0.3,209.711113443375,0.783627033233643,210.496204128265,1,left,0.759699106216431,210.494740476608,604.474998226166,607.234998226166,1635345422.27329,1635345422.289,1635345431.02655,1635345431.02892,1635345433.12734,1635345437.07881,1635345437.08104,1635345437.8639,1635345437.86243,1635345831.84269,1
88,4,1,3,12,6,2,c2_WhyHand,2,competing?,11,H_502.jpg,1635345224.60769,1635345224.61739,194.905593862534,8.74236011505127,203.658857336044,205.759641637802,0.3,210.811525335312,0.816971778869629,211.638181200027,3,right,0.807163000106812,211.628497114182,604.474998226166,607.234998226166,1635345422.27329,1635345422.289,1635345431.02655,1635345431.02892,1635345433.12734,1635345438.17922,1635345438.18071,1635345439.00588,1635345438.99619,1635345831.84269,0
88,4,1,3,12,7,2,c2_WhyHand,1,competing?,13,H_003.jpg,1635345224.60769,1635345224.61739,194.905593862534,8.74236011505127,203.658857336044,205.759641637802,0.3,211.945282211304,0.683587312698364,212.637392034531,1,left,0.669919967651367,212.628869524002,604.474998226166,607.234998226166,1635345422.27329,1635345422.289,1635345431.02655,1635345431.02892,1635345433.12734,1635345439.31298,1635345439.31459,1635345440.00509,1635345439.99656,1635345831.84269,1
88,4,1,3,12,8,2,c2_WhyHand,1,competing?,15,H_170.jpg,1635345224.60769,1635345224.61739,194.905593862534,8.74236011505127,203.658857336044,205.759641637802,0.3,212.945655097961,0.550205230712891,213.504521121979,1,left,0.540026903152466,213.495860328674,604.474998226166,607.234998226166,1635345422.27329,1635345422.289,1635345431.02655,1635345431.02892,1635345433.12734,1635345440.31335,1635345440.3152,1635345440.87222,1635345440.86355,1635345831.84269,1
88,4,1,3,13,1,1,c1_WhyFace,1,self-doubt?,29,F_544.jpg,1635345224.60769,1635345224.61739,213.579223623276,8.13870358467102,221.732264986038,223.833047618866,2.10078263282776,223.983103981018,0.550204515457153,224.537939062119,1,left,0.52802586555481,224.533308496475,604.474998226166,607.234998226166,1635345440.94692,1635345440.94868,1635345449.09996,1635345449.10575,1635345451.20074,1635345451.3508,1635345451.35591,1635345451.90563,1635345451.901,1635345831.84269,1
88,4,1,3,13,2,1,c1_WhyFace,2,self-doubt?,27,F_086.jpg,1635345224.60769,1635345224.61739,213.579223623276,8.13870358467102,221.732264986038,223.833047618866,0.3,224.850093355179,0.616897344589233,225.471186151505,3,right,0.597884893417358,225.466990699768,604.474998226166,607.234998226166,1635345440.94692,1635345440.94868,1635345449.09996,1635345449.10575,1635345451.20074,1635345452.21779,1635345452.22209,1635345452.83888,1635345452.83468,1635345831.84269,0
88,4,1,3,13,3,1,c1_WhyFace,1,self-doubt?,25,F_798.jpg,1635345224.60769,1635345224.61739,213.579223623276,8.13870358467102,221.732264986038,223.833047618866,0.3,225.783774604797,0.450169324874878,226.237815132141,1,left,0.436861991882324,226.233943929672,604.474998226166,607.234998226166,1635345440.94692,1635345440.94868,1635345449.09996,1635345449.10575,1635345451.20074,1635345453.15147,1635345453.15569,1635345453.60551,1635345453.60164,1635345831.84269,1
88,4,1,3,13,4,1,c1_WhyFace,1,self-doubt?,26,F_111.jpg,1635345224.60769,1635345224.61739,213.579223623276,8.13870358467102,221.732264986038,223.833047618866,0.3,226.550727357864,0.650243282318115,227.204091062546,1,left,0.631645917892456,227.200970640183,604.474998226166,607.234998226166,1635345440.94692,1635345440.94868,1635345449.09996,1635345449.10575,1635345451.20074,1635345453.91842,1635345453.9226,1635345454.57178,1635345454.56866,1635345831.84269,1
88,4,1,3,13,5,1,c1_WhyFace,2,self-doubt?,31,F_774.jpg,1635345224.60769,1635345224.61739,213.579223623276,8.13870358467102,221.732264986038,223.833047618866,0.3,227.517756214142,0.516857862472534,228.037680139542,3,right,0.497708082199097,228.034614076614,604.474998226166,607.234998226166,1635345440.94692,1635345440.94868,1635345449.09996,1635345449.10575,1635345451.20074,1635345454.88545,1635345454.889,1635345455.40537,1635345455.40231,1635345831.84269,0
88,4,1,3,13,6,1,c1_WhyFace,1,self-doubt?,28,F_754.jpg,1635345224.60769,1635345224.61739,213.579223623276,8.13870358467102,221.732264986038,223.833047618866,0.3,228.351398935318,0.666915893554688,229.021210184097,1,left,0.645116090774536,229.018314828873,604.474998226166,607.234998226166,1635345440.94692,1635345440.94868,1635345449.09996,1635345449.10575,1635345451.20074,1635345455.71909,1635345455.72251,1635345456.3889,1635345456.38601,1635345831.84269,1
88,4,1,3,13,7,1,c1_WhyFace,2,self-doubt?,32,F_128.jpg,1635345224.60769,1635345224.61739,213.579223623276,8.13870358467102,221.732264986038,223.833047618866,0.3,229.335099925995,0.900336503982544,230.238314142227,3,right,0.884389162063599,230.235436429977,604.474998226166,607.234998226166,1635345440.94692,1635345440.94868,1635345449.09996,1635345449.10575,1635345451.20074,1635345456.70279,1635345456.7056,1635345457.60601,1635345457.60313,1635345831.84269,0
88,4,1,3,13,8,1,c1_WhyFace,1,self-doubt?,30,F_584.jpg,1635345224.60769,1635345224.61739,213.579223623276,8.13870358467102,221.732264986038,223.833047618866,0.3,230.552219381332,1.11708474159241,231.670577039719,1,left,1.10687184333801,231.669304122925,604.474998226166,607.234998226166,1635345440.94692,1635345440.94868,1635345449.09996,1635345449.10575,1635345451.20074,1635345457.91991,1635345457.92215,1635345459.03827,1635345459.037,1635345831.84269,1
88,4,1,3,14,1,3,c3_HowFace,1,looking at camera?,64,F_128.jpg,1635345224.60769,1635345224.61739,231.735994329453,9.03592777252197,240.789372196198,242.890154590607,2.10078239440918,243.040210952759,0.650243043899536,243.691476097107,1,left,0.632368087768555,243.690453996658,604.474998226166,607.234998226166,1635345459.10369,1635345459.10535,1635345468.15707,1635345468.15871,1635345470.25785,1635345470.4079,1635345470.4097,1635345471.05917,1635345471.05815,1635345831.84269,1
88,4,1,3,14,2,3,c3_HowFace,1,looking at camera?,60,F_618.jpg,1635345224.60769,1635345224.61739,231.735994329453,9.03592777252197,240.789372196198,242.890154590607,0.3,244.007237663269,0.633569717407227,244.642242183685,1,left,0.616445064544678,244.640807380676,604.474998226166,607.234998226166,1635345459.10369,1635345459.10535,1635345468.15707,1635345468.15871,1635345470.25785,1635345471.37493,1635345471.37658,1635345472.00994,1635345472.0085,1635345831.84269,1
88,4,1,3,14,3,3,c3_HowFace,1,looking at camera?,62,F_598.jpg,1635345224.60769,1635345224.61739,231.735994329453,9.03592777252197,240.789372196198,242.890154590607,0.3,244.957592477798,0.983700752258301,245.942943086624,1,left,0.960122108459473,245.941293230057,604.474998226166,607.234998226166,1635345459.10369,1635345459.10535,1635345468.15707,1635345468.15871,1635345470.25785,1635345472.32529,1635345472.32696,1635345473.31064,1635345473.30899,1635345831.84269,1
88,4,1,3,14,4,3,c3_HowFace,2,looking at camera?,63,F_743.jpg,1635345224.60769,1635345224.61739,231.735994329453,9.03592777252197,240.789372196198,242.890154590607,0.3,246.258077611923,0.53353214263916,246.793173065186,3,right,0.519824981689453,246.791609754562,604.474998226166,607.234998226166,1635345459.10369,1635345459.10535,1635345468.15707,1635345468.15871,1635345470.25785,1635345473.62577,1635345473.62786,1635345474.16087,1635345474.1593,1635345831.84269,0
88,4,1,3,14,5,3,c3_HowFace,1,looking at camera?,61,F_774.jpg,1635345224.60769,1635345224.61739,231.735994329453,9.03592777252197,240.789372196198,242.890154590607,0.3,247.108394613266,0.566878318786621,247.687681188583,1,left,0.556792974472046,247.675272932053,604.474998226166,607.234998226166,1635345459.10369,1635345459.10535,1635345468.15707,1635345468.15871,1635345470.25785,1635345474.47609,1635345474.47743,1635345475.05538,1635345475.04297,1635345831.84269,1
88,4,1,3,14,6,3,c3_HowFace,2,looking at camera?,57,F_582.jpg,1635345224.60769,1635345224.61739,231.735994329453,9.03592777252197,240.789372196198,242.890154590607,0.3,247.992057313919,0.583552122116089,248.576739063263,3,right,0.561596870422363,248.575609436035,604.474998226166,607.234998226166,1635345459.10369,1635345459.10535,1635345468.15707,1635345468.15871,1635345470.25785,1635345475.35975,1635345475.36117,1635345475.94443,1635345475.9433,1635345831.84269,0
88,4,1,3,14,7,3,c3_HowFace,2,looking at camera?,58,F_754.jpg,1635345224.60769,1635345224.61739,231.735994329453,9.03592777252197,240.789372196198,242.890154590607,0.3,248.892393817902,0.583550453186035,249.487414112091,3,right,0.570645093917847,249.475944271088,604.474998226166,607.234998226166,1635345459.10369,1635345459.10535,1635345468.15707,1635345468.15871,1635345470.25785,1635345476.26009,1635345476.26199,1635345476.85511,1635345476.84364,1635345831.84269,0
88,4,1,3,14,8,3,c3_HowFace,1,looking at camera?,59,F_129.jpg,1635345224.60769,1635345224.61739,231.735994329453,9.03592777252197,240.789372196198,242.890154590607,0.3,249.792728652954,0.583551168441772,250.378097047806,1,left,0.568759918212891,250.376279821396,604.474998226166,607.234998226166,1635345459.10369,1635345459.10535,1635345468.15707,1635345468.15871,1635345470.25785,1635345477.16042,1635345477.16218,1635345477.74579,1635345477.74397,1635345831.84269,1
88,4,1,3,15,1,4,c4_HowHand,1,both hands?,123,H_167.jpg,1635345224.60769,1635345224.61739,250.459643592834,9.10228753089905,259.579711666107,261.680495491028,2.10078382492065,261.830550899506,0.98370099067688,262.816049089432,1,left,0.963675022125244,262.814251890183,604.474998226166,607.234998226166,1635345477.82734,1635345477.82874,1635345486.94741,1635345486.94986,1635345489.04819,1635345489.19824,1635345489.20117,1635345490.18374,1635345490.18195,1635345831.84269,1
88,4,1,3,15,2,4,c4_HowHand,2,both hands?,121,H_091.jpg,1635345224.60769,1635345224.61739,250.459643592834,9.10228753089905,259.579711666107,261.680495491028,0.3,263.131035795212,0.700262546539307,263.837417116165,3,right,0.693289995193481,263.831298341751,604.474998226166,607.234998226166,1635345477.82734,1635345477.82874,1635345486.94741,1635345486.94986,1635345489.04819,1635345490.49873,1635345490.50041,1635345491.20511,1635345491.19899,1635345831.84269,0
88,4,1,3,15,3,4,c4_HowHand,2,both hands?,125,H_627.jpg,1635345224.60769,1635345224.61739,250.459643592834,9.10228753089905,259.579711666107,261.680495491028,0.3,264.148082485199,0.766952276229858,264.921184053421,3,right,0.754283905029297,264.915034761429,604.474998226166,607.234998226166,1635345477.82734,1635345477.82874,1635345486.94741,1635345486.94986,1635345489.04819,1635345491.51578,1635345491.5177,1635345492.28888,1635345492.28273,1635345831.84269,0
88,4,1,3,15,4,4,c4_HowHand,1,both hands?,128,H_027.jpg,1635345224.60769,1635345224.61739,250.459643592834,9.10228753089905,259.579711666107,261.680495491028,0.3,265.231819143295,0.533532381057739,265.766839017868,1,left,0.514354944229126,265.765351524353,604.474998226166,607.234998226166,1635345477.82734,1635345477.82874,1635345486.94741,1635345486.94986,1635345489.04819,1635345492.59951,1635345492.60115,1635345493.13453,1635345493.13305,1635345831.84269,1
88,4,1,3,15,5,4,c4_HowHand,1,both hands?,122,H_111.jpg,1635345224.60769,1635345224.61739,250.459643592834,9.10228753089905,259.579711666107,261.680495491028,0.3,266.082136621475,0.583550691604614,266.667448034287,1,left,0.563354015350342,266.66568731308,604.474998226166,607.234998226166,1635345477.82734,1635345477.82874,1635345486.94741,1635345486.94986,1635345489.04819,1635345493.44983,1635345493.4517,1635345494.03514,1635345494.03338,1635345831.84269,1
88,4,1,3,15,6,4,c4_HowHand,2,both hands?,126,H_159.jpg,1635345224.60769,1635345224.61739,250.459643592834,9.10228753089905,259.579711666107,261.680495491028,0.3,266.982472887039,0.833644390106201,267.821284046173,3,right,0.825201034545898,267.816117277145,604.474998226166,607.234998226166,1635345477.82734,1635345477.82874,1635345486.94741,1635345486.94986,1635345489.04819,1635345494.35017,1635345494.35217,1635345495.18898,1635345495.18381,1635345831.84269,0
88,4,1,3,15,7,4,c4_HowHand,1,both hands?,124,H_581.jpg,1635345224.60769,1635345224.61739,250.459643592834,9.10228753089905,259.579711666107,261.680495491028,0.3,268.13290189743,0.683587789535522,268.820804109573,1,left,0.667847156524658,268.816489686966,604.474998226166,607.234998226166,1635345477.82734,1635345477.82874,1635345486.94741,1635345486.94986,1635345489.04819,1635345495.5006,1635345495.50222,1635345496.1885,1635345496.18418,1635345831.84269,1
88,4,1,3,15,8,4,c4_HowHand,1,both hands?,127,H_349.jpg,1635345224.60769,1635345224.61739,250.459643592834,9.10228753089905,259.579711666107,261.680495491028,0.3,269.133274307251,0.550204038619995,269.685250988007,1,left,0.525641918182373,269.683478345871,604.474998226166,607.234998226166,1635345477.82734,1635345477.82874,1635345486.94741,1635345486.94986,1635345489.04819,1635345496.50097,1635345496.50547,1635345497.05294,1635345497.05117,1635345831.84269,1
88,4,1,3,16,1,2,c2_WhyHand,1,self-protection?,89,H_443.jpg,1635345224.60769,1635345224.61739,269.766844501495,8.58508968353271,278.370052566528,280.454164018631,2.08411145210266,280.620892038345,0.583550930023193,281.205568065643,1,left,0.56280517578125,281.204442968369,604.474998226166,607.234998226166,1635345497.13454,1635345497.13612,1635345505.73775,1635345505.73982,1635345507.82186,1635345507.98859,1635345507.99162,1635345508.57326,1635345508.57214,1635345831.84269,1
88,4,1,3,16,2,2,c2_WhyHand,2,self-protection?,90,H_006.jpg,1635345224.60769,1635345224.61739,269.766844501495,8.58508968353271,278.370052566528,280.454164018631,0.3,281.521227827072,0.750279664993286,282.272561063766,3,right,0.734806060791016,282.271507492065,604.474998226166,607.234998226166,1635345497.13454,1635345497.13612,1635345505.73775,1635345505.73982,1635345507.82186,1635345508.88892,1635345508.89077,1635345509.64025,1635345509.6392,1635345831.84269,0
88,4,1,3,16,3,2,c2_WhyHand,1,self-protection?,91,H_581.jpg,1635345224.60769,1635345224.61739,269.766844501495,8.58508968353271,278.370052566528,280.454164018631,0.3,282.588292589188,0.533531904220581,283.122909059525,1,left,0.51355504989624,283.121824493408,604.474998226166,607.234998226166,1635345497.13454,1635345497.13612,1635345505.73775,1635345505.73982,1635345507.82186,1635345509.95599,1635345509.95741,1635345510.4906,1635345510.48952,1635345831.84269,1
88,4,1,3,16,4,2,c2_WhyHand,2,self-protection?,92,H_532.jpg,1635345224.60769,1635345224.61739,269.766844501495,8.58508968353271,278.370052566528,280.454164018631,0.3,283.438609352112,0.700261116027832,284.140672197342,3,right,0.682673931121826,284.13887046814,604.474998226166,607.234998226166,1635345497.13454,1635345497.13612,1635345505.73775,1635345505.73982,1635345507.82186,1635345510.8063,1635345510.8079,1635345511.50837,1635345511.50656,1635345831.84269,0
88,4,1,3,16,5,2,c2_WhyHand,1,self-protection?,96,H_027.jpg,1635345224.60769,1635345224.61739,269.766844501495,8.58508968353271,278.370052566528,280.454164018631,0.3,284.455654850006,0.68358850479126,285.140653123856,1,left,0.671815156936646,285.139243354797,604.474998226166,607.234998226166,1635345497.13454,1635345497.13612,1635345505.73775,1635345505.73982,1635345507.82186,1635345511.82335,1635345511.8249,1635345512.50835,1635345512.50694,1635345831.84269,1
88,4,1,3,16,6,2,c2_WhyHand,1,self-protection?,93,H_038.jpg,1635345224.60769,1635345224.61739,269.766844501495,8.58508968353271,278.370052566528,280.454164018631,0.3,285.45602845192,0.933681011199951,286.390712013245,1,left,0.921879053115845,286.38970946312,604.474998226166,607.234998226166,1635345497.13454,1635345497.13612,1635345505.73775,1635345505.73982,1635345507.82186,1635345512.82372,1635345512.82569,1635345513.75841,1635345513.7574,1635345831.84269,1
88,4,1,3,16,7,2,c2_WhyHand,2,self-protection?,95,H_332.jpg,1635345224.60769,1635345224.61739,269.766844501495,8.58508968353271,278.370052566528,280.454164018631,0.3,286.706494321823,0.733607292175293,287.441280117035,3,right,0.71200704574585,287.440101613998,604.474998226166,607.234998226166,1635345497.13454,1635345497.13612,1635345505.73775,1635345505.73982,1635345507.82186,1635345514.07419,1635345514.07577,1635345514.80897,1635345514.8078,1635345831.84269,0
88,4,1,3,16,8,2,c2_WhyHand,1,self-protection?,94,H_189.jpg,1635345224.60769,1635345224.61739,269.766844501495,8.58508968353271,278.370052566528,280.454164018631,0.3,287.756886711121,1.10040903091431,288.858829011917,1,left,1.08188486099243,288.857295742035,604.474998226166,607.234998226166,1635345497.13454,1635345497.13612,1635345505.73775,1635345505.73982,1635345507.82186,1635345515.12458,1635345515.12615,1635345516.22652,1635345516.22499,1635345831.84269,1
88,4,1,3,17,1,3,c3_HowFace,1,smiling?,118,F_759.jpg,1635345224.60769,1635345224.61739,288.940660705566,10.8912723064423,299.844727745056,301.94551109314,2.1007833480835,302.095567455292,0.55020546913147,302.654376974106,1,left,0.533967018127441,302.645772924423,604.474998226166,607.234998226166,1635345516.30835,1635345516.30997,1635345527.21242,1635345527.2146,1635345529.31321,1635345529.46326,1635345529.46527,1635345530.02207,1635345530.01347,1635345831.84269,1
88,4,1,3,17,2,3,c3_HowFace,2,smiling?,114,F_412.jpg,1635345224.60769,1635345224.61739,288.940660705566,10.8912723064423,299.844727745056,301.94551109314,0.3,302.962557067871,0.550204992294312,303.521429052353,3,right,0.542647123336792,303.512762060165,604.474998226166,607.234998226166,1635345516.30835,1635345516.30997,1635345527.21242,1635345527.2146,1635345529.31321,1635345530.33025,1635345530.33183,1635345530.88912,1635345530.88046,1635345831.84269,0
88,4,1,3,17,3,3,c3_HowFace,1,smiling?,117,F_593.jpg,1635345224.60769,1635345224.61739,288.940660705566,10.8912723064423,299.844727745056,301.94551109314,0.3,303.829546442032,0.483514785766602,304.320710172653,1,left,0.467880964279175,304.313061227798,604.474998226166,607.234998226166,1635345516.30835,1635345516.30997,1635345527.21242,1635345527.2146,1635345529.31321,1635345531.19724,1635345531.19901,1635345531.6884,1635345531.68076,1635345831.84269,1
88,4,1,3,17,4,3,c3_HowFace,2,smiling?,113,F_712.jpg,1635345224.60769,1635345224.61739,288.940660705566,10.8912723064423,299.844727745056,301.94551109314,0.3,304.629845609665,0.616897106170654,305.247803201675,3,right,0.59660792350769,305.246742715836,604.474998226166,607.234998226166,1635345516.30835,1635345516.30997,1635345527.21242,1635345527.2146,1635345529.31321,1635345531.99754,1635345531.99916,1635345532.6155,1635345532.61444,1635345831.84269,0
88,4,1,3,17,5,3,c3_HowFace,1,smiling?,115,F_695.jpg,1635345224.60769,1635345224.61739,288.940660705566,10.8912723064423,299.844727745056,301.94551109314,0.3,305.563526382446,0.666915416717529,306.237493028641,1,left,0.651596069335938,306.230441799164,604.474998226166,607.234998226166,1635345516.30835,1635345516.30997,1635345527.21242,1635345527.2146,1635345529.31321,1635345532.93122,1635345532.93308,1635345533.60519,1635345533.59814,1635345831.84269,1
88,4,1,3,17,6,3,c3_HowFace,1,smiling?,119,F_139.jpg,1635345224.60769,1635345224.61739,288.940660705566,10.8912723064423,299.844727745056,301.94551109314,0.3,306.54722784996,0.516858816146851,307.070697059631,1,left,0.500536918640137,307.064086666107,604.474998226166,607.234998226166,1635345516.30835,1635345516.30997,1635345527.21242,1635345527.2146,1635345529.31321,1635345533.91492,1635345533.91665,1635345534.43839,1635345534.43178,1635345831.84269,1
88,4,1,3,17,7,3,c3_HowFace,1,smiling?,116,F_083.jpg,1635345224.60769,1635345224.61739,288.940660705566,10.8912723064423,299.844727745056,301.94551109314,0.3,307.380871524811,0.48351263999939,307.870674123764,1,left,0.474364042282104,307.86438416481,604.474998226166,607.234998226166,1635345516.30835,1635345516.30997,1635345527.21242,1635345527.2146,1635345529.31321,1635345534.74857,1635345534.74987,1635345535.23837,1635345535.23208,1635345831.84269,1
88,4,1,3,17,8,3,c3_HowFace,2,smiling?,120,F_758.jpg,1635345224.60769,1635345224.61739,288.940660705566,10.8912723064423,299.844727745056,301.94551109314,0.3,308.181170215607,0.583550691604614,308.771275987625,3,right,0.575322866439819,308.764720907211,604.474998226166,607.234998226166,1635345516.30835,1635345516.30997,1635345527.21242,1635345527.2146,1635345529.31321,1635345535.54886,1635345535.5506,1635345536.13897,1635345536.13241,1635345831.84269,0
88,4,1,3,18,1,1,c1_WhyFace,1,admiring?,1,F_593.jpg,1635345224.60769,1635345224.61739,308.848084917068,8.77384114265442,317.634696235657,319.735478630066,2.10078239440918,319.885535230637,0.600223302841187,320.487781038284,1,left,0.584069967269897,320.485758533478,604.474998226166,607.234998226166,1635345536.21578,1635345536.22179,1635345545.00239,1635345545.00602,1635345547.10317,1635345547.25323,1635345547.25577,1635345547.85547,1635345547.85345,1635345831.84269,1
88,4,1,3,18,2,1,c1_WhyFace,2,admiring?,2,F_129.jpg,1635345224.60769,1635345224.61739,308.848084917068,8.77384114265442,317.634696235657,319.735478630066,0.3,320.8025436306,0.766952276229858,321.571351041794,3,right,0.745117902755737,321.56949590683,604.474998226166,607.234998226166,1635345536.21578,1635345536.22179,1635345545.00239,1635345545.00602,1635345547.10317,1635345548.17024,1635345548.17203,1635345548.93904,1635345548.93719,1635345831.84269,0
88,4,1,3,18,3,1,c1_WhyFace,1,admiring?,5,F_759.jpg,1635345224.60769,1635345224.61739,308.848084917068,8.77384114265442,317.634696235657,319.735478630066,0.3,321.886281003952,0.483514070510864,322.371450176239,1,left,0.471817970275879,322.369795074463,604.474998226166,607.234998226166,1635345536.21578,1635345536.22179,1635345545.00239,1635345545.00602,1635345547.10317,1635345549.25397,1635345549.25632,1635345549.73914,1635345549.73749,1635345831.84269,1
88,4,1,3,18,4,1,c1_WhyFace,2,admiring?,6,F_692.jpg,1635345224.60769,1635345224.61739,308.848084917068,8.77384114265442,317.634696235657,319.735478630066,0.3,322.686578979492,0.683589220046997,323.371899118423,3,right,0.665479898452759,323.370168199539,604.474998226166,607.234998226166,1635345536.21578,1635345536.22179,1635345545.00239,1635345545.00602,1635345547.10317,1635345550.05427,1635345550.05574,1635345550.73959,1635345550.73786,1635345831.84269,0
88,4,1,3,18,5,1,c1_WhyFace,1,admiring?,4,F_779.jpg,1635345224.60769,1635345224.61739,308.848084917068,8.77384114265442,317.634696235657,319.735478630066,0.3,323.686952819824,0.583550691604614,324.271883001328,1,left,0.569248914718628,324.270503511429,604.474998226166,607.234998226166,1635345536.21578,1635345536.22179,1635345545.00239,1635345545.00602,1635345547.10317,1635345551.05465,1635345551.05667,1635345551.63958,1635345551.6382,1635345831.84269,1
88,4,1,3,18,6,1,c1_WhyFace,1,admiring?,8,F_590.jpg,1635345224.60769,1635345224.61739,308.848084917068,8.77384114265442,317.634696235657,319.735478630066,0.3,324.587287654877,0.550205945968628,325.139158000946,1,left,0.535454034805298,325.137493600845,604.474998226166,607.234998226166,1635345536.21578,1635345536.22179,1635345545.00239,1635345545.00602,1635345547.10317,1635345551.95498,1635345551.95672,1635345552.50685,1635345552.50519,1635345831.84269,1
88,4,1,3,18,7,1,c1_WhyFace,1,admiring?,7,F_648.jpg,1635345224.60769,1635345224.61739,308.848084917068,8.77384114265442,317.634696235657,319.735478630066,0.3,325.454277744293,0.583550691604614,326.039563169479,1,left,0.567094087600708,326.037828435898,604.474998226166,607.234998226166,1635345536.21578,1635345536.22179,1635345545.00239,1635345545.00602,1635345547.10317,1635345552.82197,1635345552.82373,1635345553.40726,1635345553.40552,1635345831.84269,1
88,4,1,3,18,8,1,c1_WhyFace,2,admiring?,3,F_110.jpg,1635345224.60769,1635345224.61739,308.848084917068,8.77384114265442,317.634696235657,319.735478630066,0.3,326.354614009857,0.516858577728271,326.887890090942,3,right,0.509696006774902,326.871472587585,604.474998226166,607.234998226166,1635345536.21578,1635345536.22179,1635345545.00239,1635345545.00602,1635345547.10317,1635345553.72231,1635345553.72403,1635345554.25558,1635345554.23917,1635345831.84269,0
88,4,1,3,19,1,2,c2_WhyHand,1,competing?,9,H_261.jpg,1635345224.60769,1635345224.61739,326.971510400772,8.54055857658386,335.524700632095,337.625483980179,2.1007833480835,337.775539388657,0.5668785572052,338.343487014771,1,left,0.544913053512573,338.342417945862,604.474998226166,607.234998226166,1635345554.3392,1635345554.34058,1635345562.89239,1635345562.89446,1635345564.99318,1635345565.14323,1635345565.14514,1635345565.71118,1635345565.71011,1635345831.84269,1
88,4,1,3,19,2,2,c2_WhyHand,1,competing?,15,H_170.jpg,1635345224.60769,1635345224.61739,326.971510400772,8.54055857658386,335.524700632095,337.625483980179,0.3,338.659202327728,0.566878318786621,339.227127065659,1,left,0.551154136657715,339.226080646515,604.474998226166,607.234998226166,1635345554.3392,1635345554.34058,1635345562.89239,1635345562.89446,1635345564.99318,1635345566.0269,1635345566.02881,1635345566.59482,1635345566.59377,1635345831.84269,1
88,4,1,3,19,3,2,c2_WhyHand,2,competing?,12,H_483.jpg,1635345224.60769,1635345224.61739,326.971510400772,8.54055857658386,335.524700632095,337.625483980179,0.3,339.542865028381,0.550205945968628,340.094541063309,3,right,0.535470008850098,340.09307097435,604.474998226166,607.234998226166,1635345554.3392,1635345554.34058,1635345562.89239,1635345562.89446,1635345564.99318,1635345566.91056,1635345566.91193,1635345567.46223,1635345567.46076,1635345831.84269,0
88,4,1,3,19,4,2,c2_WhyHand,1,competing?,14,H_132.jpg,1635345224.60769,1635345224.61739,326.971510400772,8.54055857658386,335.524700632095,337.625483980179,0.3,340.409854879379,0.41682243347168,340.827714195251,1,left,0.402268886566162,340.826677312851,604.474998226166,607.234998226166,1635345554.3392,1635345554.34058,1635345562.89239,1635345562.89446,1635345564.99318,1635345567.77755,1635345567.77911,1635345568.19541,1635345568.19437,1635345831.84269,1
88,4,1,3,19,5,2,c2_WhyHand,1,competing?,16,H_136.jpg,1635345224.60769,1635345224.61739,326.971510400772,8.54055857658386,335.524700632095,337.625483980179,0.3,341.143462648392,0.600223064422607,341.74498008728,1,left,0.578536987304688,341.743685712814,604.474998226166,607.234998226166,1635345554.3392,1635345554.34058,1635345562.89239,1635345562.89446,1635345564.99318,1635345568.51116,1635345568.51286,1635345569.11267,1635345569.11138,1635345831.84269,1
88,4,1,3,19,6,2,c2_WhyHand,1,competing?,13,H_003.jpg,1635345224.60769,1635345224.61739,326.971510400772,8.54055857658386,335.524700632095,337.625483980179,0.3,342.060471048355,0.566877365112305,342.638217201233,1,left,0.558807849884033,342.627348413467,604.474998226166,607.234998226166,1635345554.3392,1635345554.34058,1635345562.89239,1635345562.89446,1635345564.99318,1635345569.42816,1635345569.42983,1635345570.00591,1635345569.99504,1635345831.84269,1
88,4,1,3,19,7,2,c2_WhyHand,2,competing?,10,H_126.jpg,1635345224.60769,1635345224.61739,326.971510400772,8.54055857658386,335.524700632095,337.625483980179,0.3,342.944133749008,0.500186681747437,343.45440410614,3,right,0.487816095352173,343.444320430756,604.474998226166,607.234998226166,1635345554.3392,1635345554.34058,1635345562.89239,1635345562.89446,1635345564.99318,1635345570.31183,1635345570.31385,1635345570.8221,1635345570.81201,1635345831.84269,0
88,4,1,3,19,8,2,c2_WhyHand,2,competing?,11,H_502.jpg,1635345224.60769,1635345224.61739,326.971510400772,8.54055857658386,335.524700632095,337.625483980179,0.3,343.761104812622,0.783624649047852,344.546473970413,3,right,0.763209819793701,344.54472946167,604.474998226166,607.234998226166,1635345554.3392,1635345554.34058,1635345562.89239,1635345562.89446,1635345564.99318,1635345571.1288,1635345571.13044,1635345571.91417,1635345571.91242,1635345831.84269,0
88,4,1,3,20,1,4,c4_HowHand,1,reaching?,111,H_003.jpg,1635345224.60769,1635345224.61739,344.628094902039,12.3641772270203,356.99937461853,359.10015868187,2.10078406333923,359.250215044022,0.700260639190674,359.954380979538,1,left,0.684664964675903,359.950475683212,604.474998226166,607.234998226166,1635345571.99579,1635345572.00504,1635345584.36707,1635345584.37258,1635345586.46785,1635345586.61791,1635345586.62246,1635345587.32207,1635345587.31817,1635345831.84269,1
88,4,1,3,20,2,4,c4_HowHand,1,reaching?,110,H_364.jpg,1635345224.60769,1635345224.61739,344.628094902039,12.3641772270203,356.99937461853,359.10015868187,0.3,360.267260065079,0.716934442520142,360.987251033783,1,left,0.706370115280151,360.984194507599,604.474998226166,607.234998226166,1635345571.99579,1635345572.00504,1635345584.36707,1635345584.37258,1635345586.46785,1635345587.63495,1635345587.63897,1635345588.35494,1635345588.35189,1635345831.84269,1
88,4,1,3,20,3,4,c4_HowHand,2,reaching?,108,H_532.jpg,1635345224.60769,1635345224.61739,344.628094902039,12.3641772270203,356.99937461853,359.10015868187,0.3,361.300979127884,0.633569717407227,361.937298049927,3,right,0.621119022369385,361.934548845291,604.474998226166,607.234998226166,1635345571.99579,1635345572.00504,1635345584.36707,1635345584.37258,1635345586.46785,1635345588.66867,1635345588.67219,1635345589.30499,1635345589.30224,1635345831.84269,0
88,4,1,3,20,4,4,c4_HowHand,1,reaching?,106,H_006.jpg,1635345224.60769,1635345224.61739,344.628094902039,12.3641772270203,356.99937461853,359.10015868187,0.3,362.251333465576,0.733607292175293,362.987497081757,1,left,0.713183879852295,362.984940757751,604.474998226166,607.234998226166,1635345571.99579,1635345572.00504,1635345584.36707,1635345584.37258,1635345586.46785,1635345589.61903,1635345589.62237,1635345590.35519,1635345590.35263,1635345831.84269,1
88,4,1,3,20,5,4,c4_HowHand,2,reaching?,105,H_438.jpg,1635345224.60769,1635345224.61739,344.628094902039,12.3641772270203,356.99937461853,359.10015868187,0.3,363.301725616455,0.716933488845825,364.021160116196,3,right,0.704348802566528,364.018659105301,604.474998226166,607.234998226166,1635345571.99579,1635345572.00504,1635345584.36707,1635345584.37258,1635345586.46785,1635345590.66942,1635345590.67209,1635345591.38885,1635345591.38635,1635345831.84269,0
88,4,1,3,20,6,4,c4_HowHand,1,reaching?,107,H_007.jpg,1635345224.60769,1635345224.61739,344.628094902039,12.3641772270203,356.99937461853,359.10015868187,0.3,364.335445394516,0.766951322555542,365.104792108536,1,left,0.743959903717041,365.102396717072,604.474998226166,607.234998226166,1635345571.99579,1635345572.00504,1635345584.36707,1635345584.37258,1635345586.46785,1635345591.70314,1635345591.70571,1635345592.47249,1635345592.47009,1635345831.84269,1
88,4,1,3,20,7,4,c4_HowHand,1,reaching?,109,H_474.jpg,1635345224.60769,1635345224.61739,344.628094902039,12.3641772270203,356.99937461853,359.10015868187,0.3,365.419181098938,0.68358850479126,366.104874124527,1,left,0.66617488861084,366.102769603729,604.474998226166,607.234998226166,1635345571.99579,1635345572.00504,1635345584.36707,1635345584.37258,1635345586.46785,1635345592.78688,1635345592.78899,1635345593.47257,1635345593.47046,1635345831.84269,1
88,4,1,3,20,8,4,c4_HowHand,2,reaching?,112,H_132.jpg,1635345224.60769,1635345224.61739,344.628094902039,12.3641772270203,356.99937461853,359.10015868187,0.3,366.41955493927,0.650242567062378,367.070937147141,3,right,0.635005950927734,367.069797506332,604.474998226166,607.234998226166,1635345571.99579,1635345572.00504,1635345584.36707,1635345584.37258,1635345586.46785,1635345593.78725,1635345593.78926,1635345594.43863,1635345594.43749,1635345831.84269,0
88,4,1,3,21,1,3,c3_HowFace,1,open mouth?,73,F_403.jpg,1635345224.60769,1635345224.61739,367.15316151619,7.678870677948,374.839361658096,376.94014500618,2.1007833480835,377.090200653076,0.450168132781982,377.554033031464,1,left,0.442502021789551,377.540368785858,604.474998226166,607.234998226166,1635345594.52086,1635345594.52185,1635345602.20706,1635345602.2086,1635345604.30784,1635345604.45789,1635345604.45935,1635345604.92173,1635345604.90806,1635345831.84269,1
88,4,1,3,21,2,3,c3_HowFace,2,open mouth?,79,F_648.jpg,1635345224.60769,1635345224.61739,367.15316151619,7.678870677948,374.839361658096,376.94014500618,0.3,377.85715388298,0.583550453186035,378.454554071426,3,right,0.576021909713745,378.440704336166,604.474998226166,607.234998226166,1635345594.52086,1635345594.52185,1635345602.20706,1635345602.2086,1635345604.30784,1635345605.22485,1635345605.22646,1635345605.82225,1635345605.8084,1635345831.84269,0
88,4,1,3,21,3,3,c3_HowFace,1,open mouth?,74,F_776.jpg,1635345224.60769,1635345224.61739,367.15316151619,7.678870677948,374.839361658096,376.94014500618,0.3,378.757489671707,0.450168132781982,379.209207048416,1,left,0.434698104858398,379.207657804489,604.474998226166,607.234998226166,1635345594.52086,1635345594.52185,1635345602.20706,1635345602.2086,1635345604.30784,1635345606.12518,1635345606.12691,1635345606.5769,1635345606.57535,1635345831.84269,1
88,4,1,3,21,4,3,c3_HowFace,2,open mouth?,77,F_584.jpg,1635345224.60769,1635345224.61739,367.15316151619,7.678870677948,374.839361658096,376.94014500618,0.3,379.5244414711,0.583550930023193,380.120808115006,3,right,0.573320150375366,380.107992401123,604.474998226166,607.234998226166,1635345594.52086,1635345594.52185,1635345602.20706,1635345602.2086,1635345604.30784,1635345606.89214,1635345606.89424,1635345607.4885,1635345607.47569,1635345831.84269,0
88,4,1,3,21,5,3,c3_HowFace,1,open mouth?,80,F_844.jpg,1635345224.60769,1635345224.61739,367.15316151619,7.678870677948,374.839361658096,376.94014500618,0.3,380.424777975082,0.466840744018555,380.892734994888,1,left,0.450286865234375,380.891618719101,604.474998226166,607.234998226166,1635345594.52086,1635345594.52185,1635345602.20706,1635345602.2086,1635345604.30784,1635345607.79247,1635345607.79419,1635345608.26043,1635345608.25931,1635345831.84269,1
88,4,1,3,21,6,3,c3_HowFace,1,open mouth?,78,F_692.jpg,1635345224.60769,1635345224.61739,367.15316151619,7.678870677948,374.839361658096,376.94014500618,0.3,381.208404054642,0.416821718215942,381.626728048325,1,left,0.401273965835571,381.625225772858,604.474998226166,607.234998226166,1635345594.52086,1635345594.52185,1635345602.20706,1635345602.2086,1635345604.30784,1635345608.5761,1635345608.57793,1635345608.99442,1635345608.99292,1635345831.84269,1
88,4,1,3,21,7,3,c3_HowFace,1,open mouth?,75,F_086.jpg,1635345224.60769,1635345224.61739,367.15316151619,7.678870677948,374.839361658096,376.94014500618,0.3,381.942009916306,0.466840982437134,382.420747032166,1,left,0.454376935958862,382.408850898743,604.474998226166,607.234998226166,1635345594.52086,1635345594.52185,1635345602.20706,1635345602.2086,1635345604.30784,1635345609.3097,1635345609.31161,1635345609.78844,1635345609.77654,1635345831.84269,1
88,4,1,3,21,8,3,c3_HowFace,2,open mouth?,76,F_544.jpg,1635345224.60769,1635345224.61739,367.15316151619,7.678870677948,374.839361658096,376.94014500618,0.3,382.725635995865,0.466840505599976,383.204434146881,3,right,0.454674959182739,383.192476501465,604.474998226166,607.234998226166,1635345594.52086,1635345594.52185,1635345602.20706,1635345602.2086,1635345604.30784,1635345610.09333,1635345610.09521,1635345610.57213,1635345610.56017,1635345831.84269,0
88,4,1,3,22,1,1,c1_WhyFace,1,argument?,42,F_403.jpg,1635345224.60769,1635345224.61739,383.292513360977,10.2154397964478,393.512991657257,395.613775720596,2.10078406333923,395.76383184433,0.450166463851929,396.221432199478,1,left,0.426900863647461,396.213998308182,604.474998226166,607.234998226166,1635345610.66021,1635345610.6618,1635345620.88069,1635345620.88926,1635345622.98147,1635345623.13153,1635345623.13907,1635345623.58913,1635345623.58169,1635345831.84269,1
88,4,1,3,22,2,1,c1_WhyFace,2,argument?,46,F_844.jpg,1635345224.60769,1635345224.61739,383.292513360977,10.2154397964478,393.512991657257,395.613775720596,0.3,396.53078412056,0.516859769821167,397.054908027649,3,right,0.505360841751099,397.047643890381,604.474998226166,607.234998226166,1635345610.66021,1635345610.6618,1635345620.88069,1635345620.88926,1635345622.98147,1635345623.89848,1635345623.90032,1635345624.4226,1635345624.41534,1635345831.84269,0
88,4,1,3,22,3,1,c1_WhyFace,1,argument?,41,F_712.jpg,1635345224.60769,1635345224.61739,383.292513360977,10.2154397964478,393.512991657257,395.613775720596,0.3,397.364427318573,0.733607769012451,398.104145040512,1,left,0.722041130065918,398.098035087585,604.474998226166,607.234998226166,1635345610.66021,1635345610.6618,1635345620.88069,1635345620.88926,1635345622.98147,1635345624.73212,1635345624.73428,1635345625.47184,1635345625.46573,1635345831.84269,1
88,4,1,3,22,4,1,c1_WhyFace,1,argument?,48,F_758.jpg,1635345224.60769,1635345224.61739,383.292513360977,10.2154397964478,393.512991657257,395.613775720596,0.3,398.41481970787,0.800298452377319,399.220748176575,1,left,0.787127017974854,399.215118160248,604.474998226166,607.234998226166,1635345610.66021,1635345610.6618,1635345620.88069,1635345620.88926,1635345622.98147,1635345625.78251,1635345625.78442,1635345626.58844,1635345626.58281,1635345831.84269,1
88,4,1,3,22,5,1,c1_WhyFace,2,argument?,45,F_433.jpg,1635345224.60769,1635345224.61739,383.292513360977,10.2154397964478,393.512991657257,395.613775720596,0.3,399.531902303696,0.550206899642944,400.08373998642,3,right,0.52921199798584,400.082109203339,604.474998226166,607.234998226166,1635345610.66021,1635345610.6618,1635345620.88069,1635345620.88926,1635345622.98147,1635345626.8996,1635345626.90099,1635345627.45143,1635345627.4498,1635345831.84269,0
88,4,1,3,22,6,1,c1_WhyFace,1,argument?,43,F_716.jpg,1635345224.60769,1635345224.61739,383.292513360977,10.2154397964478,393.512991657257,395.613775720596,0.3,400.398894062042,0.783624887466431,401.183864107132,1,left,0.762050867080688,401.182518949509,604.474998226166,607.234998226166,1635345610.66021,1635345610.6618,1635345620.88069,1635345620.88926,1635345622.98147,1635345627.76659,1635345627.76817,1635345628.55156,1635345628.55021,1635345831.84269,1
88,4,1,3,22,7,1,c1_WhyFace,2,argument?,44,F_139.jpg,1635345224.60769,1635345224.61739,383.292513360977,10.2154397964478,393.512991657257,395.613775720596,0.3,401.499303808212,0.683588027954102,402.184570064545,3,right,0.660520076751709,402.182891836166,604.474998226166,607.234998226166,1635345610.66021,1635345610.6618,1635345620.88069,1635345620.88926,1635345622.98147,1635345628.867,1635345628.86876,1635345629.55226,1635345629.55059,1635345831.84269,0
88,4,1,3,22,8,1,c1_WhyFace,1,argument?,47,F_743.jpg,1635345224.60769,1635345224.61739,383.292513360977,10.2154397964478,393.512991657257,395.613775720596,0.3,402.499676456451,0.750279903411865,403.254464139938,1,left,0.731116056442261,403.249956359863,604.474998226166,607.234998226166,1635345610.66021,1635345610.6618,1635345620.88069,1635345620.88926,1635345622.98147,1635345629.86737,1635345629.86917,1635345630.62216,1635345630.61765,1635345831.84269,1
88,4,1,3,23,1,2,c2_WhyHand,1,helping?,39,H_024.jpg,1635345224.60769,1635345224.61739,403.333320846558,8.39464330673218,411.73645614624,413.837237825394,2.10078167915344,413.987293949127,0.783626079559326,414.772284021378,1,left,0.767486810684204,414.770920028687,604.474998226166,607.234998226166,1635345630.70101,1635345630.70559,1635345639.10415,1635345639.10606,1635345641.20493,1635345641.35499,1635345641.35681,1635345642.13998,1635345642.13861,1635345831.84269,1
88,4,1,3,23,2,2,c2_WhyHand,1,helping?,36,H_349.jpg,1635345224.60769,1635345224.61739,403.333320846558,8.39464330673218,411.73645614624,413.837237825394,0.3,415.087704648972,0.550204038619995,415.639794101715,1,left,0.529785871505737,415.637908687592,604.474998226166,607.234998226166,1635345630.70101,1635345630.70559,1635345639.10415,1635345639.10606,1635345641.20493,1635345642.4554,1635345642.45709,1635345643.00749,1635345643.0056,1635345831.84269,1
88,4,1,3,23,3,2,c2_WhyHand,1,helping?,38,H_077.jpg,1635345224.60769,1635345224.61739,403.333320846558,8.39464330673218,411.73645614624,413.837237825394,0.3,415.954694976807,0.550204992294312,416.506262054443,1,left,0.529742956161499,416.504899969101,604.474998226166,607.234998226166,1635345630.70101,1635345630.70559,1635345639.10415,1635345639.10606,1635345641.20493,1635345643.32239,1635345643.32437,1635345643.87396,1635345643.87259,1635345831.84269,1
88,4,1,3,23,4,2,c2_WhyHand,1,helping?,37,H_474.jpg,1635345224.60769,1635345224.61739,403.333320846558,8.39464330673218,411.73645614624,413.837237825394,0.3,416.821683635712,0.816972017288208,417.640043010712,1,left,0.798692941665649,417.638655653,604.474998226166,607.234998226166,1635345630.70101,1635345630.70559,1635345639.10415,1635345639.10606,1635345641.20493,1635345644.18938,1635345644.1911,1635345645.00774,1635345645.00635,1635345831.84269,1
88,4,1,3,23,5,2,c2_WhyHand,2,helping?,33,H_091.jpg,1635345224.60769,1635345224.61739,403.333320846558,8.39464330673218,411.73645614624,413.837237825394,0.3,417.955441703796,0.750278234481812,418.720776071548,3,right,0.74303412437439,418.705719938278,604.474998226166,607.234998226166,1635345630.70101,1635345630.70559,1635345639.10415,1635345639.10606,1635345641.20493,1635345645.32314,1635345645.32516,1635345646.08847,1635345646.07341,1635345831.84269,0
88,4,1,3,23,6,2,c2_WhyHand,2,helping?,35,H_159.jpg,1635345224.60769,1635345224.61739,403.333320846558,8.39464330673218,411.73645614624,413.837237825394,0.3,419.022505989075,0.666914463043213,419.704065074921,3,right,0.659233093261719,419.689420452118,604.474998226166,607.234998226166,1635345630.70101,1635345630.70559,1635345639.10415,1635345639.10606,1635345641.20493,1635345646.3902,1635345646.39195,1635345647.07176,1635345647.05711,1635345831.84269,0
88,4,1,3,23,7,2,c2_WhyHand,1,helping?,34,H_111.jpg,1635345224.60769,1635345224.61739,403.333320846558,8.39464330673218,411.73645614624,413.837237825394,0.3,420.006204833984,0.533532619476318,420.540847053528,1,left,0.516079902648926,420.539737453461,604.474998226166,607.234998226166,1635345630.70101,1635345630.70559,1635345639.10415,1635345639.10606,1635345641.20493,1635345647.3739,1635345647.37549,1635345647.90854,1635345647.90743,1635345831.84269,1
88,4,1,3,23,8,2,c2_WhyHand,2,helping?,40,H_012.jpg,1635345224.60769,1635345224.61739,403.333320846558,8.39464330673218,411.73645614624,413.837237825394,0.3,420.856521596909,0.816971778869629,421.687978019714,3,right,0.809977054595947,421.673493375778,604.474998226166,607.234998226166,1635345630.70101,1635345630.70559,1635345639.10415,1635345639.10606,1635345641.20493,1635345648.22422,1635345648.22622,1635345649.05567,1635345649.04119,1635345831.84269,0
88,4,1,3,24,1,4,c4_HowHand,1,both hands?,122,H_111.jpg,1635345224.60769,1635345224.61739,421.773530712128,8.02442646026611,429.809862127304,431.910644760132,2.10078263282776,432.060700407028,0.733607769012451,432.795452108383,1,left,0.717090129852295,432.794308176041,604.474998226166,607.234998226166,1635345649.14122,1635345649.14286,1635345657.17756,1635345657.17937,1635345659.27834,1635345659.42839,1635345659.43026,1635345660.16315,1635345660.162,1635345831.84269,1
88,4,1,3,24,2,4,c4_HowHand,1,both hands?,128,H_027.jpg,1635345224.60769,1635345224.61739,421.773530712128,8.02442646026611,429.809862127304,431.910644760132,0.3,433.111091365814,0.633570432662964,433.754037132263,1,left,0.625717163085938,433.744661798477,604.474998226166,607.234998226166,1635345649.14122,1635345649.14286,1635345657.17756,1635345657.17937,1635345659.27834,1635345660.47879,1635345660.48082,1635345661.12173,1635345661.11236,1635345831.84269,1
88,4,1,3,24,3,4,c4_HowHand,2,both hands?,121,H_091.jpg,1635345224.60769,1635345224.61739,421.773530712128,8.02442646026611,429.809862127304,431.910644760132,0.3,434.061446895599,0.566877841949463,434.629415979385,3,right,0.548906803131104,434.628324737549,604.474998226166,607.234998226166,1635345649.14122,1635345649.14286,1635345657.17756,1635345657.17937,1635345659.27834,1635345661.42914,1635345661.431,1635345661.99711,1635345661.99602,1635345831.84269,0
88,4,1,3,24,4,4,c4_HowHand,1,both hands?,123,H_167.jpg,1635345224.60769,1635345224.61739,421.773530712128,8.02442646026611,429.809862127304,431.910644760132,0.3,434.94511007309,0.633569240570068,435.580377092361,1,left,0.616224050521851,435.57867931366,604.474998226166,607.234998226166,1635345649.14122,1635345649.14286,1635345657.17756,1635345657.17937,1635345659.27834,1635345662.3128,1635345662.31448,1635345662.94807,1635345662.94637,1635345831.84269,1
88,4,1,3,24,5,4,c4_HowHand,1,both hands?,124,H_581.jpg,1635345224.60769,1635345224.61739,421.773530712128,8.02442646026611,429.809862127304,431.910644760132,0.3,435.895463218689,0.733607292175293,436.63017701149,1,left,0.711323976516724,436.629070510864,604.474998226166,607.234998226166,1635345649.14122,1635345649.14286,1635345657.17756,1635345657.17937,1635345659.27834,1635345663.26316,1635345663.26508,1635345663.99787,1635345663.99676,1635345831.84269,1
88,4,1,3,24,6,4,c4_HowHand,2,both hands?,126,H_159.jpg,1635345224.60769,1635345224.61739,421.773530712128,8.02442646026611,429.809862127304,431.910644760132,0.3,436.945856084824,0.516858577728271,437.470787038803,3,right,0.500664949417114,437.462714662552,604.474998226166,607.234998226166,1635345649.14122,1635345649.14286,1635345657.17756,1635345657.17937,1635345659.27834,1635345664.31355,1635345664.31537,1635345664.83848,1635345664.83041,1635345831.84269,0
88,4,1,3,24,7,4,c4_HowHand,1,both hands?,127,H_349.jpg,1635345224.60769,1635345224.61739,421.773530712128,8.02442646026611,429.809862127304,431.910644760132,0.3,437.779499998093,0.483513832092285,438.264739980698,1,left,0.465565919876099,438.263013830185,604.474998226166,607.234998226166,1635345649.14122,1635345649.14286,1635345657.17756,1635345657.17937,1635345659.27834,1635345665.14719,1635345665.14899,1635345665.63243,1635345665.63071,1635345831.84269,1
88,4,1,3,24,8,4,c4_HowHand,2,both hands?,125,H_627.jpg,1635345224.60769,1635345224.61739,421.773530712128,8.02442646026611,429.809862127304,431.910644760132,0.3,438.579798688889,0.550204992294312,439.137418022156,3,right,0.533444166183472,439.130003681183,604.474998226166,607.234998226166,1635345649.14122,1635345649.14286,1635345657.17756,1635345657.17937,1635345659.27834,1635345665.94749,1635345665.94917,1635345666.50511,1635345666.4977,1635345831.84269,0
88,4,1,3,25,1,2,c2_WhyHand,1,healthy?,18,H_438.jpg,1635345224.60769,1635345224.61739,439.213367452621,8.10160255432129,447.333062400818,449.417172899246,2.08411049842834,449.583901634216,0.600224256515503,450.188158979416,1,left,0.582391977310181,450.184125890732,604.474998226166,607.234998226166,1635345666.58106,1635345666.58211,1635345674.70076,1635345674.70261,1635345676.78487,1635345676.9516,1635345676.95375,1635345677.55585,1635345677.55182,1635345831.84269,1
88,4,1,3,25,2,2,c2_WhyHand,1,healthy?,23,H_364.jpg,1635345224.60769,1635345224.61739,439.213367452621,8.10160255432129,447.333062400818,449.417172899246,0.3,450.500911226273,0.666914701461792,451.170796146393,1,left,0.651151895523071,451.167825927734,604.474998226166,607.234998226166,1635345666.58106,1635345666.58211,1635345674.70076,1635345674.70261,1635345676.78487,1635345677.86861,1635345677.87243,1635345678.53849,1635345678.53552,1635345831.84269,1
88,4,1,3,25,3,2,c2_WhyHand,1,healthy?,17,H_362.jpg,1635345224.60769,1635345224.61739,439.213367452621,8.10160255432129,447.333062400818,449.417172899246,0.3,451.484613170624,0.616894483566284,452.104658117294,1,left,0.603614807128906,452.10150765419,604.474998226166,607.234998226166,1635345666.58106,1635345666.58211,1635345674.70076,1635345674.70261,1635345676.78487,1635345678.85231,1635345678.85564,1635345679.47235,1635345679.4692,1635345831.84269,1
88,4,1,3,25,4,2,c2_WhyHand,2,healthy?,24,H_019.jpg,1635345224.60769,1635345224.61739,439.213367452621,8.10160255432129,447.333062400818,449.417172899246,0.3,452.418292512894,0.850317716598511,453.271147003174,3,right,0.829766988754272,453.268610229492,604.474998226166,607.234998226166,1635345666.58106,1635345666.58211,1635345674.70076,1635345674.70261,1635345676.78487,1635345679.78599,1635345679.78913,1635345680.63884,1635345680.6363,1635345831.84269,0
88,4,1,3,25,5,2,c2_WhyHand,1,healthy?,19,H_167.jpg,1635345224.60769,1635345224.61739,439.213367452621,8.10160255432129,447.333062400818,449.417172899246,0.3,453.585393657684,0.483513832092285,454.070742120743,1,left,0.466733932495117,454.068907489777,604.474998226166,607.234998226166,1635345666.58106,1635345666.58211,1635345674.70076,1635345674.70261,1635345676.78487,1635345680.95309,1635345680.9558,1635345681.43844,1635345681.4366,1635345831.84269,1
88,4,1,3,25,6,2,c2_WhyHand,2,healthy?,20,H_007.jpg,1635345224.60769,1635345224.61739,439.213367452621,8.10160255432129,447.333062400818,449.417172899246,0.3,454.385692586899,0.616897344589233,455.004764070511,3,right,0.604410886764526,455.002589931488,604.474998226166,607.234998226166,1635345666.58106,1635345666.58211,1635345674.70076,1635345674.70261,1635345676.78487,1635345681.75339,1635345681.7556,1635345682.37246,1635345682.37028,1635345831.84269,0
88,4,1,3,25,7,2,c2_WhyHand,1,healthy?,21,H_627.jpg,1635345224.60769,1635345224.61739,439.213367452621,8.10160255432129,447.333062400818,449.417172899246,0.3,455.319374551773,0.716933488845825,456.037363042831,3,right,0.708604097366333,456.036308040619,604.474998226166,607.234998226166,1635345666.58106,1635345666.58211,1635345674.70076,1635345674.70261,1635345676.78487,1635345682.68707,1635345682.68911,1635345683.40506,1635345683.404,1635345831.84269,0
88,4,1,3,25,8,2,c2_WhyHand,2,healthy?,22,H_130.jpg,1635345224.60769,1635345224.61739,439.213367452621,8.10160255432129,447.333062400818,449.417172899246,0.3,456.353093852997,0.700261354446411,457.05449508667,3,right,0.686897993087769,457.053355207443,604.474998226166,607.234998226166,1635345666.58106,1635345666.58211,1635345674.70076,1635345674.70261,1635345676.78487,1635345683.72079,1635345683.72231,1635345684.42219,1635345684.42105,1635345831.84269,0
88,4,1,3,26,1,4,c4_HowHand,1,pressing button?,82,H_126.jpg,1635345224.60769,1635345224.61739,457.136718502045,9.23224759101868,466.373496761322,468.474279632568,2.10078287124634,468.624335517883,0.566878318786621,469.204176177979,1,left,0.544291019439697,469.19121383667,604.474998226166,607.234998226166,1635345684.50441,1635345684.50613,1635345693.74119,1635345693.75591,1635345695.84197,1635345695.99203,1635345696.00648,1635345696.57187,1635345696.55891,1635345831.84269,1
88,4,1,3,26,2,4,c4_HowHand,2,pressing button?,85,H_130.jpg,1635345224.60769,1635345224.61739,457.136718502045,9.23224759101868,466.373496761322,468.474279632568,0.3,469.507998456955,0.583550691604614,470.092640151978,3,right,0.558968067169189,470.09154914856,604.474998226166,607.234998226166,1635345684.50441,1635345684.50613,1635345693.74119,1635345693.75591,1635345695.84197,1635345696.87569,1635345696.87733,1635345697.46033,1635345697.45924,1635345831.84269,0
88,4,1,3,26,3,4,c4_HowHand,1,pressing button?,84,H_483.jpg,1635345224.60769,1635345224.61739,457.136718502045,9.23224759101868,466.373496761322,468.474279632568,0.3,470.408334722519,0.616896152496338,471.037486066818,1,left,0.604773998260498,471.025230875015,604.474998226166,607.234998226166,1635345684.50441,1635345684.50613,1635345693.74119,1635345693.75591,1635345695.84197,1635345697.77603,1635345697.77777,1635345698.40518,1635345698.39292,1635345831.84269,1
88,4,1,3,26,4,4,c4_HowHand,2,pressing button?,87,H_024.jpg,1635345224.60769,1635345224.61739,457.136718502045,9.23224759101868,466.373496761322,468.474279632568,0.3,471.342016687393,0.616896152496338,471.959913005829,3,right,0.601330041885376,471.95891283989,604.474998226166,607.234998226166,1635345684.50441,1635345684.50613,1635345693.74119,1635345693.75591,1635345695.84197,1635345698.70971,1635345698.71146,1635345699.32761,1635345699.32661,1635345831.84269,0
88,4,1,3,26,5,4,c4_HowHand,1,pressing button?,86,H_332.jpg,1635345224.60769,1635345224.61739,457.136718502045,9.23224759101868,466.373496761322,468.474279632568,0.3,472.275697937012,0.533531665802002,472.810327997208,1,left,0.514890193939209,472.809229602814,604.474998226166,607.234998226166,1635345684.50441,1635345684.50613,1635345693.74119,1635345693.75591,1635345695.84197,1635345699.64339,1635345699.64535,1635345700.17802,1635345700.17692,1635345831.84269,1
88,4,1,3,26,6,4,c4_HowHand,1,pressing button?,88,H_019.jpg,1635345224.60769,1635345224.61739,457.136718502045,9.23224759101868,466.373496761322,468.474279632568,0.3,473.126014938355,0.56687593460083,473.693916072845,1,left,0.551311016082764,473.692890872955,604.474998226166,607.234998226166,1635345684.50441,1635345684.50613,1635345693.74119,1635345693.75591,1635345695.84197,1635345700.49371,1635345700.4952,1635345701.06161,1635345701.06058,1635345831.84269,1
88,4,1,3,26,7,4,c4_HowHand,2,pressing button?,81,H_261.jpg,1635345224.60769,1635345224.61739,457.136718502045,9.23224759101868,466.373496761322,468.474279632568,0.3,474.009677639008,0.650241851806641,474.661048164368,3,right,0.635266065597534,474.659919490814,604.474998226166,607.234998226166,1635345684.50441,1635345684.50613,1635345693.74119,1635345693.75591,1635345695.84197,1635345701.37737,1635345701.37924,1635345702.02874,1635345702.02761,1635345831.84269,0
88,4,1,3,26,8,4,c4_HowHand,1,pressing button?,83,H_502.jpg,1635345224.60769,1635345224.61739,457.136718502045,9.23224759101868,466.373496761322,468.474279632568,0.3,474.976704587936,0.500185966491699,475.487973203659,1,left,0.492902994155884,475.476890554428,604.474998226166,607.234998226166,1635345684.50441,1635345684.50613,1635345693.74119,1635345693.75591,1635345695.84197,1635345702.3444,1635345702.34646,1635345702.85567,1635345702.84458,1635345831.84269,1
88,4,1,3,27,1,3,c3_HowFace,1,looking at camera?,60,F_618.jpg,1635345224.60769,1635345224.61739,475.576928367615,8.32204079627991,483.913370599747,486.014154424667,2.10078382492065,486.164210071564,0.500186920166016,486.671401014328,1,left,0.4859619140625,486.66439699173,604.474998226166,607.234998226166,1635345702.94462,1635345702.94575,1635345711.28106,1635345711.28289,1635345713.38185,1635345713.5319,1635345713.53438,1635345714.03909,1635345714.03209,1635345831.84269,1
88,4,1,3,27,2,3,c3_HowFace,2,looking at camera?,58,F_754.jpg,1635345224.60769,1635345224.61739,475.576928367615,8.32204079627991,483.913370599747,486.014154424667,0.3,486.981181373596,0.550204992294312,487.532385101318,3,right,0.528861999511719,487.531386365891,604.474998226166,607.234998226166,1635345702.94462,1635345702.94575,1635345711.28106,1635345711.28289,1635345713.38185,1635345714.34888,1635345714.35079,1635345714.90008,1635345714.89908,1635345831.84269,0
88,4,1,3,27,3,3,c3_HowFace,1,looking at camera?,59,F_129.jpg,1635345224.60769,1635345224.61739,475.576928367615,8.32204079627991,483.913370599747,486.014154424667,0.3,487.848171224594,0.666915416717529,488.516385068893,1,left,0.645773887634277,488.515086641312,604.474998226166,607.234998226166,1635345702.94462,1635345702.94575,1635345711.28106,1635345711.28289,1635345713.38185,1635345715.21587,1635345715.21738,1635345715.88408,1635345715.88278,1635345831.84269,1
88,4,1,3,27,4,3,c3_HowFace,1,looking at camera?,62,F_598.jpg,1635345224.60769,1635345224.61739,475.576928367615,8.32204079627991,483.913370599747,486.014154424667,0.3,488.831872215271,0.816970586776733,489.650379171371,1,left,0.796957969665527,489.648842802048,604.474998226166,607.234998226166,1635345702.94462,1635345702.94575,1635345711.28106,1635345711.28289,1635345713.38185,1635345716.19957,1635345716.20131,1635345717.01807,1635345717.01654,1635345831.84269,1
88,4,1,3,27,5,3,c3_HowFace,1,looking at camera?,64,F_128.jpg,1635345224.60769,1635345224.61739,475.576928367615,8.32204079627991,483.913370599747,486.014154424667,0.3,489.96562789917,0.633569717407227,490.603988161087,1,left,0.622532844543457,490.599197616577,604.474998226166,607.234998226166,1635345702.94462,1635345702.94575,1635345711.28106,1635345711.28289,1635345713.38185,1635345717.33332,1635345717.33489,1635345717.97168,1635345717.96689,1635345831.84269,1
88,4,1,3,27,6,3,c3_HowFace,2,looking at camera?,57,F_582.jpg,1635345224.60769,1635345224.61739,475.576928367615,8.32204079627991,483.913370599747,486.014154424667,0.3,490.915983190537,0.466840505599976,491.38773106575,3,right,0.456562995910645,491.382823696136,604.474998226166,607.234998226166,1635345702.94462,1635345702.94575,1635345711.28106,1635345711.28289,1635345713.38185,1635345718.28368,1635345718.28538,1635345718.75542,1635345718.75052,1635345831.84269,0
88,4,1,3,27,7,3,c3_HowFace,1,looking at camera?,61,F_774.jpg,1635345224.60769,1635345224.61739,475.576928367615,8.32204079627991,483.913370599747,486.014154424667,0.3,491.699607839584,0.53353214263916,492.234739055634,1,left,0.508490800857544,492.233139982224,604.474998226166,607.234998226166,1635345702.94462,1635345702.94575,1635345711.28106,1635345711.28289,1635345713.38185,1635345719.0673,1635345719.07242,1635345719.60243,1635345719.60083,1635345831.84269,1
