onset	duration	trial_type	pmod_accuracy
17.4536075592041	0.2	cue_valid	1
20.4213805198669	0.2	cue_valid	1
23.5892279148102	0.2	cue_valid	1
28.3910191059113	0.2	cue_valid	1
38.828245639801	0.2	cue_valid	1
42.2962045669556	0.2	cue_valid	1
45.6641275882721	0.2	cue_valid	1
50.4325726032257	0.2	cue_valid	1
53.7004578113556	0.2	cue_valid	1
60.9364902973175	0.2	cue_valid	1
64.0043003559113	0.2	cue_valid	1
67.2721872329712	0.2	cue_valid	1
70.8401839733124	0.2	cue_valid	1
78.0095233917236	0.2	cue_valid	1
82.4778563976288	0.2	cue_valid	1
91.8480174541473	0.2	cue_valid	1
96.616462469101	0.2	cue_valid	1
110.121498346329	0.2	cue_valid	1
120.658761739731	0.2	cue_valid	1
128.695091485977	0.2	cue_valid	1
137.364991426468	0.2	cue_valid	1
142.433548688889	0.2	cue_valid	1
149.903000831604	0.2	cue_valid	1
161.507328748703	0.2	cue_valid	1
184.582600593567	0.2	cue_valid	1
187.650410890579	0.2	cue_valid	1
194.719713449478	0.2	cue_valid	1
229.2659304142	0.2	cue_valid	1
236.235195636749	0.2	cue_valid	1
242.770966529846	0.2	cue_valid	1
261.744708061218	0.2	cue_valid	1
272.348663330078	0.2	cue_valid	1
277.717331886292	0.2	cue_valid	1
285.186784982681	0.2	cue_valid	1
289.455042362213	0.2	cue_valid	1
294.723675489426	0.2	cue_valid	1
304.093834400177	0.2	cue_valid	1
310.262802839279	0.2	cue_valid	1
328.536283493042	0.2	cue_valid	1
335.0053627491	0.2	cue_valid	1
342.474815368652	0.2	cue_valid	1
349.444080591202	0.2	cue_valid	1
352.912040710449	0.2	cue_valid	1
357.880559206009	0.2	cue_valid	1
378.25482416153	0.2	cue_valid	1
382.022896528244	0.2	cue_valid	1
385.290782690048	0.2	cue_valid	1
392.760234117508	0.2	cue_valid	1
408.065941572189	0.2	cue_valid	1
416.202309846878	0.2	cue_valid	1
419.653596401215	0.2	cue_valid	1
436.259789943695	0.2	cue_valid	1
439.42763710022	0.2	cue_valid	1
444.696268320084	0.2	cue_valid	1
452.165720939636	0.2	cue_valid	1
458.701491355896	0.2	cue_valid	1
470.439203023911	0.2	cue_valid	1
477.908654212952	0.2	cue_valid	1
481.476651906967	0.2	cue_valid	1
489.71305680275	0.2	cue_valid	1
493.381092071533	0.2	cue_valid	1
505.485605716705	0.2	cue_valid	1
508.95356464386	0.2	cue_valid	1
522.892096757889	0.2	cue_valid	1
530.36154794693	0.2	cue_valid	1
541.499035596848	0.2	cue_valid	1
557.971845388412	0.2	cue_valid	1
567.175277709961	0.2	cue_valid	1
571.143424987793	0.2	cue_valid	1
575.911868810654	0.2	cue_valid	1
584.648459672928	0.2	cue_valid	1
599.587364673615	0.2	cue_valid	1
9.96748304367065	0.2	cue_invalid	1
14.3691236972809	0.2	cue_invalid	1
31.3587925434113	0.2	cue_invalid	1
57.5685667991638	0.2	cue_invalid	1
101.584982156754	0.2	cue_invalid	1
105.55312871933	0.2	cue_invalid	1
117.590950489044	0.2	cue_invalid	1
123.726572751999	0.2	cue_invalid	1
153.571034431458	0.2	cue_invalid	1
156.538808822632	0.2	cue_invalid	1
168.776705741882	0.2	cue_invalid	1
172.644814968109	0.2	cue_invalid	1
181.014602184296	0.2	cue_invalid	1
202.189166545868	0.2	cue_invalid	1
207.357760190964	0.2	cue_invalid	1
214.827212095261	0.2	cue_invalid	1
224.197373628616	0.2	cue_invalid	1
239.503080844879	0.2	cue_invalid	1
246.338963508606	0.2	cue_invalid	1
249.706886768341	0.2	cue_invalid	1
254.675405979156	0.2	cue_invalid	1
264.912556648254	0.2	cue_invalid	1
268.280479431152	0.2	cue_invalid	1
313.530687332153	0.2	cue_invalid	1
318.199095487595	0.2	cue_invalid	1
321.667055845261	0.2	cue_invalid	1
361.548593997955	0.2	cue_invalid	1
369.718307495117	0.2	cue_invalid	1
372.686081409454	0.2	cue_invalid	1
395.728007555008	0.2	cue_invalid	1
401.596861839294	0.2	cue_invalid	1
412.734349489212	0.2	cue_invalid	1
424.422041416168	0.2	cue_invalid	1
430.991158246994	0.2	cue_invalid	1
455.73371887207	0.2	cue_invalid	1
463.16982460022	0.2	cue_invalid	1
485.944984912872	0.2	cue_invalid	1
497.449275016785	0.2	cue_invalid	1
500.817197561264	0.2	cue_invalid	1
516.423018217087	0.2	cue_invalid	1
537.630926370621	0.2	cue_invalid	1
545.967368841171	0.2	cue_invalid	1
549.235253572464	0.2	cue_invalid	1
553.703586816788	0.2	cue_invalid	1
561.039655685425	0.2	cue_invalid	1
564.107466459274	0.2	cue_invalid	1
578.979679584503	0.2	cue_invalid	1
592.117912769318	0.2	cue_invalid	1
10.1842291355133	0.740411758422852	target_response	1
14.569198846817	0.571251153945923	target_response	1
17.6536803245544	0.513378620147705	target_response	1
20.6214559078217	0.475231170654297	target_response	1
23.7893035411835	0.572027444839478	target_response	1
28.5910940170288	0.503535985946655	target_response	1
31.5588674545288	0.581515550613403	target_response	1
39.0283198356628	0.485321044921875	target_response	1
42.4962794780731	0.498993635177612	target_response	1
45.8642029762268	0.455049991607666	target_response	1
50.6326475143433	0.497901439666748	target_response	1
53.9005329608917	0.399760961532593	target_response	1
57.7686412334442	0.462811708450317	target_response	1
61.1365644931793	0.487739562988281	target_response	1
64.204375743866	0.52906322479248	target_response	1
67.4722607135773	0.487870216369629	target_response	1
71.0402572154999	0.487353801727295	target_response	1
78.2095973491669	0.44151759147644	target_response	1
82.6779320240021	0.493697881698608	target_response	1
92.0480918884277	0.389125108718872	target_response	1
96.8165378570557	0.48731517791748	target_response	1
101.785056591034	0.485437393188477	target_response	1
105.753202676773	0.437459230422974	target_response	1
110.321573257446	0.386544704437256	target_response	1
117.791025161743	0.387743949890137	target_response	1
120.858836650848	0.380795240402222	target_response	1
123.926646709442	0.487155199050903	target_response	1
128.895166397095	0.363942623138428	target_response	1
137.565067052841	0.377352952957153	target_response	1
142.633623838425	0.417929172515869	target_response	1
150.103075504303	0.331716537475586	target_response	1
153.771109342575	0.373459577560425	target_response	1
156.738883495331	0.395653486251831	target_response	1
161.707402944565	0.343992948532104	target_response	1
168.976780653	0.374362230300903	target_response	1
172.844889879227	0.337586164474487	target_response	1
181.214678049088	0.408705949783325	target_response	1
184.78267455101	0.348946332931519	target_response	1
187.85048532486	0.366600751876831	target_response	1
194.919788360596	0.463758707046509	target_response	1
202.389240503311	0.366843461990356	target_response	1
207.557834625244	0.332499265670776	target_response	1
215.02728676796	0.372201204299927	target_response	1
224.397448539734	0.4398033618927	target_response	1
229.46600484848	0.403179168701172	target_response	1
236.435270786285	0.35924220085144	target_response	1
239.70315527916	0.432090759277344	target_response	1
242.971041679382	0.333441257476807	target_response	1
246.539038181305	0.385023832321167	target_response	1
249.90695977211	0.353216171264648	target_response	1
254.875480651855	0.335731267929077	target_response	1
261.944783449173	0.335928440093994	target_response	1
265.112631082535	0.410470008850098	target_response	1
268.480554819107	0.447873115539551	target_response	1
272.548738718033	0.431408166885376	target_response	1
277.91740655899	0.319137334823608	target_response	1
285.386858701706	0.372291326522827	target_response	1
289.655117750168	0.35257625579834	target_response	1
294.923746109009	0.35821795463562	target_response	1
304.293909788132	0.430556297302246	target_response	1
310.462876796722	0.341540098190308	target_response	1
313.730762720108	0.454734325408936	target_response	1
318.399169683456	0.48591136932373	target_response	1
321.867129802704	0.396094083786011	target_response	1
328.736358880997	0.302746057510376	target_response	1
335.205437421799	0.377037525177002	target_response	1
342.674889326096	0.284596681594849	target_response	1
349.644155740738	0.285787343978882	target_response	1
353.112115383148	0.417956590652466	target_response	1
358.080634355545	0.329520702362061	target_response	1
361.74866938591	0.448398590087891	target_response	1
369.918382883072	0.342228174209595	target_response	1
372.886156320572	0.417890787124634	target_response	1
378.454900026321	0.341180086135864	target_response	1
382.222971439362	0.358514547348022	target_response	1
385.490856647491	0.399885416030884	target_response	1
392.960308551788	0.374455451965332	target_response	1
395.928082466125	0.374051570892334	target_response	1
401.796937942505	0.320420980453491	target_response	1
408.266016483307	0.347727537155151	target_response	1
412.93442440033	0.369017601013184	target_response	1
416.402384519577	0.331724405288696	target_response	1
419.853671789169	0.314044237136841	target_response	1
424.622116565704	0.40300440788269	target_response	1
431.191232681274	0.300570249557495	target_response	1
436.459864854813	0.295714139938354	target_response	1
439.627712726593	0.431835174560547	target_response	1
444.89634346962	0.491808414459229	target_response	1
452.365795612335	0.391307353973389	target_response	1
455.933791875839	0.573508024215698	target_response	1
458.901566982269	0.458591938018799	target_response	1
463.369899749756	0.366380214691162	target_response	1
470.639276981354	0.398137092590332	target_response	1
478.108729124069	0.417920827865601	target_response	1
481.676726579666	0.506162405014038	target_response	1
486.145059585571	0.405016422271729	target_response	1
489.913131713867	0.468810319900513	target_response	1
493.581165313721	0.427066564559937	target_response	1
497.649349451065	0.434785604476929	target_response	1
501.017272472382	0.429837465286255	target_response	1
505.685680150986	0.44399094581604	target_response	1
509.153641223907	0.416660785675049	target_response	1
516.623091697693	0.329713344573975	target_response	1
523.092171669006	0.41811728477478	target_response	1
530.561623096466	0.429682970046997	target_response	1
537.831001520157	0.416475534439087	target_response	1
541.699109315872	0.323121786117554	target_response	1
546.167443752289	0.418853282928467	target_response	1
549.435328483582	0.448449611663818	target_response	1
553.903661489487	0.341512441635132	target_response	1
558.171919822693	0.508922100067139	target_response	1
561.239730596542	0.443502426147461	target_response	1
564.30754160881	0.356769323348999	target_response	1
567.375351667404	0.42472243309021	target_response	1
571.343497991562	0.290609121322632	target_response	1
576.111943244934	0.381852865219116	target_response	1
579.179753303528	0.495380640029907	target_response	1
584.848534584045	0.301298379898071	target_response	1
592.317986249924	0.409957647323608	target_response	1
599.787438154221	0.34986686706543	target_response	1
