onset	duration	trial_type	pmod_accuracy	image_fname
7.9824700355529785	1.01705002784729	dummy		obj032boot.png
10.016560077667236	1.0337200164794922	dummy		obj153kangaroo.png
12.067330121994019	1.0170400142669678	dummy		obj228porcupine.png
14.101419925689697	1.01705002784729	study		obj295teapot.png
16.135509967803955	1.0337200164794922	study		obj115funnel.png
18.186280012130737	1.0170400142669678	study		obj172lobster.png
20.237040042877197	1.01705002784729	study		obj225pizza.png
22.271130084991455	1.01705002784729	study		obj241ring.png
24.321900129318237	1.0170400142669678	study		obj258saxophone.png
26.355989933013916	1.0170400142669678	study		obj119girl.png
28.390079975128174	1.01705002784729	study		obj282spatula.png
30.42417001724243	1.01705002784729	study		obj193needle.png
32.45827007293701	1.0170400142669678	study		obj348zipper.png
34.49236011505127	1.0170400142669678	study		obj306toilet.png
36.52644991874695	1.01705002784729	study		obj165leopard.png
38.560539960861206	1.01705002784729	study		obj179match.png
40.594630002975464	1.01705002784729	study		obj214pencil.png
42.62872004508972	1.01705002784729	study		obj019basket.png
44.6628201007843	1.0170400142669678	study		obj276snail.png
46.69691014289856	1.0170397758483887	study		obj040butterfly.png
48.73099994659424	1.01705002784729	study		obj272skunk.png
50.765089988708496	1.01705002784729	study		obj068cork.png
52.799180030822754	1.01705002784729	study		obj090drum.png
54.833280086517334	1.0170400142669678	dummy		obj278snowman.png
56.86737012863159	1.0170400142669678	dummy		obj300thermos.png
58.90145993232727	1.01705002784729	dummy		obj312tree.png
308.2444500923157	1.0170400142669678	dummy		obj071cowboy.png
310.27854013442993	1.0170400142669678	dummy		obj189mouse.png
312.3126299381256	1.01705002784729	dummy		obj202package.png
314.34671998023987	1.01705002784729	study		obj135heart.png
316.3808100223541	1.01705002784729	study		obj106flashlight.png
318.4149000644684	1.01705002784729	study		obj184monkey.png
320.44900012016296	1.0170400142669678	study		obj223pirate.png
322.48308992385864	1.0170400142669678	study		obj227plug.png
324.5171799659729	1.01705002784729	study		obj175mailbox.png
326.55127000808716	1.0337200164794922	study		obj140hinge.png
328.60204005241394	1.0337200164794922	study		obj245rocket.png
330.6528000831604	1.01705002784729	study		obj125guitar.png
332.68689012527466	1.01705002784729	study		obj086door.png
334.72098994255066	1.0170400142669678	study		obj263seahorse.png
336.7717499732971	1.01705002784729	study		obj141hoof.png
338.8225100040436	1.01705002784729	study		obj252ruler.png
340.85661005973816	1.0170400142669678	study		obj079desk.png
342.8907001018524	1.01705002784729	study		obj209paperclip.png
344.9247901439667	1.017049789428711	study		obj314truck.png
346.95887994766235	1.01705002784729	study		obj171lizard.png
348.9929699897766	1.01705002784729	study		obj158knight.png
351.0270700454712	1.0170400142669678	study		obj315trumpet.png
353.06116008758545	1.0170400142669678	study		obj072crab.png
355.0952501296997	1.017049789428711	dummy		obj207pants.png
357.1293399333954	1.01705002784729	dummy		obj289submarine.png
359.16342997550964	1.01705002784729	dummy		obj333whale.png
188.8832700252533	1.309420108795166	test	1	obj309top.png
191.75099992752075	1.106490135192871	test	1	obj119girl.png
194.71878004074097	1.2333600521087646	test	1	obj110football.png
197.60318994522095	1.6214799880981445	test	1	obj330watch.png
200.80437994003296	1.2397501468658447	test	1	obj179match.png
203.6554400920868	0.8991999626159668	test	1	obj124grapes.png
206.28976011276245	1.6291699409484863	test	0	obj284spoon.png
209.3242199420929	0.979180097579956	test	1	obj310tractor.png
212.1085901260376	0.9145298004150391	test	1	obj306toilet.png
214.99300003051758	1.0937399864196777	test	1	obj068cork.png
217.54395008087158	0.8228600025177002	test	1	obj258saxophone.png
220.52839994430542	0.8696000576019287	test	1	obj214pencil.png
223.4628300666809	0.9739000797271729	test	1	obj101fence.png
226.1805100440979	0.7922999858856201	test	1	obj276snail.png
229.09825992584229	1.1303901672363281	test	1	obj259scarf.png
231.71590995788574	0.820850133895874	test	1	obj225pizza.png
234.6169900894165	1.1424899101257324	test	1	obj055chair.png
237.43471002578735	0.7149600982666016	test	1	obj241ring.png
240.36913013458252	0.9876399040222168	test	1	obj011backpack.png
243.2535400390625	0.9214398860931396	test	1	obj115funnel.png
246.25466012954712	1.088019847869873	test	1	obj075crown.png
249.25577998161316	1.2686500549316406	test	1	obj025binoculars.png
252.20688009262085	1.1137700080871582	test	1	obj120glasses.png
255.17464995384216	1.0292401313781738	test	1	obj051car.png
258.10908007621765	1.333629846572876	test	1	obj222pipe.png
261.02683997154236	2.0	test	0	obj348zipper.png
263.6944999694824	0.7816300392150879	test	1	obj295teapot.png
266.54556012153625	0.7038798332214355	test	1	obj272skunk.png
269.296590089798	0.681920051574707	test	1	obj282spatula.png
271.847540140152	0.726909875869751	test	1	obj172lobster.png
274.46517992019653	0.7986001968383789	test	1	obj010baby.png
277.08281993865967	0.6932101249694824	test	1	obj040butterfly.png
280.0839400291443	0.8459899425506592	test	1	obj035box.png
283.10174012184143	1.1050498485565186	test	1	obj205pan.png
285.9528000354767	0.7702300548553467	test	1	obj193needle.png
288.4870800971985	0.6848700046539307	test	1	obj165leopard.png
291.0547001361847	1.3099298477172852	test	0	obj019basket.png
293.88909006118774	0.7728300094604492	test	1	obj090drum.png
296.9235601425171	1.1943299770355225	test	1	obj270skeleton.png
299.6579101085663	0.9792499542236328	test	0	obj049cane.png
489.0118601322174	1.1651899814605713	test	1	obj212pear.png
491.82958006858826	0.9585299491882324	test	1	obj161lamp.png
494.43054008483887	1.011549949645996	test	1	obj256sandwich.png
497.11488008499146	1.1498799324035645	test	1	obj190mousetrap.png
499.9326000213623	0.9160699844360352	test	1	obj314truck.png
502.9170401096344	0.8796298503875732	test	1	obj175mailbox.png
505.6180500984192	0.6738100051879883	test	1	obj072crab.png
508.26904010772705	1.0515098571777344	test	1	obj048candle.png
510.9367001056671	0.7954800128936768	test	1	obj158knight.png
513.8877999782562	0.7941601276397705	test	1	obj315trumpet.png
516.905590057373	1.1011700630187988	test	1	obj252ruler.png
519.506560087204	0.6587598323822021	test	1	obj209paperclip.png
522.4910099506378	1.0258400440216064	test	1	obj008ashtray.png
525.1253199577332	0.8428001403808594	test	1	obj106flashlight.png
527.7096199989319	1.4300000667572021	test	0	obj260scissors.png
530.5940301418304	0.5977599620819092	test	1	obj263seahorse.png
533.3283801078796	0.6896400451660156	test	1	obj079desk.png
535.8960099220276	0.8705000877380371	test	1	obj141hoof.png
538.5303199291229	1.121300220489502	test	1	obj088drawer.png
541.4647500514984	1.2308900356292725	test	1	obj210peacock.png
544.465870141983	0.9569997787475586	test	1	obj223pirate.png
547.3669500350952	0.9418001174926758	test	1	obj042cactus.png
550.0012700557709	1.705430030822754	test	0	obj171lizard.png
552.902349948883	0.8686401844024658	test	1	obj086door.png
555.5700099468231	0.7463099956512451	test	1	obj135heart.png
558.2043299674988	0.9226000308990479	test	1	obj285squirrel.png
561.0220501422882	1.0396299362182617	test	1	obj227plug.png
563.7897400856018	1.078969955444336	test	1	obj245rocket.png
566.4740800857544	1.528669834136963	test	1	obj237radio.png
569.1417400836945	0.9679200649261475	test	1	obj137helicopter.png
571.7927300930023	0.7732100486755371	test	1	obj125guitar.png
574.4770600795746	1.3416199684143066	test	1	obj116genie.png
577.2447600364685	1.0622599124908447	test	1	obj056cheese.png
579.7957100868225	1.782409906387329	test	1	obj268sink.png
583.0802700519562	1.4757699966430664	test	1	obj167lightning.png
585.6645700931549	1.75642991065979	test	1	obj184monkey.png
588.81574010849	0.9482898712158203	test	1	obj140hinge.png
591.7835199832916	1.0459699630737305	test	1	obj104fish.png
594.7512900829315	1.29544997215271	test	1	obj219pillow.png
597.7690799236298	1.41933012008667	test	1	obj195net.png
71.08933997154236	25.0	math		
99.16647005081177	25.0	math		
127.22693991661072	25.0	math		
155.28740000724792	25.0	math		
371.33464002609253	25.0	math		
399.41178011894226	25.0	math		
427.4722399711609	25.0	math		
455.5327100753784	25.0	math		
