src_subject_id,session_id,run_id,param_counterbalance_ver,param_block_num,param_trial_num,param_cond_type_num,param_cond_type_string,param_normative_response,param_ques_type_string,param_image_num,param_image_filename,param_trigger_onset,param_start_biopac,event01_fixation,event01_fixation_dur,event01_blockquestion_onset,event01_block_isi_blacksreen,event01_blockquestion_dur,event02_image_onset,event02_image_dur,event03_response_onset,event03_response_key,event03_response_keyname,event03_RT,event04_shortquestion_onset,param_end_instruct_onset,param_experiment_duration,RAW_e1_fixation,RAW_e1_fixation_biopac,RAW_e1_blockquestion_onset,RAW_e1_blockquestion_onset_biopac,RAW_e1_block_isi_blacksreen,RAW_e2_image_onset,RAW_e2_image_onset_biopac,RAW_e3_response_onset,RAW_e4_shortquestion_onset,RAW_param_end_instruct_onset,accuracy
64,4,1,3,1,1,4,c4_HowHand,1,reaching?,107,H_007.jpg,1632149358.11554,1632149358.12876,0.0426700019836423,0.034296989440918,0.0926885509490964,2.11010812759399,2.0174195766449,2.26016377449036,0.983700037002563,3.25682281494141,1,left,0.950809955596924,3.24386381149292,604.484745969772,607.244745969772,1632149360.91821,1632149360.92423,1632149360.96823,1632149360.97035,1632149362.98565,1632149363.1357,1632149363.14863,1632149364.13236,1632149364.1194,1632149965.36029,1
64,4,1,3,1,2,4,c4_HowHand,2,reaching?,108,H_532.jpg,1632149358.11554,1632149358.12876,0.0426700019836423,0.034296989440918,0.0926885509490964,2.11010812759399,0.3,3.56064914703369,1.25046610832214,4.82329081535339,3,right,1.23710203170776,4.81111525535584,604.484745969772,607.244745969772,1632149360.91821,1632149360.92423,1632149360.96823,1632149360.97035,1632149362.98565,1632149364.43619,1632149364.43799,1632149365.69883,1632149365.68665,1632149965.36029,0
64,4,1,3,1,3,4,c4_HowHand,1,reaching?,109,H_474.jpg,1632149358.11554,1632149358.12876,0.0426700019836423,0.034296989440918,0.0926885509490964,2.11010812759399,0.3,5.12790059089661,1.06706357002258,6.19734095573425,1,left,1.04346585273743,6.19496416091919,604.484745969772,607.244745969772,1632149360.91821,1632149360.92423,1632149360.96823,1632149360.97035,1632149362.98565,1632149366.00344,1632149366.00521,1632149367.07288,1632149367.0705,1632149965.36029,1
64,4,1,3,1,4,4,c4_HowHand,2,reaching?,105,H_438.jpg,1632149358.11554,1632149358.12876,0.0426700019836423,0.034296989440918,0.0926885509490964,2.11010812759399,0.3,6.51174925804138,1.53390598297119,8.05687688827515,3,right,1.52124905586243,8.04565524101257,604.484745969772,607.244745969772,1632149360.91821,1632149360.92423,1632149360.96823,1632149360.97035,1632149362.98565,1632149367.38729,1632149367.38919,1632149368.93242,1632149368.92119,1632149965.36029,0
64,4,1,3,1,5,4,c4_HowHand,1,reaching?,110,H_364.jpg,1632149358.11554,1632149358.12876,0.0426700019836423,0.034296989440918,0.0926885509490964,2.11010812759399,0.3,8.36243962287903,0.917008638381958,9.28316997528076,1,left,0.892198085784912,9.27944826126099,604.484745969772,607.244745969772,1632149360.91821,1632149360.92423,1632149360.96823,1632149360.97035,1632149362.98565,1632149369.23798,1632149369.24055,1632149370.15871,1632149370.15499,1632149965.36029,1
64,4,1,3,1,6,4,c4_HowHand,1,reaching?,106,H_006.jpg,1632149358.11554,1632149358.12876,0.0426700019836423,0.034296989440918,0.0926885509490964,2.11010812759399,0.3,9.5962331199646,0.850316762924194,10.456511964798,1,left,0.839487075805664,10.4465498828888,604.484745969772,607.244745969772,1632149360.91821,1632149360.92423,1632149360.96823,1632149360.97035,1632149362.98565,1632149370.47177,1632149370.4737,1632149371.33205,1632149371.32209,1632149965.36029,1
64,4,1,3,1,7,4,c4_HowHand,1,reaching?,111,H_003.jpg,1632149358.11554,1632149358.12876,0.0426700019836423,0.034296989440918,0.0926885509490964,2.11010812759399,0.3,10.7633352184296,0.866989850997925,11.6321539783478,1,left,0.845318078994751,11.6303250694275,604.484745969772,607.244745969772,1632149360.91821,1632149360.92423,1632149360.96823,1632149360.97035,1632149362.98565,1632149371.63887,1632149371.64039,1632149372.50769,1632149372.50586,1632149965.36029,1
64,4,1,3,1,8,4,c4_HowHand,2,reaching?,112,H_132.jpg,1632149358.11554,1632149358.12876,0.0426700019836423,0.034296989440918,0.0926885509490964,2.11010812759399,0.3,11.9471094512939,0.933681964874268,12.8818769359589,3,right,0.914094924926758,12.8807914161682,604.484745969772,607.244745969772,1632149360.91821,1632149360.92423,1632149360.96823,1632149360.97035,1632149362.98565,1632149372.82265,1632149372.82437,1632149373.75742,1632149373.75633,1632149965.36029,0
64,4,1,3,2,1,2,c2_WhyHand,1,healthy?,21,H_627.jpg,1632149358.11554,1632149358.12876,13.1142120265961,4.41687893867493,17.5491990947723,19.6499817276001,2.10078263282776,19.800037612915,1.3338315486908,21.1395428085327,1,left,1.31813597679138,21.1338691616058,604.484745969772,607.244745969772,1632149373.98975,1632149373.99958,1632149378.42474,1632149378.42663,1632149380.52552,1632149380.67558,1632149380.67754,1632149382.01508,1632149382.00941,1632149965.36029,1
64,4,1,3,2,2,2,c2_WhyHand,1,healthy?,18,H_438.jpg,1632149358.11554,1632149358.12876,13.1142120265961,4.41687893867493,17.5491990947723,19.6499817276001,0.3,21.4506540203094,0.983700037002563,22.4355080032349,1,left,0.961568117141724,22.434354057312,604.484745969772,607.244745969772,1632149373.98975,1632149373.99958,1632149378.42474,1632149378.42663,1632149380.52552,1632149382.32619,1632149382.32753,1632149383.31105,1632149383.30989,1632149965.36029,1
64,4,1,3,2,3,2,c2_WhyHand,1,healthy?,23,H_364.jpg,1632149358.11554,1632149358.12876,13.1142120265961,4.41687893867493,17.5491990947723,19.6499817276001,0.3,22.751138677597,1.71730780601501,24.4786019229889,3,right,1.70027084350586,24.4684464836121,604.484745969772,607.244745969772,1632149373.98975,1632149373.99958,1632149378.42474,1632149378.42663,1632149380.52552,1632149383.62668,1632149383.62853,1632149385.35414,1632149385.34399,1632149965.36029,0
64,4,1,3,2,4,2,c2_WhyHand,2,healthy?,22,H_130.jpg,1632149358.11554,1632149358.12876,13.1142120265961,4.41687893867493,17.5491990947723,19.6499817276001,0.3,24.7852308654785,1.10041046142578,25.8897468948364,3,right,1.08179688453674,25.8856413269043,604.484745969772,607.244745969772,1632149373.98975,1632149373.99958,1632149378.42474,1632149378.42663,1632149380.52552,1632149385.66077,1632149385.66542,1632149386.76529,1632149386.76118,1632149965.36029,0
64,4,1,3,2,5,2,c2_WhyHand,1,healthy?,17,H_362.jpg,1632149358.11554,1632149358.12876,13.1142120265961,4.41687893867493,17.5491990947723,19.6499817276001,0.3,26.2024264240265,1.15042924880981,27.3560888671875,1,left,1.13001680374146,27.3528556728363,604.484745969772,607.244745969772,1632149373.98975,1632149373.99958,1632149378.42474,1632149378.42663,1632149380.52552,1632149387.07797,1632149387.08246,1632149388.23163,1632149388.22839,1632149965.36029,1
64,4,1,3,2,6,2,c2_WhyHand,2,healthy?,20,H_007.jpg,1632149358.11554,1632149358.12876,13.1142120265961,4.41687893867493,17.5491990947723,19.6499817276001,0.3,27.6696402931213,0.917007684707642,28.5896699333191,3,right,0.905852794647217,28.586647977829,604.484745969772,607.244745969772,1632149373.98975,1632149373.99958,1632149378.42474,1632149378.42663,1632149380.52552,1632149388.54518,1632149388.5486,1632149389.46521,1632149389.46219,1632149965.36029,0
64,4,1,3,2,7,2,c2_WhyHand,1,healthy?,19,H_167.jpg,1632149358.11554,1632149358.12876,13.1142120265961,4.41687893867493,17.5491990947723,19.6499817276001,0.3,28.9034330749512,0.816970825195312,29.7226140403748,1,left,0.799597024917603,29.7204039001465,604.484745969772,607.244745969772,1632149373.98975,1632149373.99958,1632149378.42474,1632149378.42663,1632149380.52552,1632149389.77897,1632149389.78222,1632149390.59815,1632149390.59594,1632149965.36029,1
64,4,1,3,2,8,2,c2_WhyHand,2,healthy?,24,H_019.jpg,1632149358.11554,1632149358.12876,13.1142120265961,4.41687893867493,17.5491990947723,19.6499817276001,0.3,30.0371882820129,0.883663892745972,30.9235298538208,3,right,0.863404035568237,30.9208521747589,604.484745969772,607.244745969772,1632149373.98975,1632149373.99958,1632149378.42474,1632149378.42663,1632149380.52552,1632149390.91273,1632149390.91525,1632149391.79907,1632149391.79639,1632149965.36029,0
64,4,1,3,3,1,1,c1_WhyFace,1,admiring?,4,F_779.jpg,1632149358.11554,1632149358.12876,31.0208890342712,5.61816596984863,36.6563236618042,38.7571077251434,2.10078406333923,38.907163848877,0.967027187347412,39.8892388248444,1,left,0.957921028137207,39.8741910362244,604.484745969772,607.244745969772,1632149391.89643,1632149391.8989,1632149397.53186,1632149397.53409,1632149399.63265,1632149399.7827,1632149399.78459,1632149400.76478,1632149400.74973,1632149965.36029,1
64,4,1,3,3,2,1,c1_WhyFace,1,admiring?,1,F_593.jpg,1632149358.11554,1632149358.12876,31.0208890342712,5.61816596984863,36.6563236618042,38.7571077251434,0.3,40.190975894928,1.30048537254333,41.4926760101318,1,left,1.28097105026245,41.4914612674713,604.484745969772,607.244745969772,1632149391.89643,1632149391.8989,1632149397.53186,1632149397.53409,1632149399.63265,1632149401.06651,1632149401.06821,1632149402.36822,1632149402.367,1632149965.36029,1
64,4,1,3,3,3,1,c1_WhyFace,2,admiring?,3,F_110.jpg,1632149358.11554,1632149358.12876,31.0208890342712,5.61816596984863,36.6563236618042,38.7571077251434,0.3,41.8082466030121,0.766951560974121,42.5768549346924,3,right,0.748914957046509,42.5751981639862,604.484745969772,607.244745969772,1632149391.89643,1632149391.8989,1632149397.53186,1632149397.53409,1632149399.63265,1632149402.68379,1632149402.68556,1632149403.45239,1632149403.45074,1632149965.36029,0
64,4,1,3,3,4,1,c1_WhyFace,1,admiring?,8,F_590.jpg,1632149358.11554,1632149358.12876,31.0208890342712,5.61816596984863,36.6563236618042,38.7571077251434,0.3,42.8919830226898,0.900336027145386,43.7933800125122,1,left,0.88501501083374,43.7923190498352,604.484745969772,607.244745969772,1632149391.89643,1632149391.8989,1632149397.53186,1632149397.53409,1632149399.63265,1632149403.76752,1632149403.76913,1632149404.66892,1632149404.66786,1632149965.36029,1
64,4,1,3,3,5,1,c1_WhyFace,2,admiring?,6,F_692.jpg,1632149358.11554,1632149358.12876,31.0208890342712,5.61816596984863,36.6563236618042,38.7571077251434,0.3,44.1091031932831,0.983701229095459,45.1060488128662,3,right,0.973680973052979,45.0928044223785,604.484745969772,607.244745969772,1632149391.89643,1632149391.8989,1632149397.53186,1632149397.53409,1632149399.63265,1632149404.98464,1632149404.98633,1632149405.98159,1632149405.96834,1632149965.36029,0
64,4,1,3,3,6,1,c1_WhyFace,1,admiring?,5,F_759.jpg,1632149358.11554,1632149358.12876,31.0208890342712,5.61816596984863,36.6563236618042,38.7571077251434,0.3,45.4095895195007,1.03371787071228,46.4444959068298,1,left,1.02092289924622,46.443307390213,604.484745969772,607.244745969772,1632149391.89643,1632149391.8989,1632149397.53186,1632149397.53409,1632149399.63265,1632149406.28513,1632149406.28669,1632149407.32003,1632149407.31885,1632149965.36029,1
64,4,1,3,3,7,1,c1_WhyFace,1,admiring?,7,F_648.jpg,1632149358.11554,1632149358.12876,31.0208890342712,5.61816596984863,36.6563236618042,38.7571077251434,0.3,46.7600922489166,0.750280141830444,47.5115158462524,1,left,0.73736310005188,47.5103723907471,604.484745969772,607.244745969772,1632149391.89643,1632149391.8989,1632149397.53186,1632149397.53409,1632149399.63265,1632149407.63563,1632149407.63752,1632149408.38705,1632149408.38591,1632149965.36029,1
64,4,1,3,3,8,1,c1_WhyFace,2,admiring?,2,F_129.jpg,1632149358.11554,1632149358.12876,31.0208890342712,5.61816596984863,36.6563236618042,38.7571077251434,0.3,47.8271558189392,0.716935396194458,48.5558719539642,3,right,0.709340810775757,48.5440912151337,604.484745969772,607.244745969772,1632149391.89643,1632149391.8989,1632149397.53186,1632149397.53409,1632149399.63265,1632149408.70269,1632149408.70444,1632149409.43141,1632149409.41963,1632149965.36029,0
64,4,1,3,4,1,3,c3_HowFace,1,smiling?,119,F_139.jpg,1632149358.11554,1632149358.12876,48.6441275978088,6.9591052532196,55.6133940124512,57.7141759300232,2.10078191757202,57.8642332458496,1.15042877197266,59.022546043396,1,left,1.12646794319153,59.0146620178223,604.484745969772,607.244745969772,1632149409.51967,1632149409.5215,1632149416.48893,1632149416.49925,1632149418.58972,1632149418.73977,1632149418.74885,1632149419.89809,1632149419.8902,1632149965.36029,1
64,4,1,3,4,2,3,c3_HowFace,2,smiling?,113,F_712.jpg,1632149358.11554,1632149358.12876,48.6441275978088,6.9591052532196,55.6133940124512,57.7141759300232,0.3,59.3314468765259,0.733606815338135,60.0732858085632,3,right,0.726698875427246,60.065053691864,604.484745969772,607.244745969772,1632149409.51967,1632149409.5215,1632149416.48893,1632149416.49925,1632149418.58972,1632149420.20699,1632149420.20863,1632149420.94882,1632149420.94059,1632149965.36029,0
64,4,1,3,4,3,3,c3_HowFace,1,smiling?,115,F_695.jpg,1632149358.11554,1632149358.12876,48.6441275978088,6.9591052532196,55.6133940124512,57.7141759300232,0.3,60.3818387889862,1.00037336349487,61.389621963501,1,left,0.984050035476685,61.3822121524811,604.484745969772,607.244745969772,1632149409.51967,1632149409.5215,1632149416.48893,1632149416.49925,1632149418.58972,1632149421.25738,1632149421.25924,1632149422.26516,1632149422.25775,1632149965.36029,1
64,4,1,3,4,4,3,c3_HowFace,2,smiling?,120,F_758.jpg,1632149358.11554,1632149358.12876,48.6441275978088,6.9591052532196,55.6133940124512,57.7141759300232,0.3,61.6989965343475,0.750279188156128,62.4503238105774,3,right,0.72834587097168,62.4492757225037,604.484745969772,607.244745969772,1632149409.51967,1632149409.5215,1632149416.48893,1632149416.49925,1632149418.58972,1632149422.57454,1632149422.57612,1632149423.32586,1632149423.32481,1632149965.36029,0
64,4,1,3,4,5,3,c3_HowFace,1,smiling?,116,F_083.jpg,1632149358.11554,1632149358.12876,48.6441275978088,6.9591052532196,55.6133940124512,57.7141759300232,0.3,62.7660610580444,0.566878795623779,63.3398709201813,1,left,0.55123496055603,63.3329398536682,604.484745969772,607.244745969772,1632149409.51967,1632149409.5215,1632149416.48893,1632149416.49925,1632149418.58972,1632149423.6416,1632149423.64331,1632149424.21541,1632149424.20848,1632149965.36029,1
64,4,1,3,4,6,3,c3_HowFace,1,smiling?,118,F_759.jpg,1632149358.11554,1632149358.12876,48.6441275978088,6.9591052532196,55.6133940124512,57.7141759300232,0.3,63.6497237586975,0.650243282318115,64.3064329528809,1,left,0.636304140090942,64.2999670410156,604.484745969772,607.244745969772,1632149409.51967,1632149409.5215,1632149416.48893,1632149416.49925,1632149418.58972,1632149424.52526,1632149424.52721,1632149425.18197,1632149425.17551,1632149965.36029,1
64,4,1,3,4,7,3,c3_HowFace,2,smiling?,114,F_412.jpg,1632149358.11554,1632149358.12876,48.6441275978088,6.9591052532196,55.6133940124512,57.7141759300232,0.3,64.6167507076263,0.650243282318115,65.2684519195557,3,right,0.626864194869995,65.2669939899445,604.484745969772,607.244745969772,1632149409.51967,1632149409.5215,1632149416.48893,1632149416.49925,1632149418.58972,1632149425.49229,1632149425.4942,1632149426.14399,1632149426.14253,1632149965.36029,0
64,4,1,3,4,8,3,c3_HowFace,1,smiling?,117,F_593.jpg,1632149358.11554,1632149358.12876,48.6441275978088,6.9591052532196,55.6133940124512,57.7141759300232,0.3,65.5837786102295,0.900336027145386,66.4894609355926,1,left,0.894339084625244,66.4841146373749,604.484745969772,607.244745969772,1632149409.51967,1632149409.5215,1632149416.48893,1632149416.49925,1632149418.58972,1632149426.45932,1632149426.46058,1632149427.365,1632149427.35965,1632149965.36029,1
64,4,1,3,5,1,4,c4_HowHand,1,lifting?,56,H_136.jpg,1632149358.11554,1632149358.12876,66.5508062744141,6.58298063278198,73.1532678508758,75.2373797798157,2.08411192893982,75.4041075611114,1.16710186004639,76.5731348896027,1,left,1.15581512451172,76.5712094211578,604.484745969772,607.244745969772,1632149427.42635,1632149427.43215,1632149434.02881,1632149434.03341,1632149436.11292,1632149436.27965,1632149436.2814,1632149437.44867,1632149437.44675,1632149965.36029,1
64,4,1,3,5,2,4,c4_HowHand,2,lifting?,51,H_038.jpg,1632149358.11554,1632149358.12876,66.5508062744141,6.58298063278198,73.1532678508758,75.2373797798157,0.3,76.8879935646057,1.01704668998718,77.9064609909058,3,right,1.00044703483582,77.9050402545929,604.484745969772,607.244745969772,1632149427.42635,1632149427.43215,1632149434.02881,1632149434.03341,1632149436.11292,1632149437.76353,1632149437.76531,1632149438.782,1632149438.78058,1632149965.36029,0
64,4,1,3,5,3,4,c4_HowHand,1,lifting?,52,H_189.jpg,1632149358.11554,1632149358.12876,66.5508062744141,6.58298063278198,73.1532678508758,75.2373797798157,0.3,78.2218248748779,1.35050392150879,79.573869934082,3,right,1.33402490615845,79.5723287963867,604.484745969772,607.244745969772,1632149427.42635,1632149427.43215,1632149434.02881,1632149434.03341,1632149436.11292,1632149439.09736,1632149439.09915,1632149440.44941,1632149440.44787,1632149965.36029,0
64,4,1,3,5,4,4,c4_HowHand,2,lifting?,53,H_077.jpg,1632149358.11554,1632149358.12876,66.5508062744141,6.58298063278198,73.1532678508758,75.2373797798157,0.3,79.8891131782532,1.33383059501648,81.2239799404144,3,right,1.3189959526062,81.2229437732696,604.484745969772,607.244745969772,1632149427.42635,1632149427.43215,1632149434.02881,1632149434.03341,1632149436.11292,1632149440.76465,1632149440.76623,1632149442.09952,1632149442.09848,1632149965.36029,0
64,4,1,3,5,5,4,c4_HowHand,1,lifting?,50,H_443.jpg,1632149358.11554,1632149358.12876,66.5508062744141,6.58298063278198,73.1532678508758,75.2373797798157,0.3,81.5397291088104,1.30048537254333,82.8418760204315,3,right,1.28227496147156,82.8402144813538,604.484745969772,607.244745969772,1632149427.42635,1632149427.43215,1632149434.02881,1632149434.03341,1632149436.11292,1632149442.41527,1632149442.41712,1632149443.71742,1632149443.71575,1632149965.36029,0
64,4,1,3,5,6,4,c4_HowHand,2,lifting?,55,H_012.jpg,1632149358.11554,1632149358.12876,66.5508062744141,6.58298063278198,73.1532678508758,75.2373797798157,0.3,83.1569991016388,1.26713943481445,84.4250879192352,3,right,1.25709009170532,84.4241385364532,604.484745969772,607.244745969772,1632149427.42635,1632149427.43215,1632149434.02881,1632149434.03341,1632149436.11292,1632149444.03254,1632149444.03446,1632149445.30063,1632149445.29968,1632149965.36029,0
64,4,1,3,5,7,4,c4_HowHand,1,lifting?,49,H_362.jpg,1632149358.11554,1632149358.12876,66.5508062744141,6.58298063278198,73.1532678508758,75.2373797798157,0.3,84.7409231567383,0.700260639190674,85.44294880867,1,left,0.685720920562744,85.4411837959289,604.484745969772,607.244745969772,1632149427.42635,1632149427.43215,1632149434.02881,1632149434.03341,1632149436.11292,1632149445.61646,1632149445.61759,1632149446.31849,1632149446.31672,1632149965.36029,1
64,4,1,3,5,8,4,c4_HowHand,1,lifting?,54,H_170.jpg,1632149358.11554,1632149358.12876,66.5508062744141,6.58298063278198,73.1532678508758,75.2373797798157,0.3,85.7579681777954,1.31715774536133,87.0767938995361,1,left,1.29577898979187,87.0751259231567,604.484745969772,607.244745969772,1632149427.42635,1632149427.43215,1632149434.02881,1632149434.03341,1632149436.11292,1632149446.63351,1632149446.6352,1632149447.95233,1632149447.95066,1632149965.36029,1
64,4,1,3,6,1,2,c2_WhyHand,1,helping?,38,H_077.jpg,1632149358.11554,1632149358.12876,87.1584908866882,8.45639109611511,95.6283163928986,97.7290992641449,2.10078287124634,97.8791558647156,0.967026948928833,98.856348028183,1,left,0.960307121276855,98.8461828136444,604.484745969772,607.244745969772,1632149448.03403,1632149448.03505,1632149456.50386,1632149456.50544,1632149458.60464,1632149458.75469,1632149458.75612,1632149459.73189,1632149459.72172,1632149965.36029,1
64,4,1,3,6,2,2,c2_WhyHand,1,helping?,36,H_349.jpg,1632149358.11554,1632149358.12876,87.1584908866882,8.45639109611511,95.6283163928986,97.7290992641449,0.3,99.162967672348,1.30048489570618,100.473572006226,1,left,1.28983902931213,100.463452568054,604.484745969772,607.244745969772,1632149448.03403,1632149448.03505,1632149456.50386,1632149456.50544,1632149458.60464,1632149460.03851,1632149460.04013,1632149461.34911,1632149461.33899,1632149965.36029,1
64,4,1,3,6,3,2,c2_WhyHand,1,helping?,37,H_474.jpg,1632149358.11554,1632149358.12876,87.1584908866882,8.45639109611511,95.6283163928986,97.7290992641449,0.3,100.780237426758,1.26713824272156,102.056509962082,3,right,1.25819110870361,102.047375669479,604.484745969772,607.244745969772,1632149448.03403,1632149448.03505,1632149456.50386,1632149456.50544,1632149458.60464,1632149461.65578,1632149461.6571,1632149462.93205,1632149462.92291,1632149965.36029,0
64,4,1,3,6,4,2,c2_WhyHand,1,helping?,39,H_024.jpg,1632149358.11554,1632149358.12876,87.1584908866882,8.45639109611511,95.6283163928986,97.7290992641449,0.3,102.364160766602,1.46721482276917,103.832394828796,3,right,1.44980406761169,103.831375589371,604.484745969772,607.244745969772,1632149448.03403,1632149448.03505,1632149456.50386,1632149456.50544,1632149458.60464,1632149463.2397,1632149463.24141,1632149464.70793,1632149464.70691,1632149965.36029,0
64,4,1,3,6,5,2,c2_WhyHand,2,helping?,40,H_012.jpg,1632149358.11554,1632149358.12876,87.1584908866882,8.45639109611511,95.6283163928986,97.7290992641449,0.3,104.148159732819,1.55057764053345,105.699865808487,3,right,1.52857398986816,105.698737373352,604.484745969772,607.244745969772,1632149448.03403,1632149448.03505,1632149456.50386,1632149456.50544,1632149458.60464,1632149465.0237,1632149465.02521,1632149466.5754,1632149466.57428,1632149965.36029,0
64,4,1,3,6,6,2,c2_WhyHand,2,helping?,35,H_159.jpg,1632149358.11554,1632149358.12876,87.1584908866882,8.45639109611511,95.6283163928986,97.7290992641449,0.3,106.015525331497,1.63394093513489,107.655997982025,3,right,1.62597393989563,107.649466266632,604.484745969772,607.244745969772,1632149448.03403,1632149448.03505,1632149456.50386,1632149456.50544,1632149458.60464,1632149466.89106,1632149466.89269,1632149468.53154,1632149468.52501,1632149965.36029,0
64,4,1,3,6,7,2,c2_WhyHand,1,helping?,34,H_111.jpg,1632149358.11554,1632149358.12876,87.1584908866882,8.45639109611511,95.6283163928986,97.7290992641449,0.3,107.966251840591,1.1170825958252,109.089172830582,1,left,1.10939002037048,109.083334436417,604.484745969772,607.244745969772,1632149448.03403,1632149448.03505,1632149456.50386,1632149456.50544,1632149458.60464,1632149468.84179,1632149468.84341,1632149469.96471,1632149469.95887,1632149965.36029,1
64,4,1,3,6,8,2,c2_WhyHand,2,helping?,33,H_091.jpg,1632149358.11554,1632149358.12876,87.1584908866882,8.45639109611511,95.6283163928986,97.7290992641449,0.3,109.400118579864,1.03371953964233,110.43523692131,3,right,1.01158094406128,110.433838119507,604.484745969772,607.244745969772,1632149448.03403,1632149448.03505,1632149456.50386,1632149456.50544,1632149458.60464,1632149470.27566,1632149470.27724,1632149471.31078,1632149471.30938,1632149965.36029,0
64,4,1,3,7,1,1,c1_WhyFace,1,proud?,104,F_598.jpg,1632149358.11554,1632149358.12876,110.500528802872,2.9893651008606,113.501648178101,115.60243224144,2.10078406333923,115.752487888336,1.71730732917786,NaN,0,NA,0,117.469795217514,604.484745969772,607.244745969772,1632149471.37607,1632149471.382,1632149474.37719,1632149474.38214,1632149476.47797,1632149476.62803,1632149476.63225,NaN,1632149478.34533,1632149965.36029,0
64,4,1,3,7,2,1,c1_WhyFace,2,proud?,102,F_760.jpg,1632149358.11554,1632149358.12876,110.500528802872,2.9893651008606,113.501648178101,115.60243224144,0.3,117.786580076218,0.833644390106201,118.6232218647,3,right,0.810113191604614,118.620224466324,604.484745969772,607.244745969772,1632149471.37607,1632149471.382,1632149474.37719,1632149474.38214,1632149476.47797,1632149478.66212,1632149478.66488,1632149479.49876,1632149479.49576,1632149965.36029,0
64,4,1,3,7,3,1,c1_WhyFace,1,proud?,97,F_582.jpg,1632149358.11554,1632149358.12876,110.500528802872,2.9893651008606,113.501648178101,115.60243224144,0.3,118.937007417679,0.766953706741333,119.706061830521,1,left,0.750401020050049,119.70396112442,604.484745969772,607.244745969772,1632149471.37607,1632149471.382,1632149474.37719,1632149474.38214,1632149476.47797,1632149479.81255,1632149479.81532,1632149480.5816,1632149480.5795,1632149965.36029,1
64,4,1,3,7,4,1,c1_WhyFace,2,proud?,98,F_412.jpg,1632149358.11554,1632149358.12876,110.500528802872,2.9893651008606,113.501648178101,115.60243224144,0.3,120.020745744705,0.70026159286499,120.723021020889,3,right,0.688620090484619,120.72100733757,604.484745969772,607.244745969772,1632149471.37607,1632149471.382,1632149474.37719,1632149474.38214,1632149476.47797,1632149480.89628,1632149480.89882,1632149481.59856,1632149481.59655,1632149965.36029,0
64,4,1,3,7,5,1,c1_WhyFace,1,proud?,101,F_083.jpg,1632149358.11554,1632149358.12876,110.500528802872,2.9893651008606,113.501648178101,115.60243224144,0.3,121.037791719437,0.816972017288208,121.856693973541,1,left,0.80503511428833,121.854763736725,604.484745969772,607.244745969772,1632149471.37607,1632149471.382,1632149474.37719,1632149474.38214,1632149476.47797,1632149481.91333,1632149481.91545,1632149482.73223,1632149482.7303,1632149965.36029,1
64,4,1,3,7,6,1,c1_WhyFace,2,proud?,100,F_776.jpg,1632149358.11554,1632149358.12876,110.500528802872,2.9893651008606,113.501648178101,115.60243224144,0.3,122.171548118591,1.08373665809631,123.256661882401,3,right,1.07071614265442,123.255284776688,604.484745969772,607.244745969772,1632149471.37607,1632149471.382,1632149474.37719,1632149474.38214,1632149476.47797,1632149483.04709,1632149483.04893,1632149484.1322,1632149484.13082,1632149965.36029,0
64,4,1,3,7,7,1,c1_WhyFace,1,proud?,103,F_618.jpg,1632149358.11554,1632149358.12876,110.500528802872,2.9893651008606,113.501648178101,115.60243224144,0.3,123.572069635391,1.20044875144958,124.773835887909,1,left,1.17916107177734,124.772518386841,604.484745969772,607.244745969772,1632149471.37607,1632149471.382,1632149474.37719,1632149474.38214,1632149476.47797,1632149484.44761,1632149484.44891,1632149485.64937,1632149485.64806,1632149965.36029,1
64,4,1,3,7,8,1,c1_WhyFace,1,proud?,99,F_695.jpg,1632149358.11554,1632149358.12876,110.500528802872,2.9893651008606,113.501648178101,115.60243224144,0.3,125.089303007126,1.16710162162781,126.25745891571,3,right,1.15133500099182,126.256404628754,604.484745969772,607.244745969772,1632149471.37607,1632149471.382,1632149474.37719,1632149474.38214,1632149476.47797,1632149485.96484,1632149485.96632,1632149487.133,1632149487.13194,1632149965.36029,0
64,4,1,3,8,1,3,c3_HowFace,1,looking to side?,72,F_590.jpg,1632149358.11554,1632149358.12876,126.323095788956,4.69698619842529,131.024849882126,133.125633230209,2.1007833480835,133.27568983078,0.816970825195312,134.10659693718,1,left,0.793617010116577,134.092660655975,604.484745969772,607.244745969772,1632149487.19863,1632149487.20036,1632149491.90039,1632149491.91557,1632149494.00117,1632149494.15123,1632149494.16564,1632149494.98214,1632149494.9682,1632149965.36029,1
64,4,1,3,8,2,3,c3_HowFace,1,looking to side?,71,F_433.jpg,1632149358.11554,1632149358.12876,126.323095788956,4.69698619842529,131.024849882126,133.125633230209,0.3,134.40944527626,1.45054078102112,135.861547937393,1,left,1.43405818939209,135.859986057282,604.484745969772,607.244745969772,1632149487.19863,1632149487.20036,1632149491.90039,1632149491.91557,1632149494.00117,1632149495.28498,1632149495.28637,1632149496.73709,1632149496.73553,1632149965.36029,1
64,4,1,3,8,3,3,c3_HowFace,1,looking to side?,67,F_716.jpg,1632149358.11554,1632149358.12876,126.323095788956,4.69698619842529,131.024849882126,133.125633230209,0.3,136.176771631241,0.917007684707642,137.094882955551,1,left,0.904324054718018,137.093779315948,604.484745969772,607.244745969772,1632149487.19863,1632149487.20036,1632149491.90039,1632149491.91557,1632149494.00117,1632149497.05231,1632149497.05396,1632149497.97042,1632149497.96932,1632149965.36029,1
64,4,1,3,8,4,3,c3_HowFace,2,looking to side?,70,F_779.jpg,1632149358.11554,1632149358.12876,126.323095788956,4.69698619842529,131.024849882126,133.125633230209,0.3,137.410564651489,0.766952276229858,138.178562870026,1,left,0.753993034362793,138.177516927719,604.484745969772,607.244745969772,1632149487.19863,1632149487.20036,1632149491.90039,1632149491.91557,1632149494.00117,1632149498.2861,1632149498.28792,1632149499.0541,1632149499.05306,1632149965.36029,0
64,4,1,3,8,5,3,c3_HowFace,1,looking to side?,68,F_760.jpg,1632149358.11554,1632149358.12876,126.323095788956,4.69698619842529,131.024849882126,133.125633230209,0.3,138.494301786423,0.967027187347412,139.462445964813,1,left,0.946598052978516,139.46132897377,604.484745969772,607.244745969772,1632149487.19863,1632149487.20036,1632149491.90039,1632149491.91557,1632149494.00117,1632149499.36984,1632149499.37132,1632149500.33799,1632149500.33687,1632149965.36029,1
64,4,1,3,8,6,3,c3_HowFace,2,looking to side?,66,F_111.jpg,1632149358.11554,1632149358.12876,126.323095788956,4.69698619842529,131.024849882126,133.125633230209,0.3,139.778114309311,0.783624649047852,140.562854995728,3,right,0.765573024749756,140.561738958359,604.484745969772,607.244745969772,1632149487.19863,1632149487.20036,1632149491.90039,1632149491.91557,1632149494.00117,1632149500.65365,1632149500.65546,1632149501.43839,1632149501.43728,1632149965.36029,0
64,4,1,3,8,7,3,c3_HowFace,1,looking to side?,69,F_110.jpg,1632149358.11554,1632149358.12876,126.323095788956,4.69698619842529,131.024849882126,133.125633230209,0.3,140.87852596283,0.967024326324463,141.856498947144,3,right,0.953644037246704,141.845550289154,604.484745969772,607.244745969772,1632149487.19863,1632149487.20036,1632149491.90039,1632149491.91557,1632149494.00117,1632149501.75407,1632149501.75579,1632149502.73204,1632149502.72109,1632149965.36029,0
64,4,1,3,8,8,3,c3_HowFace,2,looking to side?,65,F_798.jpg,1632149358.11554,1632149358.12876,126.323095788956,4.69698619842529,131.024849882126,133.125633230209,0.3,142.162335147858,0.86699104309082,143.030345907211,3,right,0.845448970794678,143.029326190948,604.484745969772,607.244745969772,1632149487.19863,1632149487.20036,1632149491.90039,1632149491.91557,1632149494.00117,1632149503.03787,1632149503.03935,1632149503.90588,1632149503.90487,1632149965.36029,0
64,4,1,3,9,1,1,c1_WhyFace,1,argument?,43,F_716.jpg,1632149358.11554,1632149358.12876,143.096018066406,7.03193879127502,150.131974449158,152.232757558823,2.10078310966492,152.382815351486,0.716933488845825,153.100775947571,1,left,0.688401937484741,153.099748840332,604.484745969772,607.244745969772,1632149503.97156,1632149503.97321,1632149511.00751,1632149511.01571,1632149513.1083,1632149513.25835,1632149513.26562,1632149513.97632,1632149513.97529,1632149965.36029,1
64,4,1,3,9,2,1,c1_WhyFace,2,argument?,44,F_139.jpg,1632149358.11554,1632149358.12876,143.096018066406,7.03193879127502,150.131974449158,152.232757558823,0.3,153.416533460617,0.716933965682983,154.139981975555,3,right,0.704330921173096,154.1334674263,604.484745969772,607.244745969772,1632149503.97156,1632149503.97321,1632149511.00751,1632149511.01571,1632149513.1083,1632149514.29207,1632149514.29383,1632149515.01552,1632149515.00901,1632149965.36029,0
64,4,1,3,9,3,1,c1_WhyFace,1,argument?,41,F_712.jpg,1632149358.11554,1632149358.12876,143.096018066406,7.03193879127502,150.131974449158,152.232757558823,0.3,154.450252046585,0.783625602722168,155.239255895615,1,left,0.770122051239014,155.233877649307,604.484745969772,607.244745969772,1632149503.97156,1632149503.97321,1632149511.00751,1632149511.01571,1632149513.1083,1632149515.32579,1632149515.32746,1632149516.11479,1632149516.10942,1632149965.36029,1
64,4,1,3,9,4,1,c1_WhyFace,2,argument?,45,F_433.jpg,1632149358.11554,1632149358.12876,143.096018066406,7.03193879127502,150.131974449158,152.232757558823,0.3,155.550662746429,0.850317478179932,156.406054964066,3,right,0.834375143051147,156.400980224609,604.484745969772,607.244745969772,1632149503.97156,1632149503.97321,1632149511.00751,1632149511.01571,1632149513.1083,1632149516.4262,1632149516.42779,1632149517.28159,1632149517.27652,1632149965.36029,0
64,4,1,3,9,5,1,c1_WhyFace,1,argument?,42,F_403.jpg,1632149358.11554,1632149358.12876,143.096018066406,7.03193879127502,150.131974449158,152.232757558823,0.3,156.717764606476,0.766952276229858,157.489832868576,1,left,0.749959945678711,157.484716882706,604.484745969772,607.244745969772,1632149503.97156,1632149503.97321,1632149511.00751,1632149511.01571,1632149513.1083,1632149517.5933,1632149517.59917,1632149518.36537,1632149518.36026,1632149965.36029,1
64,4,1,3,9,6,1,c1_WhyFace,2,argument?,46,F_844.jpg,1632149358.11554,1632149358.12876,143.096018066406,7.03193879127502,150.131974449158,152.232757558823,0.3,157.801502218246,0.917007923126221,158.723283042908,3,right,0.898480892181396,158.718510141373,604.484745969772,607.244745969772,1632149503.97156,1632149503.97321,1632149511.00751,1632149511.01571,1632149513.1083,1632149518.67704,1632149518.67928,1632149519.59882,1632149519.59405,1632149965.36029,0
64,4,1,3,9,7,1,c1_WhyFace,1,argument?,47,F_743.jpg,1632149358.11554,1632149358.12876,143.096018066406,7.03193879127502,150.131974449158,152.232757558823,0.3,159.035294761658,0.700262546539307,159.73911403656,1,left,0.690496921539307,159.735557308197,604.484745969772,607.244745969772,1632149503.97156,1632149503.97321,1632149511.00751,1632149511.01571,1632149513.1083,1632149519.91083,1632149519.91536,1632149520.61465,1632149520.6111,1632149965.36029,1
64,4,1,3,9,8,1,c1_WhyFace,1,argument?,48,F_758.jpg,1632149358.11554,1632149358.12876,143.096018066406,7.03193879127502,150.131974449158,152.232757558823,0.3,160.052340974808,0.783626079559326,160.839714040756,1,left,0.760406017303467,160.835967054367,604.484745969772,607.244745969772,1632149503.97156,1632149503.97321,1632149511.00751,1632149511.01571,1632149513.1083,1632149520.92788,1632149520.93223,1632149521.71525,1632149521.71151,1632149965.36029,1
64,4,1,3,10,1,3,c3_HowFace,1,open mouth?,80,F_844.jpg,1632149358.11554,1632149358.12876,160.902657976151,7.06523203849792,167.971961727142,170.072744836807,2.10078310966492,170.222800722122,0.783625364303589,171.007621994019,1,left,0.7654709815979,171.006426086426,604.484745969772,607.244745969772,1632149521.7782,1632149521.78147,1632149528.8475,1632149528.84917,1632149530.94828,1632149531.09834,1632149531.09977,1632149531.88316,1632149531.88197,1632149965.36029,1
64,4,1,3,10,2,3,c3_HowFace,1,open mouth?,74,F_776.jpg,1632149358.11554,1632149358.12876,160.902657976151,7.06523203849792,167.971961727142,170.072744836807,0.3,171.323211421967,0.616896390914917,171.956320037842,1,left,0.608355045318604,171.940107812881,604.484745969772,607.244745969772,1632149521.7782,1632149521.78147,1632149528.8475,1632149528.84917,1632149530.94828,1632149532.19875,1632149532.20034,1632149532.83186,1632149532.81565,1632149965.36029,1
64,4,1,3,10,3,3,c3_HowFace,2,open mouth?,76,F_544.jpg,1632149358.11554,1632149358.12876,160.902657976151,7.06523203849792,167.971961727142,170.072744836807,0.3,172.256893386841,0.766952037811279,173.039227952957,3,right,0.759676933288574,173.023845424652,604.484745969772,607.244745969772,1632149521.7782,1632149521.78147,1632149528.8475,1632149528.84917,1632149530.94828,1632149533.13243,1632149533.13413,1632149533.91477,1632149533.89938,1632149965.36029,0
64,4,1,3,10,4,3,c3_HowFace,1,open mouth?,78,F_692.jpg,1632149358.11554,1632149358.12876,160.902657976151,7.06523203849792,167.971961727142,170.072744836807,0.3,173.340630044937,0.716934204101562,174.072732915878,1,left,0.707443952560425,174.057564249039,604.484745969772,607.244745969772,1632149521.7782,1632149521.78147,1632149528.8475,1632149528.84917,1632149530.94828,1632149534.21617,1632149534.21815,1632149534.94827,1632149534.9331,1632149965.36029,1
64,4,1,3,10,5,3,c3_HowFace,2,open mouth?,77,F_584.jpg,1632149358.11554,1632149358.12876,160.902657976151,7.06523203849792,167.971961727142,170.072744836807,0.3,174.374349346161,0.683587789535522,175.059036006927,3,right,0.671151876449585,175.057937135696,604.484745969772,607.244745969772,1632149521.7782,1632149521.78147,1632149528.8475,1632149528.84917,1632149530.94828,1632149535.24989,1632149535.2516,1632149535.93458,1632149535.93348,1632149965.36029,0
64,4,1,3,10,6,3,c3_HowFace,1,open mouth?,73,F_403.jpg,1632149358.11554,1632149358.12876,160.902657976151,7.06523203849792,167.971961727142,170.072744836807,0.3,175.374722232819,0.733606815338135,176.109472026825,1,left,0.721410036087036,176.108329048157,604.484745969772,607.244745969772,1632149521.7782,1632149521.78147,1632149528.8475,1632149528.84917,1632149530.94828,1632149536.25026,1632149536.25167,1632149536.98501,1632149536.98387,1632149965.36029,1
64,4,1,3,10,7,3,c3_HowFace,1,open mouth?,75,F_086.jpg,1632149358.11554,1632149358.12876,160.902657976151,7.06523203849792,167.971961727142,170.072744836807,0.3,176.425114383698,0.783624887466431,177.210549821854,1,left,0.764837980270386,177.208739271164,604.484745969772,607.244745969772,1632149521.7782,1632149521.78147,1632149528.8475,1632149528.84917,1632149530.94828,1632149537.30065,1632149537.30231,1632149538.08609,1632149538.08428,1632149965.36029,1
64,4,1,3,10,8,3,c3_HowFace,2,open mouth?,79,F_648.jpg,1632149358.11554,1632149358.12876,160.902657976151,7.06523203849792,167.971961727142,170.072744836807,0.3,177.525524129868,0.666914224624634,178.206573953629,3,right,0.65694785118103,178.192438354492,604.484745969772,607.244745969772,1632149521.7782,1632149521.78147,1632149528.8475,1632149528.84917,1632149530.94828,1632149538.40106,1632149538.40278,1632149539.08211,1632149539.06798,1632149965.36029,0
64,4,1,3,11,1,4,c4_HowHand,1,pressing button?,88,H_019.jpg,1632149358.11554,1632149358.12876,178.275804033279,7.58208394050598,185.861966123581,187.962750663757,2.10078454017639,188.112806072235,0.633569478988647,188.748023023605,1,left,0.602227926254272,188.746375551224,604.484745969772,607.244745969772,1632149539.15134,1632149539.15274,1632149546.73751,1632149546.74874,1632149548.83829,1632149548.98835,1632149548.999,1632149549.62356,1632149549.62191,1632149965.36029,1
64,4,1,3,11,2,4,c4_HowHand,2,pressing button?,87,H_024.jpg,1632149358.11554,1632149358.12876,178.275804033279,7.58208394050598,185.861966123581,187.962750663757,0.3,189.063160171509,0.750280380249023,189.814589014053,3,right,0.733783006668091,189.813440551758,604.484745969772,607.244745969772,1632149539.15134,1632149539.15274,1632149546.73751,1632149546.74874,1632149548.83829,1632149549.9387,1632149549.94031,1632149550.69013,1632149550.68898,1632149965.36029,0
64,4,1,3,11,3,4,c4_HowHand,2,pressing button?,85,H_130.jpg,1632149358.11554,1632149358.12876,178.275804033279,7.58208394050598,185.861966123581,187.962750663757,0.3,190.130225172043,0.750278949737549,190.889272918701,3,right,0.739281892776489,190.88050412178,604.484745969772,607.244745969772,1632149539.15134,1632149539.15274,1632149546.73751,1632149546.74874,1632149548.83829,1632149551.00576,1632149551.00729,1632149551.76481,1632149551.75604,1632149965.36029,0
64,4,1,3,11,4,4,c4_HowHand,1,pressing button?,83,H_502.jpg,1632149358.11554,1632149358.12876,178.275804033279,7.58208394050598,185.861966123581,187.962750663757,0.3,191.197288980484,0.600224256515503,191.806787004471,1,left,0.584711074829102,191.797513237,604.484745969772,607.244745969772,1632149539.15134,1632149539.15274,1632149546.73751,1632149546.74874,1632149548.83829,1632149552.07283,1632149552.07445,1632149552.68233,1632149552.67305,1632149965.36029,1
64,4,1,3,11,5,4,c4_HowHand,2,pressing button?,81,H_261.jpg,1632149358.11554,1632149358.12876,178.275804033279,7.58208394050598,185.861966123581,187.962750663757,0.3,192.11429857254,0.816969156265259,192.93297003746,3,right,0.797842025756836,192.931267728806,604.484745969772,607.244745969772,1632149539.15134,1632149539.15274,1632149546.73751,1632149546.74874,1632149548.83829,1632149552.98984,1632149552.99138,1632149553.80851,1632149553.80681,1632149965.36029,0
64,4,1,3,11,6,4,c4_HowHand,1,pressing button?,86,H_332.jpg,1632149358.11554,1632149358.12876,178.275804033279,7.58208394050598,185.861966123581,187.962750663757,0.3,193.248054018021,0.53353214263916,193.789664974213,1,left,0.524596929550171,193.78158616066,604.484745969772,607.244745969772,1632149539.15134,1632149539.15274,1632149546.73751,1632149546.74874,1632149548.83829,1632149554.12359,1632149554.12538,1632149554.6652,1632149554.65713,1632149965.36029,1
64,4,1,3,11,7,4,c4_HowHand,1,pressing button?,82,H_126.jpg,1632149358.11554,1632149358.12876,178.275804033279,7.58208394050598,185.861966123581,187.962750663757,0.3,194.098371019363,0.616895914077759,194.723081817627,1,left,0.600065946578979,194.715266933441,604.484745969772,607.244745969772,1632149539.15134,1632149539.15274,1632149546.73751,1632149546.74874,1632149548.83829,1632149554.97391,1632149554.9757,1632149555.59862,1632149555.59081,1632149965.36029,1
64,4,1,3,11,8,4,c4_HowHand,1,pressing button?,84,H_483.jpg,1632149358.11554,1632149358.12876,178.275804033279,7.58208394050598,185.861966123581,187.962750663757,0.3,195.032052030563,0.883663654327393,195.922626008987,1,left,0.871469974517822,195.915715684891,604.484745969772,607.244745969772,1632149539.15134,1632149539.15274,1632149546.73751,1632149546.74874,1632149548.83829,1632149555.90759,1632149555.9094,1632149556.79817,1632149556.79125,1632149965.36029,1
64,4,1,3,12,1,2,c2_WhyHand,1,competing?,9,H_261.jpg,1632149358.11554,1632149358.12876,195.999079933167,7.64883995056152,203.651933898926,205.752717008591,2.10078310966492,205.902773132324,0.716933727264404,206.622932901382,1,left,0.706561803817749,206.619706859589,604.484745969772,607.244745969772,1632149556.87462,1632149556.87622,1632149564.52747,1632149564.53232,1632149566.62826,1632149566.77831,1632149566.78222,1632149567.49847,1632149567.49525,1632149965.36029,1
64,4,1,3,12,2,2,c2_WhyHand,2,competing?,12,H_483.jpg,1632149358.11554,1632149358.12876,195.999079933167,7.64883995056152,203.651933898926,205.752717008591,0.3,206.936491956711,0.70026159286499,207.63960193634,3,right,0.687484979629517,207.636753549576,604.484745969772,607.244745969772,1632149556.87462,1632149556.87622,1632149564.52747,1632149564.53232,1632149566.62826,1632149567.81203,1632149567.81534,1632149568.51514,1632149568.51229,1632149965.36029,0
64,4,1,3,12,3,2,c2_WhyHand,1,competing?,14,H_132.jpg,1632149358.11554,1632149358.12876,195.999079933167,7.64883995056152,203.651933898926,205.752717008591,0.3,207.953538169861,1.06706404685974,209.022636880875,1,left,1.04215097427368,209.020602216721,604.484745969772,607.244745969772,1632149556.87462,1632149556.87622,1632149564.52747,1632149564.53232,1632149566.62826,1632149568.82908,1632149568.83191,1632149569.89818,1632149569.89614,1632149965.36029,1
64,4,1,3,12,4,2,c2_WhyHand,2,competing?,10,H_126.jpg,1632149358.11554,1632149358.12876,195.999079933167,7.64883995056152,203.651933898926,205.752717008591,0.3,209.337387075424,0.766954183578491,210.106353034973,3,right,0.7515549659729,210.104341259003,604.484745969772,607.244745969772,1632149556.87462,1632149556.87622,1632149564.52747,1632149564.53232,1632149566.62826,1632149570.21293,1632149570.21529,1632149570.98189,1632149570.97988,1632149965.36029,0
64,4,1,3,12,5,2,c2_WhyHand,1,competing?,16,H_136.jpg,1632149358.11554,1632149358.12876,195.999079933167,7.64883995056152,203.651933898926,205.752717008591,0.3,210.421124687195,0.850317239761353,211.27256893158,1,left,0.830444097518921,211.271441926956,604.484745969772,607.244745969772,1632149556.87462,1632149556.87622,1632149564.52747,1632149564.53232,1632149566.62826,1632149571.29666,1632149571.29881,1632149572.14811,1632149572.14698,1632149965.36029,1
64,4,1,3,12,6,2,c2_WhyHand,2,competing?,11,H_502.jpg,1632149358.11554,1632149358.12876,195.999079933167,7.64883995056152,203.651933898926,205.752717008591,0.3,211.58822678566,1.15042924880981,212.740213861465,3,right,1.14089679718018,212.73865603447,604.484745969772,607.244745969772,1632149556.87462,1632149556.87622,1632149564.52747,1632149564.53232,1632149566.62826,1632149572.46377,1632149572.46543,1632149573.61575,1632149573.6142,1632149965.36029,0
64,4,1,3,12,7,2,c2_WhyHand,1,competing?,13,H_003.jpg,1632149358.11554,1632149358.12876,195.999079933167,7.64883995056152,203.651933898926,205.752717008591,0.3,213.055441131592,0.750279188156128,213.807349910736,1,left,0.731848001480103,213.805720319748,604.484745969772,607.244745969772,1632149556.87462,1632149556.87622,1632149564.52747,1632149564.53232,1632149566.62826,1632149573.93098,1632149573.9324,1632149574.68289,1632149574.68126,1632149965.36029,1
64,4,1,3,12,8,2,c2_WhyHand,1,competing?,15,H_170.jpg,1632149358.11554,1632149358.12876,195.999079933167,7.64883995056152,203.651933898926,205.752717008591,0.3,214.122504940033,0.616897344589233,214.740695943832,1,left,0.606372117996216,214.739402284622,604.484745969772,607.244745969772,1632149556.87462,1632149556.87622,1632149564.52747,1632149564.53232,1632149566.62826,1632149574.99804,1632149574.99945,1632149575.61624,1632149575.61494,1632149965.36029,1
64,4,1,3,13,1,1,c1_WhyFace,1,self-doubt?,29,F_544.jpg,1632149358.11554,1632149358.12876,214.806092729568,6.91175508499146,221.725340118408,223.826123943329,2.10078382492065,223.9761805439,1.01704525947571,224.994941940308,1,left,0.997756004333496,224.993225803375,604.484745969772,607.244745969772,1632149575.68163,1632149575.68273,1632149582.60088,1632149582.60239,1632149584.70166,1632149584.85172,1632149584.85352,1632149585.87048,1632149585.86876,1632149965.36029,1
64,4,1,3,13,2,1,c1_WhyFace,2,self-doubt?,27,F_086.jpg,1632149358.11554,1632149358.12876,214.806092729568,6.91175508499146,221.725340118408,223.826123943329,0.3,225.310009946823,0.917007923126221,226.239733924866,3,right,0.905938148498535,226.227017869949,604.484745969772,607.244745969772,1632149575.68163,1632149575.68273,1632149582.60088,1632149582.60239,1632149584.70166,1632149586.18555,1632149586.18714,1632149587.11527,1632149587.10256,1632149965.36029,0
64,4,1,3,13,3,1,c1_WhyFace,1,self-doubt?,25,F_798.jpg,1632149358.11554,1632149358.12876,214.806092729568,6.91175508499146,221.725340118408,223.826123943329,0.3,226.543803920746,0.733607292175293,227.289707889557,1,left,0.722988843917847,227.277411212921,604.484745969772,607.244745969772,1632149575.68163,1632149575.68273,1632149582.60088,1632149582.60239,1632149584.70166,1632149587.41934,1632149587.42038,1632149588.16525,1632149588.15295,1632149965.36029,1
64,4,1,3,13,4,1,c1_WhyFace,1,self-doubt?,26,F_111.jpg,1632149358.11554,1632149358.12876,214.806092729568,6.91175508499146,221.725340118408,223.826123943329,0.3,227.594194879532,0.600224494934082,228.20635389328,1,left,0.588290929794312,228.194419374466,604.484745969772,607.244745969772,1632149575.68163,1632149575.68273,1632149582.60088,1632149582.60239,1632149584.70166,1632149588.46973,1632149588.47115,1632149589.08189,1632149589.06996,1632149965.36029,1
64,4,1,3,13,5,1,c1_WhyFace,2,self-doubt?,31,F_774.jpg,1632149358.11554,1632149358.12876,214.806092729568,6.91175508499146,221.725340118408,223.826123943329,0.3,228.51120423317,0.650242567062378,229.163054933548,3,right,0.634171009063721,229.161446800232,604.484745969772,607.244745969772,1632149575.68163,1632149575.68273,1632149582.60088,1632149582.60239,1632149584.70166,1632149589.38674,1632149589.38823,1632149590.03859,1632149590.03699,1632149965.36029,0
64,4,1,3,13,6,1,c1_WhyFace,1,self-doubt?,28,F_754.jpg,1632149358.11554,1632149358.12876,214.806092729568,6.91175508499146,221.725340118408,223.826123943329,0.3,229.478231897354,0.883662223815918,230.363392820358,1,left,0.865283012390137,230.36189412117,604.484745969772,607.244745969772,1632149575.68163,1632149575.68273,1632149582.60088,1632149582.60239,1632149584.70166,1632149590.35377,1632149590.35548,1632149591.23893,1632149591.23743,1632149965.36029,1
64,4,1,3,13,7,1,c1_WhyFace,2,self-doubt?,32,F_128.jpg,1632149358.11554,1632149358.12876,214.806092729568,6.91175508499146,221.725340118408,223.826123943329,0.3,230.678678741455,0.833645582199097,231.513854970932,3,right,0.811363935470581,231.512324323654,604.484745969772,607.244745969772,1632149575.68163,1632149575.68273,1632149582.60088,1632149582.60239,1632149584.70166,1632149591.55422,1632149591.55559,1632149592.38939,1632149592.38786,1632149965.36029,0
64,4,1,3,13,8,1,c1_WhyFace,1,self-doubt?,30,F_584.jpg,1632149358.11554,1632149358.12876,214.806092729568,6.91175508499146,221.725340118408,223.826123943329,0.3,231.829109182358,1.35050272941589,233.181128015518,3,right,1.33465695381165,233.179611911774,604.484745969772,607.244745969772,1632149575.68163,1632149575.68273,1632149582.60088,1632149582.60239,1632149584.70166,1632149592.70465,1632149592.70622,1632149594.05667,1632149594.05515,1632149965.36029,0
64,4,1,3,14,1,3,c3_HowFace,1,looking at camera?,64,F_128.jpg,1632149358.11554,1632149358.12876,233.262975683212,7.50882935523987,240.78244685173,242.883230438232,2.10078358650208,243.033287277222,1.00037264823914,244.039785852432,1,left,0.982928991317749,244.033659925461,604.484745969772,607.244745969772,1632149594.13851,1632149594.14013,1632149601.65799,1632149601.66536,1632149603.75877,1632149603.90883,1632149603.91572,1632149604.91532,1632149604.9092,1632149965.36029,1
64,4,1,3,14,2,3,c3_HowFace,1,looking at camera?,60,F_618.jpg,1632149358.11554,1632149358.12876,233.262975683212,7.50882935523987,240.78244685173,242.883230438232,0.3,244.350444068909,0.650242328643799,245.006392946243,1,left,0.643326997756958,245.000686397552,604.484745969772,607.244745969772,1632149594.13851,1632149594.14013,1632149601.65799,1632149601.66536,1632149603.75877,1632149605.22598,1632149605.22744,1632149605.88193,1632149605.87623,1632149965.36029,1
64,4,1,3,14,3,3,c3_HowFace,1,looking at camera?,62,F_598.jpg,1632149358.11554,1632149358.12876,233.262975683212,7.50882935523987,240.78244685173,242.883230438232,0.3,245.317471971512,0.967027187347412,246.289753904343,1,left,0.952370166778564,246.284499158859,604.484745969772,607.244745969772,1632149594.13851,1632149594.14013,1632149601.65799,1632149601.66536,1632149603.75877,1632149606.19301,1632149606.19447,1632149607.16529,1632149607.16004,1632149965.36029,1
64,4,1,3,14,4,3,c3_HowFace,2,looking at camera?,63,F_743.jpg,1632149358.11554,1632149358.12876,233.262975683212,7.50882935523987,240.78244685173,242.883230438232,0.3,246.601284017563,0.600224256515503,247.206259002686,3,right,0.588252067565918,247.201508274078,604.484745969772,607.244745969772,1632149594.13851,1632149594.14013,1632149601.65799,1632149601.66536,1632149603.75877,1632149607.47682,1632149607.47823,1632149608.0818,1632149608.07705,1632149965.36029,0
64,4,1,3,14,5,3,c3_HowFace,1,looking at camera?,61,F_774.jpg,1632149358.11554,1632149358.12876,233.262975683212,7.50882935523987,240.78244685173,242.883230438232,0.3,247.518292417526,0.616896629333496,248.139525880814,1,left,0.608318090438843,248.13518904686,604.484745969772,607.244745969772,1632149594.13851,1632149594.14013,1632149601.65799,1632149601.66536,1632149603.75877,1632149608.39383,1632149608.39531,1632149609.01506,1632149609.01073,1632149965.36029,1
64,4,1,3,14,6,3,c3_HowFace,2,looking at camera?,57,F_582.jpg,1632149358.11554,1632149358.12876,233.262975683212,7.50882935523987,240.78244685173,242.883230438232,0.3,248.451974143982,1.00037312507629,249.45640586853,3,right,0.976491212844849,249.452347269058,604.484745969772,607.244745969772,1632149594.13851,1632149594.14013,1632149601.65799,1632149601.66536,1632149603.75877,1632149609.32751,1632149609.3318,1632149610.33194,1632149610.32789,1632149965.36029,0
64,4,1,3,14,7,3,c3_HowFace,2,looking at camera?,58,F_754.jpg,1632149358.11554,1632149358.12876,233.262975683212,7.50882935523987,240.78244685173,242.883230438232,0.3,249.769131889343,0.68358850479126,250.456364860535,3,right,0.663585186004639,250.452720394135,604.484745969772,607.244745969772,1632149594.13851,1632149594.14013,1632149601.65799,1632149601.66536,1632149603.75877,1632149610.64467,1632149610.64872,1632149611.3319,1632149611.32826,1632149965.36029,0
64,4,1,3,14,8,3,c3_HowFace,1,looking at camera?,59,F_129.jpg,1632149358.11554,1632149358.12876,233.262975683212,7.50882935523987,240.78244685173,242.883230438232,0.3,250.769505252838,0.683587312698364,251.454609861374,1,left,0.658207893371582,251.453092565537,604.484745969772,607.244745969772,1632149594.13851,1632149594.14013,1632149601.65799,1632149601.66536,1632149603.75877,1632149611.64504,1632149611.64854,1632149612.33015,1632149612.32863,1632149965.36029,1
64,4,1,3,15,1,4,c4_HowHand,1,both hands?,123,H_167.jpg,1632149358.11554,1632149358.12876,251.536458005905,8.02538681030273,259.572787752151,261.673570861816,2.10078310966492,261.823626747131,1.15043067932129,262.975596895218,1,left,1.12756013870239,262.974057426453,604.484745969772,607.244745969772,1632149612.412,1632149612.4152,1632149620.44833,1632149620.45002,1632149622.54911,1632149622.69917,1632149622.70078,1632149623.85114,1632149623.8496,1632149965.36029,1
64,4,1,3,15,2,4,c4_HowHand,2,both hands?,121,H_091.jpg,1632149358.11554,1632149358.12876,251.536458005905,8.02538681030273,259.572787752151,261.673570861816,0.3,263.290841093063,1.08373713493347,264.376001825333,3,right,1.06792688369751,264.374578227997,604.484745969772,607.244745969772,1632149612.412,1632149612.4152,1632149620.44833,1632149620.45002,1632149622.54911,1632149624.16638,1632149624.16798,1632149625.25154,1632149625.25012,1632149965.36029,0
64,4,1,3,15,3,4,c4_HowHand,2,both hands?,125,H_627.jpg,1632149358.11554,1632149358.12876,251.536458005905,8.02538681030273,259.572787752151,261.673570861816,0.3,264.691362848282,1.31715822219849,266.009783973694,3,right,1.30507779121399,266.00852107048,604.484745969772,607.244745969772,1632149612.412,1632149612.4152,1632149620.44833,1632149620.45002,1632149622.54911,1632149625.5669,1632149625.56823,1632149626.88532,1632149626.88406,1632149965.36029,0
64,4,1,3,15,4,4,c4_HowHand,1,both hands?,128,H_027.jpg,1632149358.11554,1632149358.12876,251.536458005905,8.02538681030273,259.572787752151,261.673570861816,0.3,266.325305690765,0.900336742401123,267.227152814865,1,left,0.883190870285034,267.225642433167,604.484745969772,607.244745969772,1632149612.412,1632149612.4152,1632149620.44833,1632149620.45002,1632149622.54911,1632149627.20084,1632149627.20316,1632149628.10269,1632149628.10118,1632149965.36029,1
64,4,1,3,15,5,4,c4_HowHand,1,both hands?,122,H_111.jpg,1632149358.11554,1632149358.12876,251.536458005905,8.02538681030273,259.572787752151,261.673570861816,0.3,267.542427053452,1.23379302024841,268.777696838379,1,left,1.21406507492065,268.7762200737,604.484745969772,607.244745969772,1632149612.412,1632149612.4152,1632149620.44833,1632149620.45002,1632149622.54911,1632149628.41797,1632149628.41933,1632149629.65324,1632149629.65176,1632149965.36029,1
64,4,1,3,15,6,4,c4_HowHand,2,both hands?,126,H_159.jpg,1632149358.11554,1632149358.12876,251.536458005905,8.02538681030273,259.572787752151,261.673570861816,0.3,269.093005409241,1.18377447128296,270.278270950317,3,right,1.16448998451233,270.276779880524,604.484745969772,607.244745969772,1632149612.412,1632149612.4152,1632149620.44833,1632149620.45002,1632149622.54911,1632149629.96854,1632149629.9699,1632149631.15381,1632149631.15232,1632149965.36029,0
64,4,1,3,15,7,4,c4_HowHand,1,both hands?,124,H_581.jpg,1632149358.11554,1632149358.12876,251.536458005905,8.02538681030273,259.572787752151,261.673570861816,0.3,270.593565216064,1.00037121772766,271.595487823486,1,left,0.979357957839966,271.593936433792,604.484745969772,607.244745969772,1632149612.412,1632149612.4152,1632149620.44833,1632149620.45002,1632149622.54911,1632149631.4691,1632149631.47048,1632149632.47103,1632149632.46948,1632149965.36029,1
64,4,1,3,15,8,4,c4_HowHand,1,both hands?,127,H_349.jpg,1632149358.11554,1632149358.12876,251.536458005905,8.02538681030273,259.572787752151,261.673570861816,0.3,271.910721769333,0.933681726455688,272.845866909027,1,left,0.913810014724731,272.844403495789,604.484745969772,607.244745969772,1632149612.412,1632149612.4152,1632149620.44833,1632149620.45002,1632149622.54911,1632149632.78626,1632149632.78835,1632149633.72141,1632149633.71994,1632149965.36029,1
64,4,1,3,16,1,2,c2_WhyHand,1,self-protection?,89,H_443.jpg,1632149358.11554,1632149358.12876,272.927767982483,5.42417883872986,278.363127937317,280.463912477493,2.10078454017639,280.61396812439,0.883662939071655,281.506433954239,1,left,0.869786977767944,281.497631063461,604.484745969772,607.244745969772,1632149633.80331,1632149633.8047,1632149639.23867,1632149639.24088,1632149641.33945,1632149641.48951,1632149641.49142,1632149642.38197,1632149642.37317,1632149965.36029,1
64,4,1,3,16,2,2,c2_WhyHand,2,self-protection?,90,H_006.jpg,1632149358.11554,1632149358.12876,272.927767982483,5.42417883872986,278.363127937317,280.463912477493,0.3,281.814415922165,1.35050320625305,283.173058977127,3,right,1.33386397361755,283.164919128418,604.484745969772,607.244745969772,1632149633.80331,1632149633.8047,1632149639.23867,1632149639.24088,1632149641.33945,1632149642.68995,1632149642.6914,1632149644.0486,1632149644.04046,1632149965.36029,0
64,4,1,3,16,3,2,c2_WhyHand,1,self-protection?,91,H_581.jpg,1632149358.11554,1632149358.12876,272.927767982483,5.42417883872986,278.363127937317,280.463912477493,0.3,283.481703748703,1.13375663757324,284.622949829102,1,left,1.11978197097778,284.615460386276,604.484745969772,607.244745969772,1632149633.80331,1632149633.8047,1632149639.23867,1632149639.24088,1632149641.33945,1632149644.35724,1632149644.35882,1632149645.49849,1632149645.491,1632149965.36029,1
64,4,1,3,16,4,2,c2_WhyHand,2,self-protection?,92,H_532.jpg,1632149358.11554,1632149358.12876,272.927767982483,5.42417883872986,278.363127937317,280.463912477493,0.3,284.932245483398,1.11708164215088,286.056377878189,3,right,1.11012887954712,286.049327125549,604.484745969772,607.244745969772,1632149633.80331,1632149633.8047,1632149639.23867,1632149639.24088,1632149641.33945,1632149645.80778,1632149645.80913,1632149646.93192,1632149646.92487,1632149965.36029,0
64,4,1,3,16,5,2,c2_WhyHand,1,self-protection?,96,H_027.jpg,1632149358.11554,1632149358.12876,272.927767982483,5.42417883872986,278.363127937317,280.463912477493,0.3,286.366113414764,0.850316762924194,287.223429908752,1,left,0.832546949386597,287.216430177689,604.484745969772,607.244745969772,1632149633.80331,1632149633.8047,1632149639.23867,1632149639.24088,1632149641.33945,1632149647.24165,1632149647.24324,1632149648.09897,1632149648.09197,1632149965.36029,1
64,4,1,3,16,6,2,c2_WhyHand,1,self-protection?,93,H_038.jpg,1632149358.11554,1632149358.12876,272.927767982483,5.42417883872986,278.363127937317,280.463912477493,0.3,287.533214559555,0.900336742401123,288.435047855377,1,left,0.879454135894775,288.433551301956,604.484745969772,607.244745969772,1632149633.80331,1632149633.8047,1632149639.23867,1632149639.24088,1632149641.33945,1632149648.40875,1632149648.41024,1632149649.31059,1632149649.30909,1632149965.36029,1
64,4,1,3,16,7,2,c2_WhyHand,2,self-protection?,95,H_332.jpg,1632149358.11554,1632149358.12876,272.927767982483,5.42417883872986,278.363127937317,280.463912477493,0.3,288.750335683823,0.967027187347412,289.722928991318,3,right,0.95783519744873,289.71736287117,604.484745969772,607.244745969772,1632149633.80331,1632149633.8047,1632149639.23867,1632149639.24088,1632149641.33945,1632149649.62587,1632149649.6278,1632149650.59847,1632149650.5929,1632149965.36029,0
64,4,1,3,16,8,2,c2_WhyHand,1,self-protection?,94,H_189.jpg,1632149358.11554,1632149358.12876,272.927767982483,5.42417883872986,278.363127937317,280.463912477493,0.3,290.034147968292,0.850317001342773,290.886237850189,1,left,0.828954935073853,290.884464969635,604.484745969772,607.244745969772,1632149633.80331,1632149633.8047,1632149639.23867,1632149639.24088,1632149641.33945,1632149650.90969,1632149650.91148,1632149651.76178,1632149651.76,1632149965.36029,1
64,4,1,3,17,1,3,c3_HowFace,1,smiling?,118,F_759.jpg,1632149358.11554,1632149358.12876,290.967828741074,8.86413812637329,299.837804307938,301.938586940765,2.10078263282776,302.088643064499,0.70026159286499,302.790113916397,1,left,0.684731006622314,302.788904657364,604.484745969772,607.244745969772,1632149651.84337,1632149651.84861,1632149660.71334,1632149660.71561,1632149662.81413,1632149662.96418,1632149662.96592,1632149663.66565,1632149663.66444,1632149965.36029,1
64,4,1,3,17,2,3,c3_HowFace,2,smiling?,114,F_412.jpg,1632149358.11554,1632149358.12876,290.967828741074,8.86413812637329,299.837804307938,301.938586940765,0.3,303.10568903923,0.900335073471069,304.007110824585,3,right,0.885790109634399,304.006024112701,604.484745969772,607.244745969772,1632149651.84337,1632149651.84861,1632149660.71334,1632149660.71561,1632149662.81413,1632149663.98123,1632149663.98281,1632149664.88265,1632149664.88156,1632149965.36029,0
64,4,1,3,17,3,3,c3_HowFace,1,smiling?,117,F_593.jpg,1632149358.11554,1632149358.12876,290.967828741074,8.86413812637329,299.837804307938,301.938586940765,0.3,304.322808732986,0.86699104309082,305.190798988342,1,left,0.855390071868896,305.189799776077,604.484745969772,607.244745969772,1632149651.84337,1632149651.84861,1632149660.71334,1632149660.71561,1632149662.81413,1632149665.19835,1632149665.19994,1632149666.06634,1632149666.06534,1632149965.36029,1
64,4,1,3,17,4,3,c3_HowFace,2,smiling?,113,F_712.jpg,1632149358.11554,1632149358.12876,290.967828741074,8.86413812637329,299.837804307938,301.938586940765,0.3,305.506583919525,0.716933727264404,306.224551906586,3,right,0.703248023986816,306.22351764679,604.484745969772,607.244745969772,1632149651.84337,1632149651.84861,1632149660.71334,1632149660.71561,1632149662.81413,1632149666.38212,1632149666.38394,1632149667.10009,1632149667.09906,1632149965.36029,0
64,4,1,3,17,5,3,c3_HowFace,1,smiling?,115,F_695.jpg,1632149358.11554,1632149358.12876,290.967828741074,8.86413812637329,299.837804307938,301.938586940765,0.3,306.54030298233,0.750280380249023,307.29168390274,1,left,0.737210988998413,307.290583362579,604.484745969772,607.244745969772,1632149651.84337,1632149651.84861,1632149660.71334,1632149660.71561,1632149662.81413,1632149667.41584,1632149667.41759,1632149668.16722,1632149668.16612,1632149965.36029,1
64,4,1,3,17,6,3,c3_HowFace,1,smiling?,119,F_139.jpg,1632149358.11554,1632149358.12876,290.967828741074,8.86413812637329,299.837804307938,301.938586940765,0.3,307.607368221283,0.600223541259766,308.209416856766,1,left,0.583233118057251,308.207591762543,604.484745969772,607.244745969772,1632149651.84337,1632149651.84861,1632149660.71334,1632149660.71561,1632149662.81413,1632149668.48291,1632149668.48429,1632149669.08496,1632149669.08313,1632149965.36029,1
64,4,1,3,17,7,3,c3_HowFace,1,smiling?,116,F_083.jpg,1632149358.11554,1632149358.12876,290.967828741074,8.86413812637329,299.837804307938,301.938586940765,0.3,308.524376859665,0.683588266372681,309.209379901886,1,left,0.666983842849731,309.207965126038,604.484745969772,607.244745969772,1632149651.84337,1632149651.84861,1632149660.71334,1632149660.71561,1632149662.81413,1632149669.39992,1632149669.40137,1632149670.08492,1632149670.0835,1632149965.36029,1
64,4,1,3,17,8,3,c3_HowFace,2,smiling?,120,F_758.jpg,1632149358.11554,1632149358.12876,290.967828741074,8.86413812637329,299.837804307938,301.938586940765,0.3,309.524748792648,0.566879034042358,310.106516828537,3,right,0.557978868484497,310.091627826691,604.484745969772,607.244745969772,1632149651.84337,1632149651.84861,1632149660.71334,1632149660.71561,1632149662.81413,1632149670.40029,1632149670.40201,1632149670.98206,1632149670.96717,1632149965.36029,0
64,4,1,3,18,1,1,c1_WhyFace,1,admiring?,1,F_593.jpg,1632149358.11554,1632149358.12876,310.191665401459,7.43028450012207,317.62777089119,319.728555431366,2.10078454017639,319.878610601425,0.816971778869629,320.696661939621,1,left,0.787724018096924,320.695582380295,604.484745969772,607.244745969772,1632149671.0672,1632149671.0682,1632149678.50331,1632149678.51605,1632149680.60409,1632149680.75415,1632149680.76539,1632149681.5722,1632149681.57112,1632149965.36029,1
64,4,1,3,18,2,1,c1_WhyFace,2,admiring?,2,F_129.jpg,1632149358.11554,1632149358.12876,310.191665401459,7.43028450012207,317.62777089119,319.728555431366,0.3,321.012367238998,1.38384914398193,322.406484832764,3,right,1.36970090866089,322.39621638298,604.484745969772,607.244745969772,1632149671.0672,1632149671.0682,1632149678.50331,1632149678.51605,1632149680.60409,1632149681.88791,1632149681.88955,1632149683.28202,1632149683.27176,1632149965.36029,0
64,4,1,3,18,3,1,c1_WhyFace,1,admiring?,5,F_759.jpg,1632149358.11554,1632149358.12876,310.191665401459,7.43028450012207,317.62777089119,319.728555431366,0.3,322.713000764847,0.816972494125366,323.539583911896,1,left,0.807007074356079,323.529973258972,604.484745969772,607.244745969772,1632149671.0672,1632149671.0682,1632149678.50331,1632149678.51605,1632149680.60409,1632149683.58854,1632149683.59025,1632149684.41512,1632149684.40551,1632149965.36029,1
64,4,1,3,18,4,1,c1_WhyFace,2,admiring?,6,F_692.jpg,1632149358.11554,1632149358.12876,310.191665401459,7.43028450012207,317.62777089119,319.728555431366,0.3,323.84675740242,0.967025995254517,324.815646877289,3,right,0.946687936782837,324.813783397675,604.484745969772,607.244745969772,1632149671.0672,1632149671.0682,1632149678.50331,1632149678.51605,1632149680.60409,1632149684.7223,1632149684.72382,1632149685.69119,1632149685.68932,1632149965.36029,0
64,4,1,3,18,5,1,c1_WhyFace,1,admiring?,4,F_779.jpg,1632149358.11554,1632149358.12876,310.191665401459,7.43028450012207,317.62777089119,319.728555431366,0.3,325.130569210052,0.900335550308228,326.032641878128,1,left,0.88264799118042,326.030904760361,604.484745969772,607.244745969772,1632149671.0672,1632149671.0682,1632149678.50331,1632149678.51605,1632149680.60409,1632149686.00611,1632149686.00749,1632149686.90818,1632149686.90644,1632149965.36029,1
64,4,1,3,18,6,1,c1_WhyFace,1,admiring?,8,F_590.jpg,1632149358.11554,1632149358.12876,310.191665401459,7.43028450012207,317.62777089119,319.728555431366,0.3,326.347690095901,0.533531665802002,326.889442911148,1,left,0.522246122360229,326.881221761704,604.484745969772,607.244745969772,1632149671.0672,1632149671.0682,1632149678.50331,1632149678.51605,1632149680.60409,1632149687.22323,1632149687.22504,1632149687.76498,1632149687.75676,1632149965.36029,1
64,4,1,3,18,7,1,c1_WhyFace,1,admiring?,7,F_648.jpg,1632149358.11554,1632149358.12876,310.191665401459,7.43028450012207,317.62777089119,319.728555431366,0.3,327.198007574081,0.733607053756714,327.932620992661,1,left,0.711716175079346,327.931614627838,604.484745969772,607.244745969772,1632149671.0672,1632149671.0682,1632149678.50331,1632149678.51605,1632149680.60409,1632149688.07355,1632149688.07553,1632149688.80816,1632149688.80715,1632149965.36029,1
64,4,1,3,18,8,1,c1_WhyFace,2,admiring?,3,F_110.jpg,1632149358.11554,1632149358.12876,310.191665401459,7.43028450012207,317.62777089119,319.728555431366,0.3,328.248397817612,0.600225448608398,328.850111951828,3,right,0.577888011932373,328.84862326622,604.484745969772,607.244745969772,1632149671.0672,1632149671.0682,1632149678.50331,1632149678.51605,1632149680.60409,1632149689.12394,1632149689.12541,1632149689.72565,1632149689.72416,1632149965.36029,0
64,4,1,3,19,1,2,c2_WhyHand,1,competing?,9,H_261.jpg,1632149358.11554,1632149358.12876,328.931987514496,6.57992339134216,335.517775764465,337.618559350967,2.10078358650208,337.768616189957,0.716934204101562,338.490028848648,1,left,0.694313049316406,338.485550394058,604.484745969772,607.244745969772,1632149689.80753,1632149689.8092,1632149696.39331,1632149696.39901,1632149698.4941,1632149698.64416,1632149698.64877,1632149699.36557,1632149699.36109,1632149965.36029,1
64,4,1,3,19,2,2,c2_WhyHand,1,competing?,15,H_170.jpg,1632149358.11554,1632149358.12876,328.931987514496,6.57992339134216,335.517775764465,337.618559350967,0.3,338.80233382225,0.566879272460938,339.372575035095,1,left,0.550649881362915,339.369213094711,604.484745969772,607.244745969772,1632149689.80753,1632149689.8092,1632149696.39331,1632149696.39901,1632149698.4941,1632149699.67787,1632149699.68215,1632149700.24811,1632149700.24475,1632149965.36029,1
64,4,1,3,19,3,2,c2_WhyHand,2,competing?,12,H_483.jpg,1632149358.11554,1632149358.12876,328.931987514496,6.57992339134216,335.517775764465,337.618559350967,0.3,339.685996999741,0.766952037811279,340.456367006302,3,right,0.756040096282959,340.452949037552,604.484745969772,607.244745969772,1632149689.80753,1632149689.8092,1632149696.39331,1632149696.39901,1632149698.4941,1632149700.56154,1632149700.56535,1632149701.33191,1632149701.32849,1632149965.36029,0
64,4,1,3,19,4,2,c2_WhyHand,1,competing?,14,H_132.jpg,1632149358.11554,1632149358.12876,328.931987514496,6.57992339134216,335.517775764465,337.618559350967,0.3,340.769735326767,0.616896390914917,341.389823904037,1,left,0.594843864440918,341.386631717682,604.484745969772,607.244745969772,1632149689.80753,1632149689.8092,1632149696.39331,1632149696.39901,1632149698.4941,1632149701.64527,1632149701.64866,1632149702.26536,1632149702.26217,1632149965.36029,1
64,4,1,3,19,5,2,c2_WhyHand,1,competing?,16,H_136.jpg,1632149358.11554,1632149358.12876,328.931987514496,6.57992339134216,335.517775764465,337.618559350967,0.3,341.703416337967,0.833643674850464,342.538857927322,1,left,0.809380054473877,342.537060012817,604.484745969772,607.244745969772,1632149689.80753,1632149689.8092,1632149696.39331,1632149696.39901,1632149698.4941,1632149702.57896,1632149702.58204,1632149703.4144,1632149703.4126,1632149965.36029,1
64,4,1,3,19,6,2,c2_WhyHand,1,competing?,13,H_003.jpg,1632149358.11554,1632149358.12876,328.931987514496,6.57992339134216,335.517775764465,337.618559350967,0.3,342.853846063614,0.700259923934937,343.556217899323,1,left,0.684799909591675,343.554105987549,604.484745969772,607.244745969772,1632149689.80753,1632149689.8092,1632149696.39331,1632149696.39901,1632149698.4941,1632149703.72939,1632149703.73201,1632149704.43176,1632149704.42965,1632149965.36029,1
64,4,1,3,19,7,2,c2_WhyHand,2,competing?,10,H_126.jpg,1632149358.11554,1632149358.12876,328.931987514496,6.57992339134216,335.517775764465,337.618559350967,0.3,343.870892038345,0.666913986206055,344.539932956696,3,right,0.646020889282227,344.537806024551,604.484745969772,607.244745969772,1632149689.80753,1632149689.8092,1632149696.39331,1632149696.39901,1632149698.4941,1632149704.74643,1632149704.74872,1632149705.41547,1632149705.41335,1632149965.36029,0
64,4,1,3,19,8,2,c2_WhyHand,2,competing?,11,H_502.jpg,1632149358.11554,1632149358.12876,328.931987514496,6.57992339134216,335.517775764465,337.618559350967,0.3,344.854591598511,0.833643674850464,345.706423034668,3,right,0.826941967010498,345.688235273361,604.484745969772,607.244745969772,1632149689.80753,1632149689.8092,1632149696.39331,1632149696.39901,1632149698.4941,1632149705.73013,1632149705.73224,1632149706.58196,1632149706.56377,1632149965.36029,0
64,4,1,3,20,1,4,c4_HowHand,1,reaching?,111,H_003.jpg,1632149358.11554,1632149358.12876,345.771598806381,11.2203190326691,357.00912355423,359.109908094406,2.10078454017639,359.259963741302,0.816971063613892,360.078008880615,1,left,0.804282188415527,360.076934804916,604.484745969772,607.244745969772,1632149706.64714,1632149706.64809,1632149717.88466,1632149717.88623,1632149719.98545,1632149720.1355,1632149720.13746,1632149720.95355,1632149720.95247,1632149965.36029,1
64,4,1,3,20,2,4,c4_HowHand,1,reaching?,110,H_364.jpg,1632149358.11554,1632149358.12876,345.771598806381,11.2203190326691,357.00912355423,359.109908094406,0.3,360.393720140457,0.850317001342773,361.245102872849,1,left,0.833560943603516,361.2440371418,604.484745969772,607.244745969772,1632149706.64714,1632149706.64809,1632149717.88466,1632149717.88623,1632149719.98545,1632149721.26926,1632149721.27131,1632149722.12064,1632149722.11958,1632149965.36029,1
64,4,1,3,20,3,4,c4_HowHand,2,reaching?,108,H_532.jpg,1632149358.11554,1632149358.12876,345.771598806381,11.2203190326691,357.00912355423,359.109908094406,0.3,361.560822000504,0.783624887466431,362.356564035416,3,right,0.774210929870605,362.34444688797,604.484745969772,607.244745969772,1632149706.64714,1632149706.64809,1632149717.88466,1632149717.88623,1632149719.98545,1632149722.43636,1632149722.43803,1632149723.2321,1632149723.21999,1632149965.36029,0
64,4,1,3,20,4,4,c4_HowHand,1,reaching?,106,H_006.jpg,1632149358.11554,1632149358.12876,345.771598806381,11.2203190326691,357.00912355423,359.109908094406,0.3,362.661231746674,0.750280141830444,363.423454990387,1,left,0.741257905960083,363.411511888504,604.484745969772,607.244745969772,1632149706.64714,1632149706.64809,1632149717.88466,1632149717.88623,1632149719.98545,1632149723.53677,1632149723.5384,1632149724.29899,1632149724.28705,1632149965.36029,1
64,4,1,3,20,5,4,c4_HowHand,2,reaching?,105,H_438.jpg,1632149358.11554,1632149358.12876,345.771598806381,11.2203190326691,357.00912355423,359.109908094406,0.3,363.728295793533,0.900335550308228,364.63993095398,3,right,0.888819932937622,364.628631343842,604.484745969772,607.244745969772,1632149706.64714,1632149706.64809,1632149717.88466,1632149717.88623,1632149719.98545,1632149724.60383,1632149724.60531,1632149725.51547,1632149725.50417,1632149965.36029,0
64,4,1,3,20,6,4,c4_HowHand,1,reaching?,107,H_007.jpg,1632149358.11554,1632149358.12876,345.771598806381,11.2203190326691,357.00912355423,359.109908094406,0.3,364.945417156219,0.733606815338135,365.680750837326,1,left,0.716336011886597,365.679023971558,604.484745969772,607.244745969772,1632149706.64714,1632149706.64809,1632149717.88466,1632149717.88623,1632149719.98545,1632149725.82096,1632149725.82231,1632149726.55629,1632149726.55456,1632149965.36029,1
64,4,1,3,20,7,4,c4_HowHand,1,reaching?,109,H_474.jpg,1632149358.11554,1632149358.12876,345.771598806381,11.2203190326691,357.00912355423,359.109908094406,0.3,365.995808353424,1.71730804443359,367.758853902817,1,left,1.74204797744751,367.713116397858,604.484745969772,607.244745969772,1632149706.64714,1632149706.64809,1632149717.88466,1632149717.88623,1632149719.98545,1632149726.87135,1632149726.87292,1632149728.63439,1632149728.58866,1632149965.36029,1
64,4,1,3,20,8,4,c4_HowHand,2,reaching?,112,H_132.jpg,1632149358.11554,1632149358.12876,345.771598806381,11.2203190326691,357.00912355423,359.109908094406,0.3,368.029901018143,1.71730709075928,NaN,0,NA,0,369.747208108902,604.484745969772,607.244745969772,1632149706.64714,1632149706.64809,1632149717.88466,1632149717.88623,1632149719.98545,1632149728.90544,1632149728.90696,NaN,1632149730.62275,1632149965.36029,0
64,4,1,3,21,1,3,c3_HowFace,1,open mouth?,73,F_403.jpg,1632149358.11554,1632149358.12876,370.097338666916,4.73490428924561,374.849110355377,376.949894180298,2.10078382492065,377.099949827194,0.700261116027832,377.801726808548,1,left,0.678202152252197,377.800210943222,604.484745969772,607.244745969772,1632149730.97288,1632149730.97481,1632149735.72465,1632149735.72682,1632149737.82543,1632149737.97549,1632149737.97758,1632149738.67727,1632149738.67575,1632149965.36029,1
64,4,1,3,21,2,3,c3_HowFace,2,open mouth?,79,F_648.jpg,1632149358.11554,1632149358.12876,370.097338666916,4.73490428924561,374.849110355377,376.949894180298,0.3,378.116996278763,0.616897106170654,378.739981880188,3,right,0.603411912918091,378.733893384933,604.484745969772,607.244745969772,1632149730.97288,1632149730.97481,1632149735.72465,1632149735.72682,1632149737.82543,1632149738.99254,1632149738.99472,1632149739.61552,1632149739.60943,1632149965.36029,0
64,4,1,3,21,3,3,c3_HowFace,1,open mouth?,74,F_776.jpg,1632149358.11554,1632149358.12876,370.097338666916,4.73490428924561,374.849110355377,376.949894180298,0.3,379.050676574707,0.516859531402588,379.572589864731,1,left,0.507764101028442,379.56753610611,604.484745969772,607.244745969772,1632149730.97288,1632149730.97481,1632149735.72465,1632149735.72682,1632149737.82543,1632149739.92622,1632149739.92788,1632149740.44813,1632149740.44308,1632149965.36029,1
64,4,1,3,21,4,3,c3_HowFace,2,open mouth?,77,F_584.jpg,1632149358.11554,1632149358.12876,370.097338666916,4.73490428924561,374.849110355377,376.949894180298,0.3,379.884320726395,0.850317239761353,380.736381998062,3,right,0.829182147979736,380.734637966156,604.484745969772,607.244745969772,1632149730.97288,1632149730.97481,1632149735.72465,1632149735.72682,1632149737.82543,1632149740.75986,1632149740.76142,1632149741.61192,1632149741.61018,1632149965.36029,0
64,4,1,3,21,5,3,c3_HowFace,1,open mouth?,80,F_844.jpg,1632149358.11554,1632149358.12876,370.097338666916,4.73490428924561,374.849110355377,376.949894180298,0.3,381.051423063278,0.600224494934082,381.656590929031,1,left,0.589215040206909,381.651647558212,604.484745969772,607.244745969772,1632149730.97288,1632149730.97481,1632149735.72465,1632149735.72682,1632149737.82543,1632149741.92696,1632149741.92851,1632149742.53213,1632149742.52719,1632149965.36029,1
64,4,1,3,21,6,3,c3_HowFace,1,open mouth?,78,F_692.jpg,1632149358.11554,1632149358.12876,370.097338666916,4.73490428924561,374.849110355377,376.949894180298,0.3,381.968432893753,0.550204038619995,382.52040099144,1,left,0.525589942932129,382.518636932373,604.484745969772,607.244745969772,1632149730.97288,1632149730.97481,1632149735.72465,1632149735.72682,1632149737.82543,1632149742.84397,1632149742.84876,1632149743.39594,1632149743.39418,1632149965.36029,1
64,4,1,3,21,7,3,c3_HowFace,1,open mouth?,75,F_086.jpg,1632149358.11554,1632149358.12876,370.097338666916,4.73490428924561,374.849110355377,376.949894180298,0.3,382.835422029495,0.633569955825806,383.470027914047,1,left,0.609277009963989,383.468991985321,604.484745969772,607.244745969772,1632149730.97288,1632149730.97481,1632149735.72465,1632149735.72682,1632149737.82543,1632149743.71096,1632149743.71531,1632149744.34557,1632149744.34453,1632149965.36029,1
64,4,1,3,21,8,3,c3_HowFace,2,open mouth?,76,F_544.jpg,1632149358.11554,1632149358.12876,370.097338666916,4.73490428924561,374.849110355377,376.949894180298,0.3,383.785776128769,0.566877841949463,384.356540908813,3,right,0.551275968551636,384.352653970718,604.484745969772,607.244745969772,1632149730.97288,1632149730.97481,1632149735.72465,1632149735.72682,1632149737.82543,1632149744.66132,1632149744.66527,1632149745.23208,1632149745.22819,1632149965.36029,0
64,4,1,3,22,1,1,c1_WhyFace,1,argument?,42,F_403.jpg,1632149358.11554,1632149358.12876,384.436019172668,9.07197284698486,393.522741069794,395.62352394104,2.10078287124634,395.773580303192,0.533531427383423,396.323273887634,1,left,0.524641990661621,396.307111730576,604.484745969772,607.244745969772,1632149745.31156,1632149745.31523,1632149754.39828,1632149754.39986,1632149756.49906,1632149756.64912,1632149756.6514,1632149757.19881,1632149757.18265,1632149965.36029,1
64,4,1,3,22,2,1,c1_WhyFace,2,argument?,46,F_844.jpg,1632149358.11554,1632149358.12876,384.436019172668,9.07197284698486,393.522741069794,395.62352394104,0.3,396.623896827698,0.666916608810425,397.291983833313,3,right,0.644309997558594,397.290813436508,604.484745969772,607.244745969772,1632149745.31156,1632149745.31523,1632149754.39828,1632149754.39986,1632149756.49906,1632149757.49944,1632149757.50105,1632149758.16752,1632149758.16635,1632149965.36029,0
64,4,1,3,22,3,1,c1_WhyFace,1,argument?,41,F_712.jpg,1632149358.11554,1632149358.12876,384.436019172668,9.07197284698486,393.522741069794,395.62352394104,0.3,397.607598056793,0.683588266372681,398.292234888077,1,left,0.667054176330566,398.291186323166,604.484745969772,607.244745969772,1632149745.31156,1632149745.31523,1632149754.39828,1632149754.39986,1632149756.49906,1632149758.48314,1632149758.48487,1632149759.16777,1632149759.16673,1632149965.36029,1
64,4,1,3,22,4,1,c1_WhyFace,1,argument?,48,F_758.jpg,1632149358.11554,1632149358.12876,384.436019172668,9.07197284698486,393.522741069794,395.62352394104,0.3,398.607970943451,0.633569002151489,399.242928972244,1,left,0.613874912261963,399.241539945602,604.484745969772,607.244745969772,1632149745.31156,1632149745.31523,1632149754.39828,1632149754.39986,1632149756.49906,1632149759.48351,1632149759.48523,1632149760.11847,1632149760.11708,1632149965.36029,1
64,4,1,3,22,5,1,c1_WhyFace,2,argument?,45,F_433.jpg,1632149358.11554,1632149358.12876,384.436019172668,9.07197284698486,393.522741069794,395.62352394104,0.3,399.558325042725,0.583550691604614,400.143370857239,3,right,0.567212104797363,400.141875734329,604.484745969772,607.244745969772,1632149745.31156,1632149745.31523,1632149754.39828,1632149754.39986,1632149756.49906,1632149760.43386,1632149760.43559,1632149761.01891,1632149761.01741,1632149965.36029,0
64,4,1,3,22,6,1,c1_WhyFace,1,argument?,43,F_716.jpg,1632149358.11554,1632149358.12876,384.436019172668,9.07197284698486,393.522741069794,395.62352394104,0.3,400.458660831451,0.50018572807312,400.972625961304,1,left,0.493413925170898,400.958846559525,604.484745969772,607.244745969772,1632149745.31156,1632149745.31523,1632149754.39828,1632149754.39986,1632149756.49906,1632149761.3342,1632149761.33579,1632149761.84817,1632149761.83439,1632149965.36029,1
64,4,1,3,22,7,1,c1_WhyFace,2,argument?,44,F_139.jpg,1632149358.11554,1632149358.12876,384.436019172668,9.07197284698486,393.522741069794,395.62352394104,0.3,401.275631418228,0.633569955825806,401.91058801651,3,right,0.611493110656738,401.909201374054,604.484745969772,607.244745969772,1632149745.31156,1632149745.31523,1632149754.39828,1632149754.39986,1632149756.49906,1632149762.15117,1632149762.1528,1632149762.78613,1632149762.78474,1632149965.36029,0
64,4,1,3,22,8,1,c1_WhyFace,1,argument?,47,F_743.jpg,1632149358.11554,1632149358.12876,384.436019172668,9.07197284698486,393.522741069794,395.62352394104,0.3,402.225986948013,0.616896390914917,402.844496002197,1,left,0.599010944366455,402.842883338928,604.484745969772,607.244745969772,1632149745.31156,1632149745.31523,1632149754.39828,1632149754.39986,1632149756.49906,1632149763.10153,1632149763.10351,1632149763.72004,1632149763.71842,1632149965.36029,1
64,4,1,3,23,1,2,c2_WhyHand,1,helping?,39,H_024.jpg,1632149358.11554,1632149358.12876,402.926247825623,8.80178618431091,411.746204366684,413.846986999512,2.10078263282776,413.997042884827,0.80029821395874,414.806040992737,1,left,0.788628816604614,414.797341098785,604.484745969772,607.244745969772,1632149763.80179,1632149763.80348,1632149772.62174,1632149772.62479,1632149774.72253,1632149774.87258,1632149774.87452,1632149775.68158,1632149775.67288,1632149965.36029,1
64,4,1,3,23,2,2,c2_WhyHand,1,helping?,36,H_349.jpg,1632149358.11554,1632149358.12876,402.926247825623,8.80178618431091,411.746204366684,413.846986999512,0.3,415.114126195908,0.800298690795898,415.916172971725,1,left,0.781501054763794,415.914424886704,604.484745969772,607.244745969772,1632149763.80179,1632149763.80348,1632149772.62174,1632149772.62479,1632149774.72253,1632149775.98967,1632149775.99114,1632149776.79171,1632149776.78996,1632149965.36029,1
64,4,1,3,23,3,2,c2_WhyHand,1,helping?,38,H_077.jpg,1632149358.11554,1632149358.12876,402.926247825623,8.80178618431091,411.746204366684,413.846986999512,0.3,416.231208076477,0.783627271652222,417.016034832001,1,left,0.761788129806519,417.014835348129,604.484745969772,607.244745969772,1632149763.80179,1632149763.80348,1632149772.62174,1632149772.62479,1632149774.72253,1632149777.10675,1632149777.10851,1632149777.89157,1632149777.89037,1632149965.36029,1
64,4,1,3,23,4,2,c2_WhyHand,1,helping?,37,H_474.jpg,1632149358.11554,1632149358.12876,402.926247825623,8.80178618431091,411.746204366684,413.846986999512,0.3,417.331619491577,0.950354099273682,418.289769878387,1,left,0.936334133148193,418.281973590851,604.484745969772,607.244745969772,1632149763.80179,1632149763.80348,1632149772.62174,1632149772.62479,1632149774.72253,1632149778.20716,1632149778.20851,1632149779.16531,1632149779.15751,1632149965.36029,1
64,4,1,3,23,5,2,c2_WhyHand,2,helping?,33,H_091.jpg,1632149358.11554,1632149358.12876,402.926247825623,8.80178618431091,411.746204366684,413.846986999512,0.3,418.598758926392,1.03371810913086,419.639945020676,3,right,1.01892399787903,419.632477035522,604.484745969772,607.244745969772,1632149763.80179,1632149763.80348,1632149772.62174,1632149772.62479,1632149774.72253,1632149779.4743,1632149779.47595,1632149780.51548,1632149780.50802,1632149965.36029,0
64,4,1,3,23,6,2,c2_WhyHand,2,helping?,35,H_159.jpg,1632149358.11554,1632149358.12876,402.926247825623,8.80178618431091,411.746204366684,413.846986999512,0.3,419.949262609482,0.733606338500977,420.68403386116,3,right,0.713417053222656,420.682868947983,604.484745969772,607.244745969772,1632149763.80179,1632149763.80348,1632149772.62174,1632149772.62479,1632149774.72253,1632149780.8248,1632149780.82614,1632149781.55957,1632149781.55841,1632149965.36029,0
64,4,1,3,23,7,2,c2_WhyHand,1,helping?,34,H_111.jpg,1632149358.11554,1632149358.12876,402.926247825623,8.80178618431091,411.746204366684,413.846986999512,0.3,420.999654045105,0.750280380249023,421.75153087616,1,left,0.727576017379761,421.749934425354,604.484745969772,607.244745969772,1632149763.80179,1632149763.80348,1632149772.62174,1632149772.62479,1632149774.72253,1632149781.87519,1632149781.87669,1632149782.62707,1632149782.62547,1632149965.36029,1
64,4,1,3,23,8,2,c2_WhyHand,2,helping?,40,H_012.jpg,1632149358.11554,1632149358.12876,402.926247825623,8.80178618431091,411.746204366684,413.846986999512,0.3,422.06671880722,0.800297975540161,422.872599830627,3,right,0.78973388671875,422.867016782761,604.484745969772,607.244745969772,1632149763.80179,1632149763.80348,1632149772.62174,1632149772.62479,1632149774.72253,1632149782.94226,1632149782.94399,1632149783.74814,1632149783.74256,1632149965.36029,0
64,4,1,3,24,1,4,c4_HowHand,1,both hands?,122,H_111.jpg,1632149358.11554,1632149358.12876,422.950381507874,6.84748530387878,429.802937736511,431.903720846176,2.10078310966492,432.053775777817,0.733607292175293,432.789918889999,1,left,0.712126970291138,432.787383069992,604.484745969772,607.244745969772,1632149783.82592,1632149783.83217,1632149790.67848,1632149790.68231,1632149792.77926,1632149792.92931,1632149792.93206,1632149793.66546,1632149793.66292,1632149965.36029,1
64,4,1,3,24,2,4,c4_HowHand,1,both hands?,128,H_027.jpg,1632149358.11554,1632149358.12876,422.950381507874,6.84748530387878,429.802937736511,431.903720846176,0.3,433.104166975021,0.633571147918701,433.739900817871,1,left,0.621999979019165,433.73773812294,604.484745969772,607.244745969772,1632149783.82592,1632149783.83217,1632149790.67848,1632149790.68231,1632149792.77926,1632149793.97971,1632149793.9823,1632149794.61544,1632149794.61328,1632149965.36029,1
64,4,1,3,24,3,4,c4_HowHand,2,both hands?,121,H_091.jpg,1632149358.11554,1632149358.12876,422.950381507874,6.84748530387878,429.802937736511,431.903720846176,0.3,434.054523220062,0.616897583007812,434.673326005936,3,right,0.602805852890015,434.67142080307,604.484745969772,607.244745969772,1632149783.82592,1632149783.83217,1632149790.67848,1632149790.68231,1632149792.77926,1632149794.93006,1632149794.93226,1632149795.54887,1632149795.54696,1632149965.36029,0
64,4,1,3,24,4,4,c4_HowHand,1,both hands?,123,H_167.jpg,1632149358.11554,1632149358.12876,422.950381507874,6.84748530387878,429.802937736511,431.903720846176,0.3,434.988203516006,0.666916847229004,435.65685795784,1,left,0.648916006088257,435.655120363235,604.484745969772,607.244745969772,1632149783.82592,1632149783.83217,1632149790.67848,1632149790.68231,1632149792.77926,1632149795.86374,1632149795.86549,1632149796.5324,1632149796.53066,1632149965.36029,1
64,4,1,3,24,5,4,c4_HowHand,1,both hands?,124,H_581.jpg,1632149358.11554,1632149358.12876,422.950381507874,6.84748530387878,429.802937736511,431.903720846176,0.3,435.971904268265,0.883662700653076,436.856848945618,1,left,0.867953062057495,436.855566968918,604.484745969772,607.244745969772,1632149783.82592,1632149783.83217,1632149790.67848,1632149790.68231,1632149792.77926,1632149796.84744,1632149796.84923,1632149797.73239,1632149797.73111,1632149965.36029,1
64,4,1,3,24,6,4,c4_HowHand,2,both hands?,126,H_159.jpg,1632149358.11554,1632149358.12876,422.950381507874,6.84748530387878,429.802937736511,431.903720846176,0.3,437.172350635529,0.650243043899536,437.824030866623,3,right,0.637378931045532,437.822593679428,604.484745969772,607.244745969772,1632149783.82592,1632149783.83217,1632149790.67848,1632149790.68231,1632149792.77926,1632149798.04789,1632149798.0495,1632149798.69957,1632149798.69813,1632149965.36029,0
64,4,1,3,24,7,4,c4_HowHand,1,both hands?,127,H_349.jpg,1632149358.11554,1632149358.12876,422.950381507874,6.84748530387878,429.802937736511,431.903720846176,0.3,438.13937877655,0.616897583007812,438.757858028412,1,left,0.594313144683838,438.756276359558,604.484745969772,607.244745969772,1632149783.82592,1632149783.83217,1632149790.67848,1632149790.68231,1632149792.77926,1632149799.01492,1632149799.01645,1632149799.6334,1632149799.63182,1632149965.36029,1
64,4,1,3,24,8,4,c4_HowHand,2,both hands?,125,H_627.jpg,1632149358.11554,1632149358.12876,422.950381507874,6.84748530387878,429.802937736511,431.903720846176,0.3,439.073060741425,0.733607769012451,439.808498849869,3,right,0.714449882507324,439.806668510437,604.484745969772,607.244745969772,1632149783.82592,1632149783.83217,1632149790.67848,1632149790.68231,1632149792.77926,1632149799.9486,1632149799.95027,1632149800.68404,1632149800.68221,1632149965.36029,0
64,4,1,3,25,1,2,c2_WhyHand,1,healthy?,18,H_438.jpg,1632149358.11554,1632149358.12876,439.890032520294,7.42485642433167,447.326138963699,449.426922073364,2.10078310966492,449.576978197098,0.850316286087036,450.42894982338,1,left,0.832200050354004,450.427294483185,604.484745969772,607.244745969772,1632149800.76557,1632149800.76719,1632149808.20168,1632149808.20315,1632149810.30246,1632149810.45252,1632149810.45402,1632149811.30449,1632149811.30283,1632149965.36029,1
64,4,1,3,25,2,2,c2_WhyHand,1,healthy?,23,H_364.jpg,1632149358.11554,1632149358.12876,439.890032520294,7.42485642433167,447.326138963699,449.426922073364,0.3,450.744080295563,0.766952276229858,451.52297495842,1,left,0.759145021438599,451.511032571793,604.484745969772,607.244745969772,1632149800.76557,1632149800.76719,1632149808.20168,1632149808.20315,1632149810.30246,1632149811.61962,1632149811.62135,1632149812.39851,1632149812.38657,1632149965.36029,1
64,4,1,3,25,3,2,c2_WhyHand,1,healthy?,17,H_362.jpg,1632149358.11554,1632149358.12876,439.890032520294,7.42485642433167,447.326138963699,449.426922073364,0.3,451.827818384171,0.666914701461792,452.506093015671,1,left,0.655598878860474,452.494733085632,604.484745969772,607.244745969772,1632149800.76557,1632149800.76719,1632149808.20168,1632149808.20315,1632149810.30246,1632149812.70336,1632149812.7048,1632149813.38163,1632149813.37027,1632149965.36029,1
64,4,1,3,25,4,2,c2_WhyHand,2,healthy?,24,H_019.jpg,1632149358.11554,1632149358.12876,439.890032520294,7.42485642433167,447.326138963699,449.426922073364,0.3,452.811518421173,0.800297498703003,453.613720884323,3,right,0.780400991439819,453.611815919876,604.484745969772,607.244745969772,1632149800.76557,1632149800.76719,1632149808.20168,1632149808.20315,1632149810.30246,1632149813.68706,1632149813.68864,1632149814.48926,1632149814.48735,1632149965.36029,0
64,4,1,3,25,5,2,c2_WhyHand,1,healthy?,19,H_167.jpg,1632149358.11554,1632149358.12876,439.890032520294,7.42485642433167,447.326138963699,449.426922073364,0.3,453.92860077858,0.666915416717529,454.59656785965,1,left,0.648086071014404,454.595516195297,604.484745969772,607.244745969772,1632149800.76557,1632149800.76719,1632149808.20168,1632149808.20315,1632149810.30246,1632149814.80414,1632149814.80562,1632149815.47211,1632149815.47106,1632149965.36029,1
64,4,1,3,25,6,2,c2_WhyHand,2,healthy?,20,H_007.jpg,1632149358.11554,1632149358.12876,439.890032520294,7.42485642433167,447.326138963699,449.426922073364,0.3,454.912301054001,0.650241851806641,455.573176851273,3,right,0.640871047973633,455.562542905808,604.484745969772,607.244745969772,1632149800.76557,1632149800.76719,1632149808.20168,1632149808.20315,1632149810.30246,1632149815.78784,1632149815.78948,1632149816.44872,1632149816.43808,1632149965.36029,0
64,4,1,3,25,7,2,c2_WhyHand,1,healthy?,21,H_627.jpg,1632149358.11554,1632149358.12876,439.890032520294,7.42485642433167,447.326138963699,449.426922073364,0.3,455.879328718185,0.733606815338135,456.614886035919,1,left,0.714977979660034,456.612935533524,604.484745969772,607.244745969772,1632149800.76557,1632149800.76719,1632149808.20168,1632149808.20315,1632149810.30246,1632149816.75487,1632149816.757,1632149817.49043,1632149817.48847,1632149965.36029,1
64,4,1,3,25,8,2,c2_WhyHand,2,healthy?,22,H_130.jpg,1632149358.11554,1632149358.12876,439.890032520294,7.42485642433167,447.326138963699,449.426922073364,0.3,456.929720153809,0.850317001342773,457.789275875092,3,right,0.841747999191284,457.780037155151,604.484745969772,607.244745969772,1632149800.76557,1632149800.76719,1632149808.20168,1632149808.20315,1632149810.30246,1632149817.80526,1632149817.80657,1632149818.66481,1632149818.65558,1632149965.36029,0
64,4,1,3,26,1,4,c4_HowHand,1,pressing button?,82,H_126.jpg,1632149358.11554,1632149358.12876,457.86340092659,8.50556993484497,466.38324426651,468.484028806686,2.10078454017639,468.634085168839,0.716933965682983,469.356308927536,1,left,0.70525598526001,469.351019134521,604.484745969772,607.244745969772,1632149818.73894,1632149818.74864,1632149827.25878,1632149827.26584,1632149829.35957,1632149829.50962,1632149829.51576,1632149830.23185,1632149830.22656,1632149965.36029,1
64,4,1,3,26,2,4,c4_HowHand,2,pressing button?,85,H_130.jpg,1632149358.11554,1632149358.12876,457.86340092659,8.50556993484497,466.38324426651,468.484028806686,0.3,469.667804231644,0.633570194244385,470.306519021988,3,right,0.619176864624023,470.301374425888,604.484745969772,607.244745969772,1632149818.73894,1632149818.74864,1632149827.25878,1632149827.26584,1632149829.35957,1632149830.54334,1632149830.54498,1632149831.18206,1632149831.17691,1632149965.36029,0
64,4,1,3,26,3,4,c4_HowHand,1,pressing button?,84,H_483.jpg,1632149358.11554,1632149358.12876,457.86340092659,8.50556993484497,466.38324426651,468.484028806686,0.3,470.618158092499,0.633569717407227,471.256553878784,1,left,0.621196031570435,471.251727809906,604.484745969772,607.244745969772,1632149818.73894,1632149818.74864,1632149827.25878,1632149827.26584,1632149829.35957,1632149831.4937,1632149831.49573,1632149832.13209,1632149832.12727,1632149965.36029,1
64,4,1,3,26,4,4,c4_HowHand,2,pressing button?,87,H_024.jpg,1632149358.11554,1632149358.12876,457.86340092659,8.50556993484497,466.38324426651,468.484028806686,0.3,471.568512191772,0.683588981628418,472.256494989395,3,right,0.662680864334106,472.252101173401,604.484745969772,607.244745969772,1632149818.73894,1632149818.74864,1632149827.25878,1632149827.26584,1632149829.35957,1632149832.44405,1632149832.44858,1632149833.13203,1632149833.12764,1632149965.36029,0
64,4,1,3,26,5,4,c4_HowHand,1,pressing button?,86,H_332.jpg,1632149358.11554,1632149358.12876,457.86340092659,8.50556993484497,466.38324426651,468.484028806686,0.3,472.568885793686,0.566877365112305,473.139822950363,1,left,0.55327296257019,473.135763158798,604.484745969772,607.244745969772,1632149818.73894,1632149818.74864,1632149827.25878,1632149827.26584,1632149829.35957,1632149833.44442,1632149833.44859,1632149834.01536,1632149834.0113,1632149965.36029,1
64,4,1,3,26,6,4,c4_HowHand,1,pressing button?,88,H_019.jpg,1632149358.11554,1632149358.12876,457.86340092659,8.50556993484497,466.38324426651,468.484028806686,0.3,473.452548017502,0.566877841949463,474.023164978027,1,left,0.548572063446045,474.019425859451,604.484745969772,607.244745969772,1632149818.73894,1632149818.74864,1632149827.25878,1632149827.26584,1632149829.35957,1632149834.32809,1632149834.3322,1632149834.8987,1632149834.89496,1632149965.36029,1
64,4,1,3,26,7,4,c4_HowHand,2,pressing button?,81,H_261.jpg,1632149358.11554,1632149358.12876,457.86340092659,8.50556993484497,466.38324426651,468.484028806686,0.3,474.336210956573,0.683588743209839,475.022452821732,3,right,0.673763036727905,475.019799699783,604.484745969772,607.244745969772,1632149818.73894,1632149818.74864,1632149827.25878,1632149827.26584,1632149829.35957,1632149835.21175,1632149835.21553,1632149835.89799,1632149835.89534,1632149965.36029,0
64,4,1,3,26,8,4,c4_HowHand,1,pressing button?,83,H_502.jpg,1632149358.11554,1632149358.12876,457.86340092659,8.50556993484497,466.38324426651,468.484028806686,0.3,475.336584320068,0.650242805480957,475.987889041901,1,left,0.62634801864624,475.986827125549,604.484745969772,607.244745969772,1632149818.73894,1632149818.74864,1632149827.25878,1632149827.26584,1632149829.35957,1632149836.21212,1632149836.21567,1632149836.86343,1632149836.86237,1632149965.36029,1
64,4,1,3,27,1,3,c3_HowFace,1,looking at camera?,60,F_618.jpg,1632149358.11554,1632149358.12876,476.053518285751,7.84534955024719,483.906447162628,486.007229557037,2.10078239440918,486.157286157608,0.68358850479126,486.841910829544,1,left,0.663347005844116,486.840874662399,604.484745969772,607.244745969772,1632149836.92906,1632149836.93203,1632149844.78199,1632149844.78384,1632149846.88277,1632149847.03283,1632149847.03432,1632149847.71745,1632149847.71641,1632149965.36029,1
64,4,1,3,27,2,3,c3_HowFace,2,looking at camera?,58,F_754.jpg,1632149358.11554,1632149358.12876,476.053518285751,7.84534955024719,483.906447162628,486.007229557037,0.3,487.157660474777,0.716932535171509,487.889250030518,3,right,0.707823038101196,487.874593009949,604.484745969772,607.244745969772,1632149836.92906,1632149836.93203,1632149844.78199,1632149844.78384,1632149846.88277,1632149848.0332,1632149848.03496,1632149848.76479,1632149848.75013,1632149965.36029,0
64,4,1,3,27,3,3,c3_HowFace,1,looking at camera?,59,F_129.jpg,1632149358.11554,1632149358.12876,476.053518285751,7.84534955024719,483.906447162628,486.007229557037,0.3,488.191378107071,0.783625602722168,488.976783027649,1,left,0.763686895370483,488.975003709793,604.484745969772,607.244745969772,1632149836.92906,1632149836.93203,1632149844.78199,1632149844.78384,1632149846.88277,1632149849.06692,1632149849.06852,1632149849.85232,1632149849.85054,1632149965.36029,1
64,4,1,3,27,4,3,c3_HowFace,1,looking at camera?,62,F_598.jpg,1632149358.11554,1632149358.12876,476.053518285751,7.84534955024719,483.906447162628,486.007229557037,0.3,489.291787614822,0.666916608810425,489.959806909561,1,left,0.648789882659912,489.958704223633,604.484745969772,607.244745969772,1632149836.92906,1632149836.93203,1632149844.78199,1632149844.78384,1632149846.88277,1632149850.16733,1632149850.16879,1632149850.83535,1632149850.83424,1632149965.36029,1
64,4,1,3,27,5,3,c3_HowFace,1,looking at camera?,64,F_128.jpg,1632149358.11554,1632149358.12876,476.053518285751,7.84534955024719,483.906447162628,486.007229557037,0.3,490.275487890244,0.566879510879517,490.856040945053,1,left,0.55672287940979,490.842367401123,604.484745969772,607.244745969772,1632149836.92906,1632149836.93203,1632149844.78199,1632149844.78384,1632149846.88277,1632149851.15103,1632149851.15264,1632149851.73158,1632149851.71791,1632149965.36029,1
64,4,1,3,27,6,3,c3_HowFace,2,looking at camera?,57,F_582.jpg,1632149358.11554,1632149358.12876,476.053518285751,7.84534955024719,483.906447162628,486.007229557037,0.3,491.159151067734,0.566879034042358,491.739790906906,3,right,0.555954933166504,491.726030101776,604.484745969772,607.244745969772,1632149836.92906,1632149836.93203,1632149844.78199,1632149844.78384,1632149846.88277,1632149852.03469,1632149852.03648,1632149852.61533,1632149852.60157,1632149965.36029,0
64,4,1,3,27,7,3,c3_HowFace,1,looking at camera?,61,F_774.jpg,1632149358.11554,1632149358.12876,476.053518285751,7.84534955024719,483.906447162628,486.007229557037,0.3,492.04281496048,0.53353214263916,492.577344884872,1,left,0.517181158065796,492.576347103119,604.484745969772,607.244745969772,1632149836.92906,1632149836.93203,1632149844.78199,1632149844.78384,1632149846.88277,1632149852.91835,1632149852.91989,1632149853.45288,1632149853.45189,1632149965.36029,1
