src_subject_id,session_id,run_id,param_counterbalance_ver,param_block_num,param_trial_num,param_cond_type_num,param_cond_type_string,param_normative_response,param_ques_type_string,param_image_num,param_image_filename,param_trigger_onset,param_start_biopac,event01_fixation,event01_fixation_dur,event01_blockquestion_onset,event01_block_isi_blacksreen,event01_blockquestion_dur,event02_image_onset,event02_image_dur,event03_response_onset,event03_response_key,event03_response_keyname,event03_RT,event04_shortquestion_onset,param_end_instruct_onset,param_experiment_duration,RAW_e1_fixation,RAW_e1_fixation_biopac,RAW_e1_blockquestion_onset,RAW_e1_blockquestion_onset_biopac,RAW_e1_block_isi_blacksreen,RAW_e2_image_onset,RAW_e2_image_onset_biopac,RAW_e3_response_onset,RAW_e4_shortquestion_onset,RAW_param_end_instruct_onset,accuracy
17,4,2,3,1,1,4,c4_HowHand,1,reaching?,107,H_007.jpg,1619712802.75319,1619712802.75491,0.0185906791687009,0.0373842716217041,0.0686082744598386,2.11937307357788,2.05076479911804,2.26942752838135,1.10041093826294,3.37226103782654,1,left,1.06829118728638,3.36983846664429,604.477337827683,607.237337827682,1619712805.53178,1619712805.54205,1619712805.5818,1619712805.58939,1619712807.63257,1619712807.78262,1619712807.78481,1619712808.88545,1619712808.88303,1619713409.99053,1
17,4,2,3,1,2,4,c4_HowHand,2,reaching?,108,H_532.jpg,1619712802.75319,1619712802.75491,0.0185906791687009,0.0373842716217041,0.0686082744598386,2.11937307357788,0.3,3.68662356376648,0.750280141830444,4.43912004470825,3,right,0.727914094924927,4.43690370559692,604.477337827683,607.237337827682,1619712805.53178,1619712805.54205,1619712805.5818,1619712805.58939,1619712807.63257,1619712809.19982,1619712809.2021,1619712809.95231,1619712809.9501,1619713409.99053,0
17,4,2,3,1,3,4,c4_HowHand,1,reaching?,109,H_474.jpg,1619712802.75319,1619712802.75491,0.0185906791687009,0.0373842716217041,0.0686082744598386,2.11937307357788,0.3,4.7536878490448,0.716934442520142,5.47513102531433,1,left,0.707973003387451,5.47062229156494,604.477337827683,607.237337827682,1619712805.53178,1619712805.54205,1619712805.5818,1619712805.58939,1619712807.63257,1619712810.26688,1619712810.26884,1619712810.98832,1619712810.98381,1619713409.99053,1
17,4,2,3,1,4,4,c4_HowHand,2,reaching?,105,H_438.jpg,1619712802.75319,1619712802.75491,0.0185906791687009,0.0373842716217041,0.0686082744598386,2.11937307357788,0.3,5.78740715026855,0.983700275421143,6.77561806678772,3,right,0.968678951263428,6.7711074256897,604.477337827683,607.237337827682,1619712805.53178,1619712805.54205,1619712805.5818,1619712805.58939,1619712807.63257,1619712811.3006,1619712811.30551,1619712812.28881,1619712812.2843,1619713409.99053,0
17,4,2,3,1,5,4,c4_HowHand,1,reaching?,110,H_364.jpg,1619712802.75319,1619712802.75491,0.0185906791687009,0.0373842716217041,0.0686082744598386,2.11937307357788,0.3,7.08789204597473,0.833644151687622,7.9276060962677,1,left,0.808588027954102,7.92153619766235,604.477337827683,607.237337827682,1619712805.53178,1619712805.54205,1619712805.5818,1619712805.58939,1619712807.63257,1619712812.60108,1619712812.60637,1619712813.4408,1619712813.43473,1619713409.99053,1
17,4,2,3,1,6,4,c4_HowHand,1,reaching?,106,H_006.jpg,1619712802.75319,1619712802.75491,0.0185906791687009,0.0373842716217041,0.0686082744598386,2.11937307357788,0.3,8.23832129478455,0.683588027954102,8.92407297134399,1,left,0.659507989883423,8.92190932273865,604.477337827683,607.237337827682,1619712805.53178,1619712805.54205,1619712805.5818,1619712805.58939,1619712807.63257,1619712813.75151,1619712813.75532,1619712814.43726,1619712814.4351,1619713409.99053,1
17,4,2,3,1,7,4,c4_HowHand,1,reaching?,111,H_003.jpg,1619712802.75319,1619712802.75491,0.0185906791687009,0.0373842716217041,0.0686082744598386,2.11937307357788,0.3,9.23869322776794,0.550205945968628,9.79212116241455,1,left,0.539621114730835,9.78889917373657,604.477337827683,607.237337827682,1619712805.53178,1619712805.54205,1619712805.5818,1619712805.58939,1619712807.63257,1619712814.75189,1619712814.75527,1619712815.30531,1619712815.30209,1619713409.99053,1
17,4,2,3,1,8,4,c4_HowHand,2,reaching?,112,H_132.jpg,1619712802.75319,1619712802.75491,0.0185906791687009,0.0373842716217041,0.0686082744598386,2.11937307357788,0.3,10.1056847476959,1.05039191246033,11.1581499481201,3,right,1.04181599617004,11.1560766601563,604.477337827683,607.237337827682,1619712805.53178,1619712805.54205,1619712805.5818,1619712805.58939,1619712807.63257,1619712815.61888,1619712815.62196,1619712816.67134,1619712816.66927,1619713409.99053,0
17,4,2,3,2,1,2,c2_WhyHand,1,healthy?,21,H_627.jpg,1619712802.75319,1619712802.75491,11.2894594573975,6.24158453941345,17.5417911911011,19.6425745391846,2.1007833480835,19.7926299476624,0.866990327835083,20.6610231304169,1,left,0.855000972747803,20.6596202754974,604.477337827683,607.237337827682,1619712816.80265,1619712816.80557,1619712823.05498,1619712823.05643,1619712825.15577,1619712825.30582,1619712825.30738,1619712826.17422,1619712826.17281,1619713409.99053,1
17,4,2,3,2,2,2,c2_WhyHand,1,healthy?,18,H_438.jpg,1619712802.75319,1619712802.75491,11.2894594573975,6.24158453941345,17.5417911911011,19.6425745391846,0.3,20.9764053726196,0.750279903411865,21.7280111217499,1,left,0.738255977630615,21.7266852760315,604.477337827683,607.237337827682,1619712816.80265,1619712816.80557,1619712823.05498,1619712823.05643,1619712825.15577,1619712826.4896,1619712826.49133,1619712827.2412,1619712827.23988,1619713409.99053,1
17,4,2,3,2,3,2,c2_WhyHand,1,healthy?,23,H_364.jpg,1619712802.75319,1619712802.75491,11.2894594573975,6.24158453941345,17.5417911911011,19.6425745391846,0.3,22.0434701347351,0.9170081615448,22.9618179702759,1,left,0.900185823440552,22.9604782962799,604.477337827683,607.237337827682,1619712816.80265,1619712816.80557,1619712823.05498,1619712823.05643,1619712825.15577,1619712827.55666,1619712827.5585,1619712828.47501,1619712828.47367,1619713409.99053,1
17,4,2,3,2,4,2,c2_WhyHand,2,healthy?,22,H_130.jpg,1619712802.75319,1619712802.75491,11.2894594573975,6.24158453941345,17.5417911911011,19.6425745391846,0.3,23.2772631549835,0.666909694671631,23.9452280902863,3,right,0.650039196014404,23.9441728496551,604.477337827683,607.237337827682,1619712816.80265,1619712816.80557,1619712823.05498,1619712823.05643,1619712825.15577,1619712828.79046,1619712828.79195,1619712829.45842,1619712829.45736,1619713409.99053,0
17,4,2,3,2,5,2,c2_WhyHand,1,healthy?,17,H_362.jpg,1619712802.75319,1619712802.75491,11.2894594573975,6.24158453941345,17.5417911911011,19.6425745391846,0.3,24.2609631919861,0.93368124961853,25.2082431221008,1,left,0.925388097763062,25.1946444416046,604.477337827683,607.237337827682,1619712816.80265,1619712816.80557,1619712823.05498,1619712823.05643,1619712825.15577,1619712829.77416,1619712829.77599,1619712830.72144,1619712830.70784,1619713409.99053,1
17,4,2,3,2,6,2,c2_WhyHand,2,healthy?,20,H_007.jpg,1619712802.75319,1619712802.75491,11.2894594573975,6.24158453941345,17.5417911911011,19.6425745391846,0.3,25.5114295387268,0.967027902603149,26.4921359920502,3,right,0.959972143173218,26.47845744133,604.477337827683,607.237337827682,1619712816.80265,1619712816.80557,1619712823.05498,1619712823.05643,1619712825.15577,1619712831.02462,1619712831.02632,1619712832.00533,1619712831.99165,1619713409.99053,0
17,4,2,3,2,7,2,c2_WhyHand,1,healthy?,19,H_167.jpg,1619712802.75319,1619712802.75491,11.2894594573975,6.24158453941345,17.5417911911011,19.6425745391846,0.3,26.7952411079407,0.666916370391846,27.4755580329895,1,left,0.656746864318848,27.4621574783325,604.477337827683,607.237337827682,1619712816.80265,1619712816.80557,1619712823.05498,1619712823.05643,1619712825.15577,1619712832.30843,1619712832.31029,1619712832.98875,1619712832.97535,1619713409.99053,1
17,4,2,3,2,8,2,c2_WhyHand,2,healthy?,24,H_019.jpg,1619712802.75319,1619712802.75491,11.2894594573975,6.24158453941345,17.5417911911011,19.6425745391846,0.3,27.7789413833618,0.750279664993286,28.5307321453094,3,right,0.726197004318237,28.5292210483551,604.477337827683,607.237337827682,1619712816.80265,1619712816.80557,1619712823.05498,1619712823.05643,1619712825.15577,1619712833.29213,1619712833.29401,1619712834.04392,1619712834.04241,1619713409.99053,0
17,4,2,3,3,1,1,c1_WhyFace,1,admiring?,4,F_779.jpg,1619712802.75319,1619712802.75491,28.6125862503052,8.02652788162231,36.6489159965515,38.7497000598907,2.10078406333923,38.8997561836243,0.783624410629272,39.6922290229797,1,left,0.764034986495972,39.6833805942535,604.477337827683,607.237337827682,1619712834.12578,1619712834.12754,1619712842.16211,1619712842.17276,1619712844.26289,1619712844.41295,1619712844.42256,1619712845.20542,1619712845.19657,1619713409.99053,1
17,4,2,3,3,2,1,c1_WhyFace,1,admiring?,1,F_593.jpg,1619712802.75319,1619712802.75491,28.6125862503052,8.02652788162231,36.6489159965515,38.7497000598907,0.3,40.0001661682129,1.41719532012939,41.4191141033173,1,left,1.39848780632019,41.4173614883423,604.477337827683,607.237337827682,1619712834.12578,1619712834.12754,1619712842.16211,1619712842.17276,1619712844.26289,1619712845.51336,1619712845.51494,1619712846.93231,1619712846.93055,1619713409.99053,1
17,4,2,3,3,3,1,c1_WhyFace,2,admiring?,3,F_110.jpg,1619712802.75319,1619712802.75491,28.6125862503052,8.02652788162231,36.6489159965515,38.7497000598907,0.3,41.7341458702087,1.03371930122375,42.7749690914154,3,right,1.02624082565308,42.7678651714325,604.477337827683,607.237337827682,1619712834.12578,1619712834.12754,1619712842.16211,1619712842.17276,1619712844.26289,1619712847.24734,1619712847.24921,1619712848.28816,1619712848.28106,1619713409.99053,0
17,4,2,3,3,4,1,c1_WhyFace,1,admiring?,8,F_590.jpg,1619712802.75319,1619712802.75491,28.6125862503052,8.02652788162231,36.6489159965515,38.7497000598907,0.3,43.084649553299,0.683588266372681,43.7753779792786,1,left,0.674044847488403,43.7682378196716,604.477337827683,607.237337827682,1619712834.12578,1619712834.12754,1619712842.16211,1619712842.17276,1619712844.26289,1619712848.59784,1619712848.59981,1619712849.28857,1619712849.28143,1619713409.99053,1
17,4,2,3,3,5,1,c1_WhyFace,2,admiring?,6,F_692.jpg,1619712802.75319,1619712802.75491,28.6125862503052,8.02652788162231,36.6489159965515,38.7497000598907,0.3,44.0850224399567,0.866990566253662,44.9583661460876,3,right,0.850429058074951,44.9520130062103,604.477337827683,607.237337827682,1619712834.12578,1619712834.12754,1619712842.16211,1619712842.17276,1619712844.26289,1619712849.59821,1619712849.59994,1619712850.47156,1619712850.4652,1619713409.99053,0
17,4,2,3,3,6,1,c1_WhyFace,1,admiring?,5,F_759.jpg,1619712802.75319,1619712802.75491,28.6125862503052,8.02652788162231,36.6489159965515,38.7497000598907,0.3,45.2687978649139,0.583550453186035,45.8588960075378,1,left,0.571480989456177,45.8523483181,604.477337827683,607.237337827682,1619712834.12578,1619712834.12754,1619712842.16211,1619712842.17276,1619712844.26289,1619712850.78199,1619712850.78385,1619712851.37209,1619712851.36554,1619713409.99053,1
17,4,2,3,3,7,1,c1_WhyFace,1,admiring?,7,F_648.jpg,1619712802.75319,1619712802.75491,28.6125862503052,8.02652788162231,36.6489159965515,38.7497000598907,0.3,46.1691331768036,0.63356876373291,46.8082990550995,1,left,0.620650053024292,46.8027019405365,604.477337827683,607.237337827682,1619712834.12578,1619712834.12754,1619712842.16211,1619712842.17276,1619712844.26289,1619712851.68233,1619712851.68395,1619712852.32149,1619712852.31589,1619713409.99053,1
17,4,2,3,3,8,1,c1_WhyFace,2,admiring?,2,F_129.jpg,1619712802.75319,1619712802.75491,28.6125862503052,8.02652788162231,36.6489159965515,38.7497000598907,0.3,47.1194870376587,0.650243043899536,47.7750251197815,3,right,0.63809609413147,47.7697300815582,604.477337827683,607.237337827682,1619712834.12578,1619712834.12754,1619712842.16211,1619712842.17276,1619712844.26289,1619712852.63268,1619712852.63425,1619712853.28822,1619712853.28292,1619713409.99053,0
17,4,2,3,4,1,3,c3_HowFace,1,smiling?,119,F_139.jpg,1619712802.75319,1619712802.75491,47.853094329834,7.74998068809509,55.6226580047607,57.7067689800262,2.0841109752655,57.8568253421783,0.650241851806641,58.5083279514313,1,left,0.635496854782104,58.507067193985,604.477337827683,607.237337827682,1619712853.36629,1619712853.36822,1619712861.13585,1619712861.13786,1619712863.21996,1619712863.37002,1619712863.37207,1619712864.02152,1619712864.02026,1619713409.99053,1
17,4,2,3,4,2,3,c3_HowFace,2,smiling?,113,F_712.jpg,1619712802.75319,1619712802.75491,47.853094329834,7.74998068809509,55.6226580047607,57.7067689800262,0.3,58.8238520526886,0.583551406860352,59.4088189506531,3,right,0.563245058059692,59.407403459549,604.477337827683,607.237337827682,1619712853.36629,1619712853.36822,1619712861.13585,1619712861.13786,1619712863.21996,1619712864.33704,1619712864.33887,1619712864.92201,1619712864.9206,1619713409.99053,0
17,4,2,3,4,3,3,c3_HowFace,1,smiling?,115,F_695.jpg,1619712802.75319,1619712802.75491,47.853094329834,7.74998068809509,55.6226580047607,57.7067689800262,0.3,59.7241883182526,0.600224018096924,60.3259470367432,1,left,0.58795690536499,60.3244123363495,604.477337827683,607.237337827682,1619712853.36629,1619712853.36822,1619712861.13585,1619712861.13786,1619712863.21996,1619712865.23738,1619712865.23881,1619712865.83914,1619712865.8376,1619713409.99053,1
17,4,2,3,4,4,3,c3_HowFace,2,smiling?,120,F_758.jpg,1619712802.75319,1619712802.75491,47.853094329834,7.74998068809509,55.6226580047607,57.7067689800262,0.3,60.6411974334717,0.583551168441772,61.2264580631256,3,right,0.561010122299194,61.2247486019135,604.477337827683,607.237337827682,1619712853.36629,1619712853.36822,1619712861.13585,1619712861.13786,1619712863.21996,1619712866.15439,1619712866.15611,1619712866.73965,1619712866.73794,1619713409.99053,0
17,4,2,3,4,5,3,c3_HowFace,1,smiling?,116,F_083.jpg,1619712802.75319,1619712802.75491,47.853094329834,7.74998068809509,55.6226580047607,57.7067689800262,0.3,61.5415320301056,0.516860246658325,62.0594019794464,1,left,0.495820999145508,62.0583922767639,604.477337827683,607.237337827682,1619712853.36629,1619712853.36822,1619712861.13585,1619712861.13786,1619712863.21996,1619712867.05472,1619712867.05628,1619712867.57259,1619712867.57158,1619713409.99053,1
17,4,2,3,4,6,3,c3_HowFace,1,smiling?,118,F_759.jpg,1619712802.75319,1619712802.75491,47.853094329834,7.74998068809509,55.6226580047607,57.7067689800262,0.3,62.3751766586304,0.55020546913147,62.9270520114899,1,left,0.531115055084229,62.9253821277618,604.477337827683,607.237337827682,1619712853.36629,1619712853.36822,1619712861.13585,1619712861.13786,1619712863.21996,1619712867.88837,1619712867.89003,1619712868.44024,1619712868.43857,1619713409.99053,1
17,4,2,3,4,7,3,c3_HowFace,2,smiling?,114,F_412.jpg,1619712802.75319,1619712802.75491,47.853094329834,7.74998068809509,55.6226580047607,57.7067689800262,0.3,63.2421667480469,0.533532619476318,63.7767460250855,3,right,0.51628589630127,63.7756993675232,604.477337827683,607.237337827682,1619712853.36629,1619712853.36822,1619712861.13585,1619712861.13786,1619712863.21996,1619712868.75536,1619712868.75681,1619712869.28994,1619712869.28889,1619713409.99053,0
17,4,2,3,4,8,3,c3_HowFace,1,smiling?,117,F_593.jpg,1619712802.75319,1619712802.75491,47.853094329834,7.74998068809509,55.6226580047607,57.7067689800262,0.3,64.092484703064,0.650241136550903,64.7584080600738,1,left,0.642379999160767,64.7427258396149,604.477337827683,607.237337827682,1619712853.36629,1619712853.36822,1619712861.13585,1619712861.13786,1619712863.21996,1619712869.60568,1619712869.60713,1619712870.2716,1619712870.25592,1619713409.99053,1
17,4,2,3,5,1,4,c4_HowHand,1,lifting?,56,H_136.jpg,1619712802.75319,1619712802.75491,64.8260912799835,8.30774569511414,73.1458604240417,75.2466430568695,2.10078263282776,75.3967006111145,1.21711993217468,76.6154920959473,1,left,1.20018696784973,76.6138205432892,604.477337827683,607.237337827682,1619712870.33928,1619712870.34207,1619712878.65905,1619712878.66207,1619712880.75984,1619712880.90989,1619712880.91131,1619712882.12868,1619712882.12701,1619713409.99053,1
17,4,2,3,5,2,4,c4_HowHand,2,lifting?,51,H_038.jpg,1619712802.75319,1619712802.75491,64.8260912799835,8.30774569511414,73.1458604240417,75.2466430568695,0.3,76.9306049251556,1.01704668998718,77.9487559700012,3,right,0.995000839233398,77.9476516151428,604.477337827683,607.237337827682,1619712870.33928,1619712870.34207,1619712878.65905,1619712878.66207,1619712880.75984,1619712882.4438,1619712882.44577,1619712883.46195,1619712883.46084,1619713409.99053,0
17,4,2,3,5,3,4,c4_HowHand,1,lifting?,52,H_189.jpg,1619712802.75319,1619712802.75491,64.8260912799835,8.30774569511414,73.1458604240417,75.2466430568695,0.3,78.2644352817535,1.03371810913086,79.3087091350555,1,left,1.02640008926392,79.2981533908844,604.477337827683,607.237337827682,1619712870.33928,1619712870.34207,1619712878.65905,1619712878.66207,1619712880.75984,1619712883.77763,1619712883.77867,1619712884.8219,1619712884.81135,1619713409.99053,1
17,4,2,3,5,4,4,c4_HowHand,2,lifting?,53,H_077.jpg,1619712802.75319,1619712802.75491,64.8260912799835,8.30774569511414,73.1458604240417,75.2466430568695,0.3,79.6149394416809,0.816970348358154,80.441611995697,3,right,0.809723854064941,80.4319097900391,604.477337827683,607.237337827682,1619712870.33928,1619712870.34207,1619712878.65905,1619712878.66207,1619712880.75984,1619712885.12813,1619712885.12991,1619712885.9548,1619712885.9451,1619713409.99053,0
17,4,2,3,5,5,4,c4_HowHand,1,lifting?,50,H_443.jpg,1619712802.75319,1619712802.75491,64.8260912799835,8.30774569511414,73.1458604240417,75.2466430568695,0.3,80.7486951255798,0.650242805480957,81.4000229740143,1,left,0.629511833190918,81.3989379310608,604.477337827683,607.237337827682,1619712870.33928,1619712870.34207,1619712878.65905,1619712878.66207,1619712880.75984,1619712886.26189,1619712886.26324,1619712886.91321,1619712886.91213,1619713409.99053,1
17,4,2,3,5,6,4,c4_HowHand,2,lifting?,55,H_012.jpg,1619712802.75319,1619712802.75491,64.8260912799835,8.30774569511414,73.1458604240417,75.2466430568695,0.3,81.7157223129272,0.733606815338135,82.4588529968262,3,right,0.726557970046997,82.4493291282654,604.477337827683,607.237337827682,1619712870.33928,1619712870.34207,1619712878.65905,1619712878.66207,1619712880.75984,1619712887.22891,1619712887.23052,1619712887.97204,1619712887.96252,1619713409.99053,0
17,4,2,3,5,7,4,c4_HowHand,1,lifting?,49,H_362.jpg,1619712802.75319,1619712802.75491,64.8260912799835,8.30774569511414,73.1458604240417,75.2466430568695,0.3,82.7661137485504,0.500186204910278,83.2754061126709,1,left,0.493400096893311,83.2662999534607,604.477337827683,607.237337827682,1619712870.33928,1619712870.34207,1619712878.65905,1619712878.66207,1619712880.75984,1619712888.27931,1619712888.28109,1619712888.7886,1619712888.77949,1619713409.99053,1
17,4,2,3,5,8,4,c4_HowHand,1,lifting?,54,H_170.jpg,1619712802.75319,1619712802.75491,64.8260912799835,8.30774569511414,73.1458604240417,75.2466430568695,0.3,83.5830864810944,0.750278472900391,84.3423621559143,1,left,0.742157936096191,84.3333649539947,604.477337827683,607.237337827682,1619712870.33928,1619712870.34207,1619712878.65905,1619712878.66207,1619712880.75984,1619712889.09628,1619712889.09792,1619712889.85555,1619712889.84656,1619713409.99053,1
17,4,2,3,6,1,2,c2_WhyHand,1,helping?,38,H_077.jpg,1619712802.75319,1619712802.75491,84.4000575447082,11.2149035930634,95.6209080123901,97.7216899299622,2.10078191757202,97.8717481994629,0.917008399963379,98.7919831180572,1,left,0.896858930587769,98.7887565994263,604.477337827683,607.237337827682,1619712889.91325,1619712889.92184,1619712901.1341,1619712901.13907,1619712903.23488,1619712903.38494,1619712903.38919,1619712904.30518,1619712904.30195,1619713409.99053,1
17,4,2,3,6,2,2,c2_WhyHand,1,helping?,36,H_349.jpg,1619712802.75319,1619712802.75491,84.4000575447082,11.2149035930634,95.6209080123901,97.7216899299622,0.3,99.1055421733856,0.733606100082397,99.8416891002655,1,left,0.719866991043091,99.839148273468,604.477337827683,607.237337827682,1619712889.91325,1619712889.92184,1619712901.1341,1619712901.13907,1619712903.23488,1619712904.61873,1619712904.62195,1619712905.35488,1619712905.35234,1619713409.99053,1
17,4,2,3,6,3,2,c2_WhyHand,1,helping?,37,H_474.jpg,1619712802.75319,1619712802.75491,84.4000575447082,11.2149035930634,95.6209080123901,97.7216899299622,0.3,100.155933132172,0.800296545028687,100.958201160431,1,left,0.791664123535156,100.9562296772,604.477337827683,607.237337827682,1619712889.91325,1619712889.92184,1619712901.1341,1619712901.13907,1619712903.23488,1619712905.66913,1619712905.67217,1619712906.47139,1619712906.46942,1619713409.99053,1
17,4,2,3,6,4,2,c2_WhyHand,1,helping?,39,H_024.jpg,1619712802.75319,1619712802.75491,84.4000575447082,11.2149035930634,95.6209080123901,97.7216899299622,0.3,101.273016204834,0.93368124961853,102.208187093735,3,right,0.925046920776367,102.206697454453,604.477337827683,607.237337827682,1619712889.91325,1619712889.92184,1619712901.1341,1619712901.13907,1619712903.23488,1619712906.78621,1619712906.78876,1619712907.72138,1619712907.71989,1619713409.99053,0
17,4,2,3,6,5,2,c2_WhyHand,2,helping?,40,H_012.jpg,1619712802.75319,1619712802.75491,84.4000575447082,11.2149035930634,95.6209080123901,97.7216899299622,0.3,102.523482789993,0.78362512588501,103.308623065948,3,right,0.771991968154907,103.307107915878,604.477337827683,607.237337827682,1619712889.91325,1619712889.92184,1619712901.1341,1619712901.13907,1619712903.23488,1619712908.03667,1619712908.03875,1619712908.82182,1619712908.8203,1619713409.99053,0
17,4,2,3,6,6,2,c2_WhyHand,2,helping?,35,H_159.jpg,1619712802.75319,1619712802.75491,84.4000575447082,11.2149035930634,95.6209080123901,97.7216899299622,0.3,103.623892536163,0.816971302032471,104.459203948975,3,right,0.809199094772339,104.440863838196,604.477337827683,607.237337827682,1619712889.91325,1619712889.92184,1619712901.1341,1619712901.13907,1619712903.23488,1619712909.13708,1619712909.13877,1619712909.9724,1619712909.95406,1619713409.99053,0
17,4,2,3,6,7,2,c2_WhyHand,1,helping?,34,H_111.jpg,1619712802.75319,1619712802.75491,84.4000575447082,11.2149035930634,95.6209080123901,97.7216899299622,0.3,104.757649173737,0.733606100082397,105.492306938171,1,left,0.715862035751343,105.491255273819,604.477337827683,607.237337827682,1619712889.91325,1619712889.92184,1619712901.1341,1619712901.13907,1619712903.23488,1619712910.27084,1619712910.2724,1619712911.0055,1619712911.00445,1619713409.99053,1
17,4,2,3,6,8,2,c2_WhyHand,2,helping?,33,H_091.jpg,1619712802.75319,1619712802.75491,84.4000575447082,11.2149035930634,95.6209080123901,97.7216899299622,0.3,105.808041086197,0.850317239761353,106.65973400116,3,right,0.828052043914795,106.658358325958,604.477337827683,607.237337827682,1619712889.91325,1619712889.92184,1619712901.1341,1619712901.13907,1619712903.23488,1619712911.32123,1619712911.32314,1619712912.17293,1619712912.17155,1619713409.99053,0
17,4,2,3,7,1,1,c1_WhyFace,1,proud?,104,F_598.jpg,1619712802.75319,1619712802.75491,106.725049247742,6.7648549079895,113.494240274429,115.595023622513,2.1007833480835,115.745079269409,1.73398065567017,NaN,0,NA,0,117.479059925079,604.477337827683,607.237337827682,1619712912.23824,1619712912.23987,1619712919.00743,1619712919.02311,1619712921.10822,1619712921.25827,1619712921.27283,NaN,1619712922.99225,1619713409.99053,0
17,4,2,3,7,2,1,c1_WhyFace,2,proud?,102,F_760.jpg,1619712802.75319,1619712802.75491,106.725049247742,6.7648549079895,113.494240274429,115.595023622513,0.3,117.795845499039,0.816969633102417,118.614460935593,3,right,0.794897079467773,118.612815132141,604.477337827683,607.237337827682,1619712912.23824,1619712912.23987,1619712919.00743,1619712919.02311,1619712921.10822,1619712923.30904,1619712923.31056,1619712924.12765,1619712924.12601,1619713409.99053,0
17,4,2,3,7,3,1,c1_WhyFace,1,proud?,97,F_582.jpg,1619712802.75319,1619712802.75491,106.725049247742,6.7648549079895,113.494240274429,115.595023622513,0.3,118.929599990845,0.833644866943359,119.764677991867,1,left,0.818270206451416,119.763244857788,604.477337827683,607.237337827682,1619712912.23824,1619712912.23987,1619712919.00743,1619712919.02311,1619712921.10822,1619712924.44279,1619712924.44452,1619712925.27787,1619712925.27644,1619713409.99053,1
17,4,2,3,7,4,1,c1_WhyFace,2,proud?,98,F_412.jpg,1619712802.75319,1619712802.75491,106.725049247742,6.7648549079895,113.494240274429,115.595023622513,0.3,120.08002995491,0.866989374160767,120.958641996384,3,right,0.856026172637939,120.947019329071,604.477337827683,607.237337827682,1619712912.23824,1619712912.23987,1619712919.00743,1619712919.02311,1619712921.10822,1619712925.59322,1619712925.59487,1619712926.47183,1619712926.46021,1619713409.99053,0
17,4,2,3,7,5,1,c1_WhyFace,1,proud?,101,F_083.jpg,1619712802.75319,1619712802.75491,106.725049247742,6.7648549079895,113.494240274429,115.595023622513,0.3,121.263804187775,1.7173068523407,123.02406214714,3,right,1.73961801528931,122.981111040115,604.477337827683,607.237337827682,1619712912.23824,1619712912.23987,1619712919.00743,1619712919.02311,1619712921.10822,1619712926.777,1619712926.77864,1619712928.53725,1619712928.4943,1619713409.99053,0
17,4,2,3,7,6,1,c1_WhyFace,2,proud?,100,F_776.jpg,1619712802.75319,1619712802.75491,106.725049247742,6.7648549079895,113.494240274429,115.595023622513,0.3,123.297896614075,1.25046491622925,124.550146093369,3,right,1.23146295547485,124.548361530304,604.477337827683,607.237337827682,1619712912.23824,1619712912.23987,1619712919.00743,1619712919.02311,1619712921.10822,1619712928.81109,1619712928.81254,1619712930.06334,1619712930.06155,1619713409.99053,0
17,4,2,3,7,7,1,c1_WhyFace,1,proud?,103,F_618.jpg,1619712802.75319,1619712802.75491,106.725049247742,6.7648549079895,113.494240274429,115.595023622513,0.3,124.8651475811,0.816972017288208,125.692057123184,1,left,0.803172826766968,125.682119598389,604.477337827683,607.237337827682,1619712912.23824,1619712912.23987,1619712919.00743,1619712919.02311,1619712921.10822,1619712930.37834,1619712930.38004,1619712931.20525,1619712931.19531,1619713409.99053,1
17,4,2,3,7,8,1,c1_WhyFace,1,proud?,99,F_695.jpg,1619712802.75319,1619712802.75491,106.725049247742,6.7648549079895,113.494240274429,115.595023622513,0.3,125.998902788162,0.917009830474854,126.917500963211,1,left,0.896768808364868,126.915912618637,604.477337827683,607.237337827682,1619712912.23824,1619712912.23987,1619712919.00743,1619712919.02311,1619712921.10822,1619712931.51209,1619712931.51402,1619712932.43069,1619712932.4291,1619713409.99053,1
17,4,2,3,8,1,3,c3_HowFace,1,looking to side?,72,F_590.jpg,1619712802.75319,1619712802.75491,126.999276628494,4.0206024646759,131.034113636017,133.134897937775,2.10078430175781,133.284954299927,1.23379302024841,134.525397052765,1,left,1.22443413734436,134.518747320175,604.477337827683,607.237337827682,1619712932.51247,1619712932.51411,1619712936.54731,1619712936.54898,1619712938.64809,1619712938.79815,1619712938.79985,1619712940.03859,1619712940.03194,1619713409.99053,1
17,4,2,3,8,2,3,c3_HowFace,1,looking to side?,71,F_433.jpg,1619712802.75319,1619712802.75491,126.999276628494,4.0206024646759,131.034113636017,133.134897937775,0.3,134.835532178879,0.700261116027832,135.537433137894,1,left,0.678246021270752,135.535793294907,604.477337827683,607.237337827682,1619712932.51247,1619712932.51411,1619712936.54731,1619712936.54898,1619712938.64809,1619712940.34872,1619712940.35031,1619712941.05063,1619712941.04899,1619713409.99053,1
17,4,2,3,8,3,3,c3_HowFace,1,looking to side?,67,F_716.jpg,1619712802.75319,1619712802.75491,126.999276628494,4.0206024646759,131.034113636017,133.134897937775,0.3,135.85257815361,0.616897583007812,136.475561132431,1,left,0.600402116775513,136.469475736618,604.477337827683,607.237337827682,1619712932.51247,1619712932.51411,1619712936.54731,1619712936.54898,1619712938.64809,1619712941.36577,1619712941.36746,1619712941.98875,1619712941.98267,1619713409.99053,1
17,4,2,3,8,4,3,c3_HowFace,2,looking to side?,70,F_779.jpg,1619712802.75319,1619712802.75491,126.999276628494,4.0206024646759,131.034113636017,133.134897937775,0.3,136.786260595322,0.7669517993927,137.554388036728,3,right,0.747229814529419,137.553212394714,604.477337827683,607.237337827682,1619712932.51247,1619712932.51411,1619712936.54731,1619712936.54898,1619712938.64809,1619712942.29945,1619712942.30141,1619712943.06758,1619712943.0664,1619713409.99053,0
17,4,2,3,8,5,3,c3_HowFace,1,looking to side?,68,F_760.jpg,1619712802.75319,1619712802.75491,126.999276628494,4.0206024646759,131.034113636017,133.134897937775,0.3,137.869997253418,1.33383083343506,139.208348026276,1,left,1.31508493423462,139.203828086853,604.477337827683,607.237337827682,1619712932.51247,1619712932.51411,1619712936.54731,1619712936.54898,1619712938.64809,1619712943.38319,1619712943.38479,1619712944.72154,1619712944.71702,1619713409.99053,1
17,4,2,3,8,6,3,c3_HowFace,2,looking to side?,66,F_111.jpg,1619712802.75319,1619712802.75491,126.999276628494,4.0206024646759,131.034113636017,133.134897937775,0.3,139.520613183975,0.750278949737549,140.27493309021,3,right,0.743288993835449,140.270892133713,604.477337827683,607.237337827682,1619712932.51247,1619712932.51411,1619712936.54731,1619712936.54898,1619712938.64809,1619712945.03381,1619712945.03515,1619712945.78813,1619712945.78408,1619713409.99053,0
17,4,2,3,8,7,3,c3_HowFace,1,looking to side?,69,F_110.jpg,1619712802.75319,1619712802.75491,126.999276628494,4.0206024646759,131.034113636017,133.134897937775,0.3,140.587677230835,1.71730709075928,142.311794986725,3,right,1.70016212463379,142.304984321594,604.477337827683,607.237337827682,1619712932.51247,1619712932.51411,1619712936.54731,1619712936.54898,1619712938.64809,1619712946.10087,1619712946.10538,1619712947.82499,1619712947.81818,1619713409.99053,0
17,4,2,3,8,8,3,c3_HowFace,2,looking to side?,65,F_798.jpg,1619712802.75319,1619712802.75491,126.999276628494,4.0206024646759,131.034113636017,133.134897937775,0.3,142.621768941879,0.933682680130005,143.558351984024,3,right,0.918195962905884,143.555451622009,604.477337827683,607.237337827682,1619712932.51247,1619712932.51411,1619712936.54731,1619712936.54898,1619712938.64809,1619712948.13496,1619712948.13897,1619712949.07154,1619712949.06864,1619713409.99053,0
17,4,2,3,9,1,1,c1_WhyFace,1,argument?,43,F_716.jpg,1619712802.75319,1619712802.75491,143.638814916611,6.48907613754272,150.141240348816,152.242023220062,2.10078287124634,152.392079343796,1.00037240982056,153.393524160385,1,left,0.979757070541382,153.392451753616,604.477337827683,607.237337827682,1619712949.15201,1619712949.15536,1619712955.65443,1619712955.65619,1619712957.75522,1619712957.90527,1619712957.90751,1619712958.90672,1619712958.90564,1619713409.99053,1
17,4,2,3,9,2,1,c1_WhyFace,2,argument?,44,F_139.jpg,1619712802.75319,1619712802.75491,143.638814916611,6.48907613754272,150.141240348816,152.242023220062,0.3,153.709237089157,0.616896629333496,154.327212085724,3,right,0.597765207290649,154.326133718491,604.477337827683,607.237337827682,1619712949.15201,1619712949.15536,1619712955.65443,1619712955.65619,1619712957.75522,1619712959.22243,1619712959.22393,1619712959.8404,1619712959.83933,1619713409.99053,0
17,4,2,3,9,3,1,c1_WhyFace,1,argument?,41,F_712.jpg,1619712802.75319,1619712802.75491,143.638814916611,6.48907613754272,150.141240348816,152.242023220062,0.3,154.64291929245,0.683588027954102,155.327922096252,1,left,0.667998075485229,155.326507320404,604.477337827683,607.237337827682,1619712949.15201,1619712949.15536,1619712955.65443,1619712955.65619,1619712957.75522,1619712960.15611,1619712960.15783,1619712960.84111,1619712960.8397,1619713409.99053,1
17,4,2,3,9,4,1,c1_WhyFace,2,argument?,45,F_433.jpg,1619712802.75319,1619712802.75491,143.638814916611,6.48907613754272,150.141240348816,152.242023220062,0.3,155.643292417526,0.666914701461792,156.311829080582,3,right,0.647300958633423,156.310207118988,604.477337827683,607.237337827682,1619712949.15201,1619712949.15536,1619712955.65443,1619712955.65619,1619712957.75522,1619712961.15648,1619712961.15844,1619712961.82502,1619712961.8234,1619713409.99053,0
17,4,2,3,9,5,1,c1_WhyFace,1,argument?,42,F_403.jpg,1619712802.75319,1619712802.75491,143.638814916611,6.48907613754272,150.141240348816,152.242023220062,0.3,156.62699221611,0.733607292175293,157.361603965759,1,left,0.717435121536255,157.360599508286,604.477337827683,607.237337827682,1619712949.15201,1619712949.15536,1619712955.65443,1619712955.65619,1619712957.75522,1619712962.14018,1619712962.14187,1619712962.8748,1619712962.87379,1619713409.99053,1
17,4,2,3,9,6,1,c1_WhyFace,2,argument?,46,F_844.jpg,1619712802.75319,1619712802.75491,143.638814916611,6.48907613754272,150.141240348816,152.242023220062,0.3,157.677384366989,0.683587789535522,158.362560024261,3,right,0.661556005477905,158.360972156525,604.477337827683,607.237337827682,1619712949.15201,1619712949.15536,1619712955.65443,1619712955.65619,1619712957.75522,1619712963.19058,1619712963.1922,1619712963.87575,1619712963.87416,1619713409.99053,0
17,4,2,3,9,7,1,c1_WhyFace,1,argument?,47,F_743.jpg,1619712802.75319,1619712802.75491,143.638814916611,6.48907613754272,150.141240348816,152.242023220062,0.3,158.677757015228,0.633569240570068,159.325180997849,1,left,0.624624013900757,159.311326255798,604.477337827683,607.237337827682,1619712949.15201,1619712949.15536,1619712955.65443,1619712955.65619,1619712957.75522,1619712964.19095,1619712964.1926,1619712964.83837,1619712964.82452,1619713409.99053,1
17,4,2,3,9,8,1,c1_WhyFace,1,argument?,48,F_758.jpg,1619712802.75319,1619712802.75491,143.638814916611,6.48907613754272,150.141240348816,152.242023220062,0.3,159.628111352921,0.650242567062378,160.27977894783,1,left,0.63141393661499,160.278353919983,604.477337827683,607.237337827682,1619712949.15201,1619712949.15536,1619712955.65443,1619712955.65619,1619712957.75522,1619712965.1413,1619712965.14296,1619712965.79297,1619712965.79155,1619713409.99053,1
17,4,2,3,10,1,3,c3_HowFace,1,open mouth?,80,F_844.jpg,1619712802.75319,1619712802.75491,160.345045318604,7.62282872200012,167.981226434708,170.082010259628,2.10078382492065,170.232065906525,0.600222587585449,170.842298974991,1,left,0.591777086257935,170.83228849411,604.477337827683,607.237337827682,1619712965.85824,1619712965.85992,1619712973.49442,1619712973.49583,1619712975.5952,1619712975.74526,1619712975.74674,1619712976.35549,1619712976.34548,1619713409.99053,1
17,4,2,3,10,2,3,c3_HowFace,1,open mouth?,74,F_776.jpg,1619712802.75319,1619712802.75491,160.345045318604,7.62282872200012,167.981226434708,170.082010259628,0.3,171.149074544907,0.466840505599976,171.617634048462,1,left,0.448683977127075,171.615915050507,604.477337827683,607.237337827682,1619712965.85824,1619712965.85992,1619712973.49442,1619712973.49583,1619712975.5952,1619712976.66227,1619712976.66398,1619712977.13083,1619712977.12911,1619713409.99053,1
17,4,2,3,10,3,3,c3_HowFace,2,open mouth?,76,F_544.jpg,1619712802.75319,1619712802.75491,160.345045318604,7.62282872200012,167.981226434708,170.082010259628,0.3,171.93269990921,0.533532619476318,172.467890014648,3,right,0.51209020614624,172.466232528687,604.477337827683,607.237337827682,1619712965.85824,1619712965.85992,1619712973.49442,1619712973.49583,1619712975.5952,1619712977.44589,1619712977.44771,1619712977.98108,1619712977.97942,1619713409.99053,0
17,4,2,3,10,4,3,c3_HowFace,1,open mouth?,78,F_692.jpg,1619712802.75319,1619712802.75491,160.345045318604,7.62282872200012,167.981226434708,170.082010259628,0.3,172.783017625809,0.433494806289673,173.225720157623,1,left,0.423574924468994,173.216512432098,604.477337827683,607.237337827682,1619712965.85824,1619712965.85992,1619712973.49442,1619712973.49583,1619712975.5952,1619712978.29621,1619712978.29827,1619712978.73891,1619712978.7297,1619713409.99053,1
17,4,2,3,10,5,3,c3_HowFace,2,open mouth?,77,F_584.jpg,1619712802.75319,1619712802.75491,160.345045318604,7.62282872200012,167.981226434708,170.082010259628,0.3,173.533297290802,0.483513593673706,174.025393953323,3,right,0.47555685043335,174.016810884476,604.477337827683,607.237337827682,1619712965.85824,1619712965.85992,1619712973.49442,1619712973.49583,1619712975.5952,1619712979.04649,1619712979.04842,1619712979.53859,1619712979.53,1619713409.99053,0
17,4,2,3,10,6,3,c3_HowFace,1,open mouth?,73,F_403.jpg,1619712802.75319,1619712802.75491,160.345045318604,7.62282872200012,167.981226434708,170.082010259628,0.3,174.333595266342,0.466840744018555,174.802170982361,1,left,0.445319890975952,174.800436010361,604.477337827683,607.237337827682,1619712965.85824,1619712965.85992,1619712973.49442,1619712973.49583,1619712975.5952,1619712979.84679,1619712979.84827,1619712980.31536,1619712980.31363,1619713409.99053,1
17,4,2,3,10,7,3,c3_HowFace,1,open mouth?,75,F_086.jpg,1619712802.75319,1619712802.75491,160.345045318604,7.62282872200012,167.981226434708,170.082010259628,0.3,175.117220153809,0.483513593673706,175.608411064148,1,left,0.472371101379395,175.600733747482,604.477337827683,607.237337827682,1619712965.85824,1619712965.85992,1619712973.49442,1619712973.49583,1619712975.5952,1619712980.63041,1619712980.63225,1619712981.1216,1619712981.11393,1619713409.99053,1
17,4,2,3,10,8,3,c3_HowFace,2,open mouth?,79,F_648.jpg,1619712802.75319,1619712802.75491,160.345045318604,7.62282872200012,167.981226434708,170.082010259628,0.3,175.917518844605,0.533533811569214,176.452106943131,3,right,0.515758991241455,176.451052656174,604.477337827683,607.237337827682,1619712965.85824,1619712965.85992,1619712973.49442,1619712973.49583,1619712975.5952,1619712981.43071,1619712981.43263,1619712981.9653,1619712981.96424,1619713409.99053,0
17,4,2,3,11,1,4,c4_HowHand,1,pressing button?,88,H_019.jpg,1619712802.75319,1619712802.75491,176.51774310112,9.34022283554077,185.871230592728,187.972014417648,2.10078382492065,188.122071256638,0.683587551116943,188.808310022354,1,left,0.665804147720337,188.805658807755,604.477337827683,607.237337827682,1619712982.03094,1619712982.03876,1619712991.38442,1619712991.3885,1619712993.48521,1619712993.63526,1619712993.63906,1619712994.3215,1619712994.31885,1619713409.99053,1
17,4,2,3,11,2,4,c4_HowHand,2,pressing button?,87,H_024.jpg,1619712802.75319,1619712802.75491,176.51774310112,9.34022283554077,185.871230592728,187.972014417648,0.3,189.12244342804,1.3338303565979,190.458194961548,3,right,1.32235598564148,190.456273784637,604.477337827683,607.237337827682,1619712982.03094,1619712982.03876,1619712991.38442,1619712991.3885,1619712993.48521,1619712994.63564,1619712994.63888,1619712995.97139,1619712995.96947,1619713409.99053,0
17,4,2,3,11,3,4,c4_HowHand,2,pressing button?,85,H_130.jpg,1619712802.75319,1619712802.75491,176.51774310112,9.34022283554077,185.871230592728,187.972014417648,0.3,190.773059120178,0.683588266372681,191.458345165253,3,right,0.664077043533325,191.456647386551,604.477337827683,607.237337827682,1619712982.03094,1619712982.03876,1619712991.38442,1619712991.3885,1619712993.48521,1619712996.28625,1619712996.28852,1619712996.97154,1619712996.96984,1619713409.99053,0
17,4,2,3,11,4,4,c4_HowHand,1,pressing button?,83,H_502.jpg,1619712802.75319,1619712802.75491,176.51774310112,9.34022283554077,185.871230592728,187.972014417648,0.3,191.773431768417,0.55020546913147,192.325737943649,1,left,0.529900074005127,192.323637237549,604.477337827683,607.237337827682,1619712982.03094,1619712982.03876,1619712991.38442,1619712991.3885,1619712993.48521,1619712997.28662,1619712997.28884,1619712997.83893,1619712997.83683,1619713409.99053,1
17,4,2,3,11,5,4,c4_HowHand,2,pressing button?,81,H_261.jpg,1619712802.75319,1619712802.75491,176.51774310112,9.34022283554077,185.871230592728,187.972014417648,0.3,192.64042257309,0.683587312698364,193.325754156113,3,right,0.663246870040894,193.324009885788,604.477337827683,607.237337827682,1619712982.03094,1619712982.03876,1619712991.38442,1619712991.3885,1619712993.48521,1619712998.15361,1619712998.15519,1619712998.83895,1619712998.8372,1619713409.99053,0
17,4,2,3,11,6,4,c4_HowHand,1,pressing button?,86,H_332.jpg,1619712802.75319,1619712802.75491,176.51774310112,9.34022283554077,185.871230592728,187.972014417648,0.3,193.640795459747,0.550205945968628,194.191987028122,1,left,0.541731834411621,194.191001405716,604.477337827683,607.237337827682,1619712982.03094,1619712982.03876,1619712991.38442,1619712991.3885,1619712993.48521,1619712999.15399,1619712999.15563,1619712999.70518,1619712999.70419,1619713409.99053,1
17,4,2,3,11,7,4,c4_HowHand,1,pressing button?,82,H_126.jpg,1619712802.75319,1619712802.75491,176.51774310112,9.34022283554077,185.871230592728,187.972014417648,0.3,194.507785310745,0.633570194244385,195.15890501976,1,left,0.626939058303833,195.14135550499,604.477337827683,607.237337827682,1619712982.03094,1619712982.03876,1619712991.38442,1619712991.3885,1619712993.48521,1619713000.02098,1619713000.02263,1619713000.6721,1619713000.65455,1619713409.99053,1
17,4,2,3,11,8,4,c4_HowHand,1,pressing button?,84,H_483.jpg,1619712802.75319,1619712802.75491,176.51774310112,9.34022283554077,185.871230592728,187.972014417648,0.3,195.458140602112,0.800297975540161,196.259816160202,1,left,0.790388107299805,196.258438577652,604.477337827683,607.237337827682,1619712982.03094,1619712982.03876,1619712991.38442,1619712991.3885,1619712993.48521,1619713000.97133,1619713000.97296,1619713001.77301,1619713001.77163,1619713409.99053,1
17,4,2,3,12,1,2,c2_WhyHand,1,competing?,9,H_261.jpg,1619712802.75319,1619712802.75491,196.341801633835,7.30606245994568,203.661199083328,205.76198266983,2.10078358650208,205.912038316727,0.750279664993286,206.675038089752,1,left,0.742630004882812,206.66231798172,604.477337827683,607.237337827682,1619713001.85499,1619713001.8565,1619713009.17439,1619713009.17607,1619713011.27517,1619713011.42523,1619713011.42695,1619713012.18823,1619713012.17551,1619713409.99053,1
17,4,2,3,12,2,2,c2_WhyHand,2,competing?,12,H_483.jpg,1619712802.75319,1619712802.75491,196.341801633835,7.30606245994568,203.661199083328,205.76198266983,0.3,206.979103078842,0.600222826004028,207.59219502449,3,right,0.591715812683105,207.579325904846,604.477337827683,607.237337827682,1619713001.85499,1619713001.8565,1619713009.17439,1619713009.17607,1619713011.27517,1619713012.4923,1619713012.49425,1619713013.10539,1619713013.09252,1619713409.99053,0
17,4,2,3,12,3,2,c2_WhyHand,1,competing?,14,H_132.jpg,1619712802.75319,1619712802.75491,196.341801633835,7.30606245994568,203.661199083328,205.76198266983,0.3,207.896111001968,0.533533096313477,208.44167016983,1,left,0.524720907211304,208.429644098282,604.477337827683,607.237337827682,1619713001.85499,1619713001.8565,1619713009.17439,1619713009.17607,1619713011.27517,1619713013.4093,1619713013.41101,1619713013.95486,1619713013.94284,1619713409.99053,1
17,4,2,3,12,4,2,c2_WhyHand,2,competing?,10,H_126.jpg,1619712802.75319,1619712802.75491,196.341801633835,7.30606245994568,203.661199083328,205.76198266983,0.3,208.74642824173,0.666915655136108,209.425847043991,3,right,0.657250881195068,209.413343896866,604.477337827683,607.237337827682,1619713001.85499,1619713001.8565,1619713009.17439,1619713009.17607,1619713011.27517,1619713014.25962,1619713014.26147,1619713014.93904,1619713014.92654,1619713409.99053,0
17,4,2,3,12,5,2,c2_WhyHand,1,competing?,16,H_136.jpg,1619712802.75319,1619712802.75491,196.341801633835,7.30606245994568,203.661199083328,205.76198266983,0.3,209.730128040314,0.733607053756714,210.475037088394,1,left,0.72098708152771,210.46373509407,604.477337827683,607.237337827682,1619713001.85499,1619713001.8565,1619713009.17439,1619713009.17607,1619713011.27517,1619713015.24332,1619713015.24522,1619713015.98823,1619713015.97693,1619713409.99053,1
17,4,2,3,12,6,2,c2_WhyHand,2,competing?,11,H_502.jpg,1619712802.75319,1619712802.75491,196.341801633835,7.30606245994568,203.661199083328,205.76198266983,0.3,210.780522098541,1.21711897850037,212.008336057663,3,right,1.20517992973328,211.997641077042,604.477337827683,607.237337827682,1619713001.85499,1619713001.8565,1619713009.17439,1619713009.17607,1619713011.27517,1619713016.29371,1619713016.29578,1619713017.52153,1619713017.51083,1619713409.99053,0
17,4,2,3,12,7,2,c2_WhyHand,1,competing?,13,H_003.jpg,1619712802.75319,1619712802.75491,196.341801633835,7.30606245994568,203.661199083328,205.76198266983,0.3,212.314426412582,0.600222826004028,212.925120105743,1,left,0.58722186088562,212.914649238586,604.477337827683,607.237337827682,1619713001.85499,1619713001.8565,1619713009.17439,1619713009.17607,1619713011.27517,1619713017.82762,1619713017.82924,1619713018.43831,1619713018.42784,1619713409.99053,1
17,4,2,3,12,8,2,c2_WhyHand,1,competing?,15,H_170.jpg,1619712802.75319,1619712802.75491,196.341801633835,7.30606245994568,203.661199083328,205.76198266983,0.3,213.231433858871,0.533533096313477,213.775398960114,1,left,0.525406122207642,213.764966955185,604.477337827683,607.237337827682,1619713001.85499,1619713001.8565,1619713009.17439,1619713009.17607,1619713011.27517,1619713018.74463,1619713018.74662,1619713019.28859,1619713019.27816,1619713409.99053,1
17,4,2,3,13,1,1,c1_WhyFace,1,self-doubt?,29,F_544.jpg,1619712802.75319,1619712802.75491,213.848331203461,7.86979293823242,221.734604825974,223.835388889313,2.10078406333923,223.985445013046,0.93368124961853,224.925798168182,1,left,0.917078971862793,224.919126262665,604.477337827683,607.237337827682,1619713019.36152,1619713019.36304,1619713027.2478,1619713027.24962,1619713029.34858,1619713029.49864,1619713029.50112,1619713030.43899,1619713030.43232,1619713409.99053,1
17,4,2,3,13,2,1,c1_WhyFace,2,self-doubt?,27,F_086.jpg,1619712802.75319,1619712802.75491,213.848331203461,7.86979293823242,221.734604825974,223.835388889313,0.3,225.23591088295,0.583551645278931,225.820548048019,3,right,0.560249090194702,225.819462528229,604.477337827683,607.237337827682,1619713019.36152,1619713019.36304,1619713027.2478,1619713027.24962,1619713029.34858,1619713030.7491,1619713030.75083,1619713031.33374,1619713031.33265,1619713409.99053,0
17,4,2,3,13,3,1,c1_WhyFace,1,self-doubt?,25,F_798.jpg,1619712802.75319,1619712802.75491,213.848331203461,7.86979293823242,221.734604825974,223.835388889313,0.3,226.136247386932,0.566877603530884,226.708747138977,1,left,0.550225019454956,226.703124990463,604.477337827683,607.237337827682,1619713019.36152,1619713019.36304,1619713027.2478,1619713027.24962,1619713029.34858,1619713031.64944,1619713031.65121,1619713032.22194,1619713032.21632,1619713409.99053,1
17,4,2,3,13,4,1,c1_WhyFace,1,self-doubt?,26,F_111.jpg,1619712802.75319,1619712802.75491,213.848331203461,7.86979293823242,221.734604825974,223.835388889313,0.3,227.019909849167,0.55020546913147,227.575437059402,1,left,0.542916059494019,227.570115318298,604.477337827683,607.237337827682,1619713019.36152,1619713019.36304,1619713027.2478,1619713027.24962,1619713029.34858,1619713032.5331,1619713032.53478,1619713033.08863,1619713033.08331,1619713409.99053,1
17,4,2,3,13,5,1,c1_WhyFace,2,self-doubt?,31,F_774.jpg,1619712802.75319,1619712802.75491,213.848331203461,7.86979293823242,221.734604825974,223.835388889313,0.3,227.886898984909,0.566878795623779,228.455358018875,3,right,0.544109106063843,228.453777780533,604.477337827683,607.237337827682,1619713019.36152,1619713019.36304,1619713027.2478,1619713027.24962,1619713029.34858,1619713033.40009,1619713033.40197,1619713033.96855,1619713033.96697,1619713409.99053,0
17,4,2,3,13,6,1,c1_WhyFace,1,self-doubt?,28,F_754.jpg,1619712802.75319,1619712802.75491,213.848331203461,7.86979293823242,221.734604825974,223.835388889313,0.3,228.770561685562,1.05039262771606,229.825652112961,1,left,1.03246307373047,229.820954313278,604.477337827683,607.237337827682,1619713019.36152,1619713019.36304,1619713027.2478,1619713027.24962,1619713029.34858,1619713034.28375,1619713034.28883,1619713035.33884,1619713035.33415,1619713409.99053,1
17,4,2,3,13,7,1,c1_WhyFace,2,self-doubt?,32,F_128.jpg,1619712802.75319,1619712802.75491,213.848331203461,7.86979293823242,221.734604825974,223.835388889313,0.3,230.137739171982,0.917008638381958,231.058300962448,3,right,0.903690099716187,231.054747810364,604.477337827683,607.237337827682,1619713019.36152,1619713019.36304,1619713027.2478,1619713027.24962,1619713029.34858,1619713035.65093,1619713035.65534,1619713036.57149,1619713036.56794,1619713409.99053,0
17,4,2,3,13,8,1,c1_WhyFace,1,self-doubt?,30,F_584.jpg,1619712802.75319,1619712802.75491,213.848331203461,7.86979293823242,221.734604825974,223.835388889313,0.3,231.371532430649,1.71730661392212,NaN,0,NA,0,233.088839044571,604.477337827683,607.237337827682,1619713019.36152,1619713019.36304,1619713027.2478,1619713027.24962,1619713029.34858,1619713036.88472,1619713036.88896,NaN,1619713038.60203,1619713409.99053,0
17,4,2,3,14,1,3,c3_HowFace,1,looking at camera?,64,F_128.jpg,1619712802.75319,1619712802.75491,233.422296991348,7.35000705718994,240.791712274551,242.875823726654,2.08411145210266,243.02587937355,0.750278234481812,243.777582159042,1,left,0.715319871902466,243.776157608032,604.477337827683,607.237337827682,1619713038.93549,1619713038.93813,1619713046.3049,1619713046.30779,1619713048.38902,1619713048.53907,1619713048.55587,1619713049.29077,1619713049.28935,1619713409.99053,1
17,4,2,3,14,2,3,c3_HowFace,1,looking at camera?,60,F_618.jpg,1619712802.75319,1619712802.75491,233.422296991348,7.35000705718994,240.791712274551,242.875823726654,0.3,244.092943658829,0.616896629333496,244.710975160599,1,left,0.593897104263306,244.709840288162,604.477337827683,607.237337827682,1619713038.93549,1619713038.93813,1619713046.3049,1619713046.30779,1619713048.38902,1619713049.60614,1619713049.60764,1619713050.22417,1619713050.22303,1619713409.99053,1
17,4,2,3,14,3,3,c3_HowFace,1,looking at camera?,62,F_598.jpg,1619712802.75319,1619712802.75491,233.422296991348,7.35000705718994,240.791712274551,242.875823726654,0.3,245.026625385284,0.533531188964844,245.56123208046,1,left,0.515317916870117,245.560156574249,604.477337827683,607.237337827682,1619713038.93549,1619713038.93813,1619713046.3049,1619713046.30779,1619713048.38902,1619713050.53982,1619713050.54151,1619713051.07442,1619713051.07335,1619713409.99053,1
17,4,2,3,14,4,3,c3_HowFace,2,looking at camera?,63,F_743.jpg,1619712802.75319,1619712802.75491,233.422296991348,7.35000705718994,240.791712274551,242.875823726654,0.3,245.876942386627,0.516857862472534,246.395189037323,3,right,0.498687028884888,246.3938002491,604.477337827683,607.237337827682,1619713038.93549,1619713038.93813,1619713046.3049,1619713046.30779,1619713048.38902,1619713051.39013,1619713051.392,1619713051.90838,1619713051.90699,1619713409.99053,0
17,4,2,3,14,5,3,c3_HowFace,1,looking at camera?,61,F_774.jpg,1619712802.75319,1619712802.75491,233.422296991348,7.35000705718994,240.791712274551,242.875823726654,0.3,246.710585823059,0.500186443328857,247.211807956696,1,left,0.482978105545044,247.210772266388,604.477337827683,607.237337827682,1619713038.93549,1619713038.93813,1619713046.3049,1619713046.30779,1619713048.38902,1619713052.22378,1619713052.22548,1619713052.725,1619713052.72396,1619713409.99053,1
17,4,2,3,14,6,3,c3_HowFace,2,looking at camera?,57,F_582.jpg,1619712802.75319,1619712802.75491,233.422296991348,7.35000705718994,240.791712274551,242.875823726654,0.3,247.527558078766,0.850317239761353,248.3793699646,3,right,0.832878112792969,248.377875318527,604.477337827683,607.237337827682,1619713038.93549,1619713038.93813,1619713046.3049,1619713046.30779,1619713048.38902,1619713053.04075,1619713053.04287,1619713053.89256,1619713053.89107,1619713409.99053,0
17,4,2,3,14,7,3,c3_HowFace,2,looking at camera?,58,F_754.jpg,1619712802.75319,1619712802.75491,233.422296991348,7.35000705718994,240.791712274551,242.875823726654,0.3,248.694658746719,0.666916847229004,249.363193025589,3,right,0.647941827774048,249.361575593948,604.477337827683,607.237337827682,1619713038.93549,1619713038.93813,1619713046.3049,1619713046.30779,1619713048.38902,1619713054.20785,1619713054.20958,1619713054.87638,1619713054.87477,1619713409.99053,0
17,4,2,3,14,8,3,c3_HowFace,1,looking at camera?,59,F_129.jpg,1619712802.75319,1619712802.75491,233.422296991348,7.35000705718994,240.791712274551,242.875823726654,0.3,249.678359022141,0.766952753067017,250.446619977951,1,left,0.748820066452026,250.445311775208,604.477337827683,607.237337827682,1619713038.93549,1619713038.93813,1619713046.3049,1619713046.30779,1619713048.38902,1619713055.19155,1619713055.19331,1619713055.95981,1619713055.9585,1619713409.99053,1
17,4,2,3,15,1,4,c4_HowHand,1,both hands?,123,H_167.jpg,1619712802.75319,1619712802.75491,250.512004365921,9.04997563362122,259.565380325317,261.666163434982,2.10078310966492,261.816218605042,1.05039238929749,262.875075092316,1,left,1.03270196914673,262.866610994339,604.477337827683,607.237337827682,1619713056.0252,1619713056.02618,1619713065.07857,1619713065.08854,1619713067.17936,1619713067.32941,1619713067.33897,1619713068.38827,1619713068.3798,1619713409.99053,1
17,4,2,3,15,2,4,c4_HowHand,2,both hands?,121,H_091.jpg,1619712802.75319,1619712802.75491,250.512004365921,9.04997563362122,259.565380325317,261.666163434982,0.3,263.183396568298,0.650241851806641,263.834718933105,3,right,0.631195068359375,263.833638420105,604.477337827683,607.237337827682,1619713056.0252,1619713056.02618,1619713065.07857,1619713065.08854,1619713067.17936,1619713068.69659,1619713068.69841,1619713069.34791,1619713069.34683,1619713409.99053,0
17,4,2,3,15,3,4,c4_HowHand,2,both hands?,125,H_627.jpg,1619712802.75319,1619712802.75491,250.512004365921,9.04997563362122,259.565380325317,261.666163434982,0.3,264.15042304039,0.933682680130005,265.092024078369,3,right,0.924036026000977,265.08410572052,604.477337827683,607.237337827682,1619713056.0252,1619713056.02618,1619713065.07857,1619713065.08854,1619713067.17936,1619713069.66361,1619713069.66504,1619713070.60522,1619713070.5973,1619713409.99053,0
17,4,2,3,15,4,4,c4_HowHand,1,both hands?,128,H_027.jpg,1619712802.75319,1619712802.75491,250.512004365921,9.04997563362122,259.565380325317,261.666163434982,0.3,265.400890340805,0.550204753875732,265.95223115921,1,left,0.53267502784729,265.951095094681,604.477337827683,607.237337827682,1619713056.0252,1619713056.02618,1619713065.07857,1619713065.08854,1619713067.17936,1619713070.91408,1619713070.91559,1619713071.46542,1619713071.46429,1619713409.99053,1
17,4,2,3,15,5,4,c4_HowHand,1,both hands?,122,H_111.jpg,1619712802.75319,1619712802.75491,250.512004365921,9.04997563362122,259.565380325317,261.666163434982,0.3,266.26788066864,0.533531665802002,266.808988084793,1,left,0.524905920028687,266.801412334442,604.477337827683,607.237337827682,1619713056.0252,1619713056.02618,1619713065.07857,1619713065.08854,1619713067.17936,1619713071.78107,1619713071.78288,1619713072.32218,1619713072.3146,1619713409.99053,1
17,4,2,3,15,6,4,c4_HowHand,2,both hands?,126,H_159.jpg,1619712802.75319,1619712802.75491,250.512004365921,9.04997563362122,259.565380325317,261.666163434982,0.3,267.118196001053,0.650243520736694,267.77532409668,3,right,0.641819000244141,267.76843952179,604.477337827683,607.237337827682,1619713056.0252,1619713056.02618,1619713065.07857,1619713065.08854,1619713067.17936,1619713072.63139,1619713072.63295,1619713073.28852,1619713073.28163,1619713409.99053,0
17,4,2,3,15,7,4,c4_HowHand,1,both hands?,124,H_581.jpg,1619712802.75319,1619712802.75491,250.512004365921,9.04997563362122,259.565380325317,261.666163434982,0.3,268.085224142075,1.26713848114014,269.358343114853,1,left,1.25934195518494,269.352362623215,604.477337827683,607.237337827682,1619713056.0252,1619713056.02618,1619713065.07857,1619713065.08854,1619713067.17936,1619713073.59842,1619713073.60019,1619713074.87154,1619713074.86555,1619713409.99053,1
17,4,2,3,15,8,4,c4_HowHand,1,both hands?,127,H_349.jpg,1619712802.75319,1619712802.75491,250.512004365921,9.04997563362122,259.565380325317,261.666163434982,0.3,269.669148197174,0.500185966491699,270.171009054184,1,left,0.48045015335083,270.169334163666,604.477337827683,607.237337827682,1619713056.0252,1619713056.02618,1619713065.07857,1619713065.08854,1619713067.17936,1619713075.18234,1619713075.1842,1619713075.6842,1619713075.68253,1619713409.99053,1
17,4,2,3,16,1,2,c2_WhyHand,1,self-protection?,89,H_443.jpg,1619712802.75319,1619712802.75491,270.236026039124,8.11584210395813,278.355721464157,280.456505289078,2.10078382492065,280.6065599823,1.41719460487366,282.025001993179,3,right,1.40249681472778,282.023754587173,604.477337827683,607.237337827682,1619713075.74922,1619713075.75497,1619713083.86891,1619713083.87211,1619713085.9697,1619713086.11975,1619713086.1222,1619713087.53819,1619713087.53695,1619713409.99053,0
17,4,2,3,16,2,2,c2_WhyHand,2,self-protection?,90,H_006.jpg,1619712802.75319,1619712802.75491,270.236026039124,8.11584210395813,278.355721464157,280.456505289078,0.3,282.340540161133,1.56725072860718,283.925065031052,3,right,1.56077003479004,283.90779088974,604.477337827683,607.237337827682,1619713075.74922,1619713075.75497,1619713083.86891,1619713083.87211,1619713085.9697,1619713087.85373,1619713087.85518,1619713089.43826,1619713089.42098,1619713409.99053,0
17,4,2,3,16,3,2,c2_WhyHand,1,self-protection?,91,H_581.jpg,1619712802.75319,1619712802.75491,270.236026039124,8.11584210395813,278.355721464157,280.456505289078,0.3,284.224575748444,1.58392453193665,285.809407939911,1,left,1.57511305809021,285.80850028038,604.477337827683,607.237337827682,1619713075.74922,1619713075.75497,1619713083.86891,1619713083.87211,1619713085.9697,1619713089.73777,1619713089.73949,1619713091.3226,1619713091.32169,1619713409.99053,1
17,4,2,3,16,4,2,c2_WhyHand,2,self-protection?,92,H_532.jpg,1619712802.75319,1619712802.75491,270.236026039124,8.11584210395813,278.355721464157,280.456505289078,0.3,286.125285377502,0.750279426574707,286.876646986008,3,right,0.72707200050354,286.875564804077,604.477337827683,607.237337827682,1619713075.74922,1619713075.75497,1619713083.86891,1619713083.87211,1619713085.9697,1619713091.63848,1619713091.64006,1619713092.38984,1619713092.38876,1619713409.99053,0
17,4,2,3,16,5,2,c2_WhyHand,1,self-protection?,96,H_027.jpg,1619712802.75319,1619712802.75491,270.236026039124,8.11584210395813,278.355721464157,280.456505289078,0.3,287.192349901199,0.816970109939575,288.025573959351,1,left,0.808726072311401,288.009320011139,604.477337827683,607.237337827682,1619713075.74922,1619713075.75497,1619713083.86891,1619713083.87211,1619713085.9697,1619713092.70554,1619713092.70683,1619713093.53877,1619713093.52251,1619713409.99053,1
17,4,2,3,16,6,2,c2_WhyHand,1,self-protection?,93,H_038.jpg,1619712802.75319,1619712802.75491,270.236026039124,8.11584210395813,278.355721464157,280.456505289078,0.3,288.326104869843,1.20044827461243,289.527529945374,3,right,1.18849396705627,289.526553144455,604.477337827683,607.237337827682,1619713075.74922,1619713075.75497,1619713083.86891,1619713083.87211,1619713085.9697,1619713093.8393,1619713093.8409,1619713095.04072,1619713095.03975,1619713409.99053,0
17,4,2,3,16,7,2,c2_WhyHand,2,self-protection?,95,H_332.jpg,1619712802.75319,1619712802.75491,270.236026039124,8.11584210395813,278.355721464157,280.456505289078,0.3,289.84333776474,0.967027902603149,290.811962118149,3,right,0.954400777816772,290.810365667343,604.477337827683,607.237337827682,1619713075.74922,1619713075.75497,1619713083.86891,1619713083.87211,1619713085.9697,1619713095.35653,1619713095.35846,1619713096.32515,1619713096.32356,1619713409.99053,0
17,4,2,3,16,8,2,c2_WhyHand,1,self-protection?,94,H_189.jpg,1619712802.75319,1619712802.75491,270.236026039124,8.11584210395813,278.355721464157,280.456505289078,0.3,291.12715004921,0.800297737121582,291.928586950302,1,left,0.784070014953613,291.927447786331,604.477337827683,607.237337827682,1619713075.74922,1619713075.75497,1619713083.86891,1619713083.87211,1619713085.9697,1619713096.64034,1619713096.64185,1619713097.44178,1619713097.44064,1619713409.99053,1
17,4,2,3,17,1,3,c3_HowFace,1,smiling?,118,F_759.jpg,1619712802.75319,1619712802.75491,291.994140853882,7.83775615692139,299.84706949234,301.947852363586,2.10078287124634,302.09790848732,0.666914939880371,302.766198148727,1,left,0.648937940597534,302.7648234272,604.477337827683,607.237337827682,1619713097.50733,1619713097.50823,1619713105.36026,1619713105.36217,1619713107.46104,1619713107.6111,1619713107.61306,1619713108.27939,1619713108.27802,1619713409.99053,1
17,4,2,3,17,2,3,c3_HowFace,2,smiling?,114,F_412.jpg,1619712802.75319,1619712802.75491,291.994140853882,7.83775615692139,299.84706949234,301.947852363586,0.3,303.081607809067,0.566878795623779,303.658684005737,3,right,0.552813053131104,303.648486604691,604.477337827683,607.237337827682,1619713097.50733,1619713097.50823,1619713105.36026,1619713105.36217,1619713107.46104,1619713108.5948,1619713108.59641,1619713109.17188,1619713109.16168,1619713409.99053,0
17,4,2,3,17,3,3,c3_HowFace,1,smiling?,117,F_593.jpg,1619712802.75319,1619712802.75491,291.994140853882,7.83775615692139,299.84706949234,301.947852363586,0.3,303.965271463394,0.500186681747437,304.475393047333,1,left,0.48819899559021,304.465458145142,604.477337827683,607.237337827682,1619713097.50733,1619713097.50823,1619713105.36026,1619713105.36217,1619713107.46104,1619713109.47846,1619713109.47998,1619713109.98858,1619713109.97865,1619713409.99053,1
17,4,2,3,17,4,3,c3_HowFace,2,smiling?,113,F_712.jpg,1619712802.75319,1619712802.75491,291.994140853882,7.83775615692139,299.84706949234,301.947852363586,0.3,304.782241811752,0.650243520736694,305.442343940735,3,right,0.636614799499512,305.432485332489,604.477337827683,607.237337827682,1619713097.50733,1619713097.50823,1619713105.36026,1619713105.36217,1619713107.46104,1619713110.29543,1619713110.29693,1619713110.95554,1619713110.94568,1619713409.99053,0
17,4,2,3,17,5,3,c3_HowFace,1,smiling?,115,F_695.jpg,1619712802.75319,1619712802.75491,291.994140853882,7.83775615692139,299.84706949234,301.947852363586,0.3,305.749268522263,0.733608245849609,306.484380950928,1,left,0.714995861053467,306.482876768112,604.477337827683,607.237337827682,1619713097.50733,1619713097.50823,1619713105.36026,1619713105.36217,1619713107.46104,1619713111.26246,1619713111.26412,1619713111.99757,1619713111.99607,1619713409.99053,1
17,4,2,3,17,6,3,c3_HowFace,1,smiling?,119,F_139.jpg,1619712802.75319,1619712802.75491,291.994140853882,7.83775615692139,299.84706949234,301.947852363586,0.3,306.799661388397,0.566879034042358,307.375628938675,1,left,0.556571006774902,307.36654042244,604.477337827683,607.237337827682,1619713097.50733,1619713097.50823,1619713105.36026,1619713105.36217,1619713107.46104,1619713112.31285,1619713112.3143,1619713112.88882,1619713112.87973,1619713409.99053,1
17,4,2,3,17,7,3,c3_HowFace,1,smiling?,116,F_083.jpg,1619712802.75319,1619712802.75491,291.994140853882,7.83775615692139,299.84706949234,301.947852363586,0.3,307.683323850632,0.633570194244385,308.325525035858,1,left,0.617609977722168,308.316894044876,604.477337827683,607.237337827682,1619713097.50733,1619713097.50823,1619713105.36026,1619713105.36217,1619713107.46104,1619713113.19652,1619713113.19822,1619713113.83872,1619713113.83009,1619713409.99053,1
17,4,2,3,17,8,3,c3_HowFace,2,smiling?,120,F_758.jpg,1619712802.75319,1619712802.75491,291.994140853882,7.83775615692139,299.84706949234,301.947852363586,0.3,308.633679618835,0.600222826004028,309.24163602829,3,right,0.584411144256592,309.233902444839,604.477337827683,607.237337827682,1619713097.50733,1619713097.50823,1619713105.36026,1619713105.36217,1619713107.46104,1619713114.14687,1619713114.14891,1619713114.75483,1619713114.74709,1619713409.99053,0
17,4,2,3,18,1,1,c1_WhyFace,1,admiring?,1,F_593.jpg,1619712802.75319,1619712802.75491,309.300594081879,8.32128286361694,317.637036552429,319.737819662094,2.10078310966492,319.887875070572,1.05039238929749,320.941683998108,1,left,1.02898502349854,320.938267459869,604.477337827683,607.237337827682,1619713114.81379,1619713114.82146,1619713123.15023,1619713123.15559,1619713125.25101,1619713125.40107,1619713125.40563,1619713126.45488,1619713126.45146,1619713409.99053,1
17,4,2,3,18,2,1,c1_WhyFace,2,admiring?,2,F_129.jpg,1619712802.75319,1619712802.75491,309.300594081879,8.32128286361694,317.637036552429,319.737819662094,0.3,321.255052318573,1.2838122844696,322.542485942841,3,right,1.26737689971924,322.538864603043,604.477337827683,607.237337827682,1619713114.81379,1619713114.82146,1619713123.15023,1619713123.15559,1619713125.25101,1619713126.76824,1619713126.77212,1619713128.05568,1619713128.05206,1619713409.99053,0
17,4,2,3,18,3,1,c1_WhyFace,1,admiring?,5,F_759.jpg,1619712802.75319,1619712802.75491,309.300594081879,8.32128286361694,317.637036552429,319.737819662094,0.3,322.855648984909,0.683588027954102,323.542363157272,1,left,0.66956615447998,323.539237012863,604.477337827683,607.237337827682,1619713114.81379,1619713114.82146,1619713123.15023,1619713123.15559,1619713125.25101,1619713128.36884,1619713128.37202,1619713129.05556,1619713129.05243,1619713409.99053,1
17,4,2,3,18,4,1,c1_WhyFace,2,admiring?,6,F_692.jpg,1619712802.75319,1619712802.75491,309.300594081879,8.32128286361694,317.637036552429,319.737819662094,0.3,323.856022348404,0.700261116027832,324.558938970566,3,right,0.677597045898438,324.556283464432,604.477337827683,607.237337827682,1619713114.81379,1619713114.82146,1619713123.15023,1619713123.15559,1619713125.25101,1619713129.36921,1619713129.37215,1619713130.07213,1619713130.06948,1619713409.99053,0
17,4,2,3,18,5,1,c1_WhyFace,1,admiring?,4,F_779.jpg,1619712802.75319,1619712802.75491,309.300594081879,8.32128286361694,317.637036552429,319.737819662094,0.3,324.873068084717,0.483514785766602,325.358795156479,1,left,0.465003967285156,325.356582870483,604.477337827683,607.237337827682,1619713114.81379,1619713114.82146,1619713123.15023,1619713123.15559,1619713125.25101,1619713130.38626,1619713130.38886,1619713130.87199,1619713130.86977,1619713409.99053,1
17,4,2,3,18,6,1,c1_WhyFace,1,admiring?,8,F_590.jpg,1619712802.75319,1619712802.75491,309.300594081879,8.32128286361694,317.637036552429,319.737819662094,0.3,325.67336558342,0.583550930023193,326.258203020096,1,left,0.576077938079834,326.256916513443,604.477337827683,607.237337827682,1619713114.81379,1619713114.82146,1619713123.15023,1619713123.15559,1619713125.25101,1619713131.18656,1619713131.18861,1619713131.77139,1619713131.77011,1619713409.99053,1
17,4,2,3,18,7,1,c1_WhyFace,1,admiring?,7,F_648.jpg,1619712802.75319,1619712802.75491,309.300594081879,8.32128286361694,317.637036552429,319.737819662094,0.3,326.573701372147,0.46684193611145,327.042375078201,1,left,0.456244945526123,327.040543308258,604.477337827683,607.237337827682,1619713114.81379,1619713114.82146,1619713123.15023,1619713123.15559,1619713125.25101,1619713132.08689,1619713132.08866,1619713132.55557,1619713132.55374,1619713409.99053,1
17,4,2,3,18,8,1,c1_WhyFace,2,admiring?,3,F_110.jpg,1619712802.75319,1619712802.75491,309.300594081879,8.32128286361694,317.637036552429,319.737819662094,0.3,327.35732840538,0.666914701461792,328.026010980606,3,right,0.643705129623413,328.024243106842,604.477337827683,607.237337827682,1619713114.81379,1619713114.82146,1619713123.15023,1619713123.15559,1619713125.25101,1619713132.87052,1619713132.87252,1619713133.5392,1619713133.53744,1619713409.99053,0
17,4,2,3,19,1,2,c2_WhyHand,1,competing?,9,H_261.jpg,1619712802.75319,1619712802.75491,328.090934505463,7.42093658447266,335.527041902542,337.627824773788,2.10078287124634,337.777880659103,0.400147676467896,338.191683998108,1,left,0.390630006790161,338.178028335571,604.477337827683,607.237337827682,1619713133.60413,1619713133.60501,1619713141.04023,1619713141.04194,1619713143.14102,1619713143.29107,1619713143.29238,1619713143.70488,1619713143.69122,1619713409.99053,1
17,4,2,3,19,2,2,c2_WhyHand,1,competing?,15,H_170.jpg,1619712802.75319,1619712802.75491,328.090934505463,7.42093658447266,335.527041902542,337.627824773788,0.3,338.494814863205,0.450167655944824,338.94649600029,1,left,0.42789101600647,338.94498251915,604.477337827683,607.237337827682,1619713133.60413,1619713133.60501,1619713141.04023,1619713141.04194,1619713143.14102,1619713144.00801,1619713144.01003,1619713144.45969,1619713144.45817,1619713409.99053,1
17,4,2,3,19,3,2,c2_WhyHand,2,competing?,12,H_483.jpg,1619712802.75319,1619712802.75491,328.090934505463,7.42093658447266,335.527041902542,337.627824773788,0.3,339.261766901016,0.550204992294312,339.813080062866,3,right,0.532651901245117,339.811971893311,604.477337827683,607.237337827682,1619713133.60413,1619713133.60501,1619713141.04023,1619713141.04194,1619713143.14102,1619713144.77496,1619713144.77643,1619713145.32627,1619713145.32516,1619713409.99053,0
17,4,2,3,19,4,2,c2_WhyHand,1,competing?,14,H_132.jpg,1619712802.75319,1619712802.75491,328.090934505463,7.42093658447266,335.527041902542,337.627824773788,0.3,340.12875746727,0.450167655944824,340.580118169785,1,left,0.433837890625,340.578925123215,604.477337827683,607.237337827682,1619713133.60413,1619713133.60501,1619713141.04023,1619713141.04194,1619713143.14102,1619713145.64195,1619713145.64396,1619713146.09331,1619713146.09212,1619713409.99053,1
17,4,2,3,19,5,2,c2_WhyHand,1,competing?,16,H_136.jpg,1619712802.75319,1619712802.75491,328.090934505463,7.42093658447266,335.527041902542,337.627824773788,0.3,340.895709981918,0.633569240570068,341.531054964066,1,left,0.613752126693726,341.529279222488,604.477337827683,607.237337827682,1619713133.60413,1619713133.60501,1619713141.04023,1619713141.04194,1619713143.14102,1619713146.4089,1619713146.41078,1619713147.04425,1619713147.04247,1619713409.99053,1
17,4,2,3,19,6,2,c2_WhyHand,1,competing?,13,H_003.jpg,1619712802.75319,1619712802.75491,328.090934505463,7.42093658447266,335.527041902542,337.627824773788,0.3,341.846064081192,0.550205230712891,342.4087541008,1,left,0.540462970733643,342.396269311905,604.477337827683,607.237337827682,1619713133.60413,1619713133.60501,1619713141.04023,1619713141.04194,1619713143.14102,1619713147.35926,1619713147.3612,1619713147.92195,1619713147.90946,1619713409.99053,1
17,4,2,3,19,7,2,c2_WhyHand,2,competing?,10,H_126.jpg,1619712802.75319,1619712802.75491,328.090934505463,7.42093658447266,335.527041902542,337.627824773788,0.3,342.713054647446,0.533532381057739,343.248234977722,3,right,0.518308877944946,343.246587028503,604.477337827683,607.237337827682,1619713133.60413,1619713133.60501,1619713141.04023,1619713141.04194,1619713143.14102,1619713148.22625,1619713148.22763,1619713148.76143,1619713148.75978,1619713409.99053,0
17,4,2,3,19,8,2,c2_WhyHand,2,competing?,11,H_502.jpg,1619712802.75319,1619712802.75491,328.090934505463,7.42093658447266,335.527041902542,337.627824773788,0.3,343.563371887207,0.633568048477173,344.20867609024,3,right,0.622586011886597,344.196939935684,604.477337827683,607.237337827682,1619713133.60413,1619713133.60501,1619713141.04023,1619713141.04194,1619713143.14102,1619713149.07656,1619713149.07832,1619713149.72187,1619713149.71013,1619713409.99053,0
17,4,2,3,20,1,4,c4_HowHand,1,reaching?,111,H_003.jpg,1619712802.75319,1619712802.75491,344.280305376053,12.7116096019745,357.00171541214,359.102500667572,2.10078525543213,359.252555122375,0.7169349193573,359.975420942307,1,left,0.693427085876465,359.969490041733,604.477337827683,607.237337827682,1619713149.7935,1619713149.7949,1619713162.51491,1619713162.52246,1619713164.61569,1619713164.76575,1619713164.7725,1619713165.48861,1619713165.48268,1619713409.99053,1
17,4,2,3,20,2,4,c4_HowHand,1,reaching?,110,H_364.jpg,1619712802.75319,1619712802.75491,344.280305376053,12.7116096019745,357.00171541214,359.102500667572,0.3,360.286274185181,0.600224494934082,360.892521133423,1,left,0.587916851043701,360.886498680115,604.477337827683,607.237337827682,1619713149.7935,1619713149.7949,1619713162.51491,1619713162.52246,1619713164.61569,1619713165.79947,1619713165.80095,1619713166.40571,1619713166.39969,1619713409.99053,1
17,4,2,3,20,3,4,c4_HowHand,2,reaching?,108,H_532.jpg,1619712802.75319,1619712802.75491,344.280305376053,12.7116096019745,357.00171541214,359.102500667572,0.3,361.203282823563,0.550204753875732,361.758707036972,3,right,0.536252021789551,361.753487577438,604.477337827683,607.237337827682,1619713149.7935,1619713149.7949,1619713162.51491,1619713162.52246,1619713164.61569,1619713166.71647,1619713166.71852,1619713167.2719,1619713167.26668,1619713409.99053,0
17,4,2,3,20,4,4,c4_HowHand,1,reaching?,106,H_006.jpg,1619712802.75319,1619712802.75491,344.280305376053,12.7116096019745,357.00171541214,359.102500667572,0.3,362.070274105072,0.666914463043213,362.741538991928,1,left,0.660346984863281,362.737188568115,604.477337827683,607.237337827682,1619713149.7935,1619713149.7949,1619713162.51491,1619713162.52246,1619713164.61569,1619713167.58347,1619713167.58523,1619713168.25473,1619713168.25038,1619713409.99053,1
17,4,2,3,20,5,4,c4_HowHand,2,reaching?,105,H_438.jpg,1619712802.75319,1619712802.75491,344.280305376053,12.7116096019745,357.00171541214,359.102500667572,0.3,363.053973426819,0.733606815338135,363.791758050919,3,right,0.714047908782959,363.787580242157,604.477337827683,607.237337827682,1619713149.7935,1619713149.7949,1619713162.51491,1619713162.52246,1619713164.61569,1619713168.56717,1619713168.57193,1619713169.30495,1619713169.30077,1619713409.99053,0
17,4,2,3,20,6,4,c4_HowHand,1,reaching?,107,H_007.jpg,1619712802.75319,1619712802.75491,344.280305376053,12.7116096019745,357.00171541214,359.102500667572,0.3,364.104365577698,0.633568525314331,364.74199007988,1,left,0.621223926544189,364.737934103012,604.477337827683,607.237337827682,1619713149.7935,1619713149.7949,1619713162.51491,1619713162.52246,1619713164.61569,1619713169.61756,1619713169.62207,1619713170.25518,1619713170.25113,1619713409.99053,1
17,4,2,3,20,7,4,c4_HowHand,1,reaching?,109,H_474.jpg,1619712802.75319,1619712802.75491,344.280305376053,12.7116096019745,357.00171541214,359.102500667572,0.3,365.054719676971,0.850316286087036,365.906218042374,1,left,0.824527978897095,365.905035963058,604.477337827683,607.237337827682,1619713149.7935,1619713149.7949,1619713162.51491,1619713162.52246,1619713164.61569,1619713170.56791,1619713170.57235,1619713171.41941,1619713171.41823,1619713409.99053,1
17,4,2,3,20,8,4,c4_HowHand,2,reaching?,112,H_132.jpg,1619712802.75319,1619712802.75491,344.280305376053,12.7116096019745,357.00171541214,359.102500667572,0.3,366.221821298599,0.583550930023193,366.808941116333,1,left,0.563937902450562,366.805372228622,604.477337827683,607.237337827682,1619713149.7935,1619713149.7949,1619713162.51491,1619713162.52246,1619713164.61569,1619713171.73501,1619713171.7388,1619713172.32213,1619713172.31856,1619713409.99053,0
17,4,2,3,21,1,3,c3_HowFace,1,open mouth?,73,F_403.jpg,1619712802.75319,1619712802.75491,366.888735761642,7.94325232505798,374.841703166962,376.942486038208,2.10078287124634,377.09254240036,0.48351263999939,377.577557077408,1,left,0.463401079177856,377.57605504036,604.477337827683,607.237337827682,1619713172.40193,1619713172.4054,1619713180.3549,1619713180.3568,1619713182.45568,1619713182.60573,1619713182.60746,1619713183.09075,1619713183.08925,1619713409.99053,1
17,4,2,3,21,2,3,c3_HowFace,2,open mouth?,79,F_648.jpg,1619712802.75319,1619712802.75491,366.888735761642,7.94325232505798,374.841703166962,376.942486038208,0.3,377.892840614319,0.466840505599976,378.360655059814,3,right,0.454395055770874,378.359681119919,604.477337827683,607.237337827682,1619713172.40193,1619713172.4054,1619713180.3549,1619713180.3568,1619713182.45568,1619713183.40603,1619713183.40799,1619713183.87385,1619713183.87287,1619713409.99053,0
17,4,2,3,21,3,3,c3_HowFace,1,open mouth?,74,F_776.jpg,1619712802.75319,1619712802.75491,366.888735761642,7.94325232505798,374.841703166962,376.942486038208,0.3,378.676466217041,0.433494806289673,379.125715961456,1,left,0.42634105682373,379.109961023331,604.477337827683,607.237337827682,1619713172.40193,1619713172.4054,1619713180.3549,1619713180.3568,1619713182.45568,1619713184.18966,1619713184.19123,1619713184.63891,1619713184.62315,1619713409.99053,1
17,4,2,3,21,4,3,c3_HowFace,2,open mouth?,77,F_584.jpg,1619712802.75319,1619712802.75491,366.888735761642,7.94325232505798,374.841703166962,376.942486038208,0.3,379.426745405197,0.566879034042358,379.994642963409,3,right,0.548852205276489,379.99362443924,604.477337827683,607.237337827682,1619713172.40193,1619713172.4054,1619713180.3549,1619713180.3568,1619713182.45568,1619713184.93994,1619713184.9418,1619713185.50783,1619713185.50682,1619713409.99053,0
17,4,2,3,21,5,3,c3_HowFace,1,open mouth?,80,F_844.jpg,1619712802.75319,1619712802.75491,366.888735761642,7.94325232505798,374.841703166962,376.942486038208,0.3,380.310408582687,0.400148630142212,380.712208023071,1,left,0.38411808013916,380.71055721283,604.477337827683,607.237337827682,1619713172.40193,1619713172.4054,1619713180.3549,1619713180.3568,1619713182.45568,1619713185.8236,1619713185.82512,1619713186.2254,1619713186.22375,1619713409.99053,1
17,4,2,3,21,6,3,c3_HowFace,1,open mouth?,78,F_692.jpg,1619712802.75319,1619712802.75491,366.888735761642,7.94325232505798,374.841703166962,376.942486038208,0.3,381.027341594696,0.43349552154541,381.475372066498,1,left,0.424468994140625,381.460837116241,604.477337827683,607.237337827682,1619713172.40193,1619713172.4054,1619713180.3549,1619713180.3568,1619713182.45568,1619713186.54053,1619713186.54214,1619713186.98856,1619713186.97403,1619713409.99053,1
17,4,2,3,21,7,3,c3_HowFace,1,open mouth?,75,F_086.jpg,1619712802.75319,1619712802.75491,366.888735761642,7.94325232505798,374.841703166962,376.942486038208,0.3,381.777621736526,0.433495759963989,382.212644090652,1,left,0.419081211090088,382.21111749649,604.477337827683,607.237337827682,1619713172.40193,1619713172.4054,1619713180.3549,1619713180.3568,1619713182.45568,1619713187.29081,1619713187.29234,1619713187.72584,1619713187.72431,1619713409.99053,1
17,4,2,3,21,8,3,c3_HowFace,2,open mouth?,76,F_544.jpg,1619712802.75319,1619712802.75491,366.888735761642,7.94325232505798,374.841703166962,376.942486038208,0.3,382.527901639938,0.566879034042358,383.095890989304,3,right,0.549378156661987,383.094780673981,604.477337827683,607.237337827682,1619713172.40193,1619713172.4054,1619713180.3549,1619713180.3568,1619713182.45568,1619713188.04109,1619713188.04289,1619713188.60908,1619713188.60797,1619713409.99053,0
17,4,2,3,22,1,1,c1_WhyFace,1,argument?,42,F_403.jpg,1619712802.75319,1619712802.75491,383.161472072601,10.3464150428772,393.51533364296,395.61611579895,2.1007821559906,395.766172399521,0.666914939880371,396.442131032944,1,left,0.646873950958252,396.433087339401,604.477337827683,607.237337827682,1619713188.67466,1619713188.68895,1619713199.02853,1619713199.03904,1619713201.12931,1619713201.27936,1619713201.28898,1619713201.95532,1619713201.94628,1619713409.99053,1
17,4,2,3,22,2,1,c1_WhyFace,2,argument?,46,F_844.jpg,1619712802.75319,1619712802.75491,383.161472072601,10.3464150428772,393.51533364296,395.61611579895,0.3,396.749871959686,0.450167655944824,397.201133003235,3,right,0.431133985519409,397.200039615631,604.477337827683,607.237337827682,1619713188.67466,1619713188.68895,1619713199.02853,1619713199.03904,1619713201.12931,1619713202.26306,1619713202.26456,1619713202.71432,1619713202.71323,1619713409.99053,0
17,4,2,3,22,3,1,c1_WhyFace,1,argument?,41,F_712.jpg,1619712802.75319,1619712802.75491,383.161472072601,10.3464150428772,393.51533364296,395.61611579895,0.3,397.51682518959,0.533531427383423,398.051989068985,1,left,0.512366056442261,398.050356616974,604.477337827683,607.237337827682,1619713188.67466,1619713188.68895,1619713199.02853,1619713199.03904,1619713201.12931,1619713203.03002,1619713203.03205,1619713203.56518,1619713203.56355,1619713409.99053,1
17,4,2,3,22,4,1,c1_WhyFace,1,argument?,48,F_758.jpg,1619712802.75319,1619712802.75491,383.161472072601,10.3464150428772,393.51533364296,395.61611579895,0.3,398.367143144608,0.566877365112305,398.935050954819,1,left,0.546350955963135,398.93402050972,604.477337827683,607.237337827682,1619713188.67466,1619713188.68895,1619713199.02853,1619713199.03904,1619713201.12931,1619713203.88034,1619713203.8821,1619713204.44824,1619713204.44721,1619713409.99053,1
17,4,2,3,22,5,1,c1_WhyFace,2,argument?,45,F_433.jpg,1619712802.75319,1619712802.75491,383.161472072601,10.3464150428772,393.51533364296,395.61611579895,0.3,399.250805130005,0.516859531402588,399.775387992859,3,right,0.501513957977295,399.767664661407,604.477337827683,607.237337827682,1619713188.67466,1619713188.68895,1619713199.02853,1619713199.03904,1619713201.12931,1619713204.764,1619713204.76581,1619713205.28858,1619713205.28086,1619713409.99053,0
17,4,2,3,22,6,1,c1_WhyFace,1,argument?,43,F_716.jpg,1619712802.75319,1619712802.75491,383.161472072601,10.3464150428772,393.51533364296,395.61611579895,0.3,400.084448804855,0.616897106170654,400.70870303154,1,left,0.60868501663208,400.701345911026,604.477337827683,607.237337827682,1619713188.67466,1619713188.68895,1619713199.02853,1619713199.03904,1619713201.12931,1619713205.59764,1619713205.5992,1619713206.22189,1619713206.21454,1619713409.99053,1
17,4,2,3,22,7,1,c1_WhyFace,2,argument?,44,F_139.jpg,1619712802.75319,1619712802.75491,383.161472072601,10.3464150428772,393.51533364296,395.61611579895,0.3,401.018131246567,0.650241613388062,401.67567609787,3,right,0.633114099502563,401.668372859955,604.477337827683,607.237337827682,1619713188.67466,1619713188.68895,1619713199.02853,1619713199.03904,1619713201.12931,1619713206.53132,1619713206.53324,1619713207.18887,1619713207.18156,1619713409.99053,0
17,4,2,3,22,8,1,c1_WhyFace,1,argument?,47,F_743.jpg,1619712802.75319,1619712802.75491,383.161472072601,10.3464150428772,393.51533364296,395.61611579895,0.3,401.985158195496,0.550204992294312,402.542000999451,1,left,0.543200969696045,402.53536318779,604.477337827683,607.237337827682,1619713188.67466,1619713188.68895,1619713199.02853,1619713199.03904,1619713201.12931,1619713207.49835,1619713207.49994,1619713208.05519,1619713208.04856,1619713409.99053,1
17,4,2,3,23,1,2,c2_WhyHand,1,helping?,39,H_024.jpg,1619712802.75319,1619712802.75491,402.618726005554,9.10924696922302,411.73879527092,413.839579572678,2.10078430175781,413.989634504318,0.766953229904175,414.758999099731,3,right,0.750916004180908,414.756587734222,604.477337827683,607.237337827682,1619713208.13192,1619713208.13895,1619713217.25199,1619713217.25552,1619713219.35277,1619713219.50283,1619713219.50544,1619713220.27219,1619713220.26978,1619713409.99053,0
17,4,2,3,23,2,2,c2_WhyHand,1,helping?,36,H_349.jpg,1619712802.75319,1619712802.75491,402.618726005554,9.10924696922302,411.73879527092,413.839579572678,0.3,415.073370923996,0.550206184387207,415.625175943375,1,left,0.532634019851685,415.623577108383,604.477337827683,607.237337827682,1619713208.13192,1619713208.13895,1619713217.25199,1619713217.25552,1619713219.35277,1619713220.58656,1619713220.5889,1619713221.13837,1619713221.13677,1619713409.99053,1
17,4,2,3,23,3,2,c2_WhyHand,1,helping?,38,H_077.jpg,1619712802.75319,1619712802.75491,402.618726005554,9.10924696922302,411.73879527092,413.839579572678,0.3,415.940362205505,0.700261116027832,416.642025938034,1,left,0.691971063613892,416.640623321533,604.477337827683,607.237337827682,1619713208.13192,1619713208.13895,1619713217.25199,1619713217.25552,1619713219.35277,1619713221.45355,1619713221.45545,1619713222.15522,1619713222.15382,1619713409.99053,1
17,4,2,3,23,4,2,c2_WhyHand,1,helping?,37,H_474.jpg,1619712802.75319,1619712802.75491,402.618726005554,9.10924696922302,411.73879527092,413.839579572678,0.3,416.9574077034,0.733607769012451,417.692510118485,1,left,0.714024066925049,417.691015472412,604.477337827683,607.237337827682,1619713208.13192,1619713208.13895,1619713217.25199,1619713217.25552,1619713219.35277,1619713222.4706,1619713222.47216,1619713223.2057,1619713223.20421,1619713409.99053,1
17,4,2,3,23,5,2,c2_WhyHand,2,helping?,33,H_091.jpg,1619712802.75319,1619712802.75491,402.618726005554,9.10924696922302,411.73879527092,413.839579572678,0.3,418.007800569534,0.700260639190674,418.709705104828,3,right,0.682352781295776,418.708061208725,604.477337827683,607.237337827682,1619713208.13192,1619713208.13895,1619713217.25199,1619713217.25552,1619713219.35277,1619713223.52099,1619713223.5226,1619713224.2229,1619713224.22125,1619713409.99053,0
17,4,2,3,23,6,2,c2_WhyHand,2,helping?,35,H_159.jpg,1619712802.75319,1619712802.75491,402.618726005554,9.10924696922302,411.73879527092,413.839579572678,0.3,419.024845590591,0.766953706741333,419.793054094315,3,right,0.749701976776123,419.791799297333,604.477337827683,607.237337827682,1619713208.13192,1619713208.13895,1619713217.25199,1619713217.25552,1619713219.35277,1619713224.53804,1619713224.53963,1619713225.30625,1619713225.30499,1619713409.99053,0
17,4,2,3,23,7,2,c2_WhyHand,1,helping?,34,H_111.jpg,1619712802.75319,1619712802.75491,402.618726005554,9.10924696922302,411.73879527092,413.839579572678,0.3,420.108584156036,0.550204038619995,420.660020103455,1,left,0.53527307510376,420.658788194656,604.477337827683,607.237337827682,1619713208.13192,1619713208.13895,1619713217.25199,1619713217.25552,1619713219.35277,1619713225.62178,1619713225.62326,1619713226.17321,1619713226.17198,1619713409.99053,1
17,4,2,3,23,8,2,c2_WhyHand,2,helping?,40,H_012.jpg,1619712802.75319,1619712802.75491,402.618726005554,9.10924696922302,411.73879527092,413.839579572678,0.3,420.97557305336,0.650243282318115,421.627292146683,3,right,0.641002178192139,421.625816335678,604.477337827683,607.237337827682,1619713208.13192,1619713208.13895,1619713217.25199,1619713217.25552,1619713219.35277,1619713226.48877,1619713226.49031,1619713227.14048,1619713227.13901,1619713409.99053,0
17,4,2,3,24,1,4,c4_HowHand,1,both hands?,122,H_111.jpg,1619712802.75319,1619712802.75491,421.709179868698,8.08876323699951,429.812201967239,431.912986030579,2.10078406333923,432.063041439056,0.816971778869629,432.891947975159,1,left,0.807136058807373,432.880013217926,604.477337827683,607.237337827682,1619713227.22237,1619713227.22333,1619713235.32539,1619713235.32744,1619713237.42618,1619713237.57623,1619713237.57806,1619713238.40514,1619713238.39321,1619713409.99053,1
17,4,2,3,24,2,4,c4_HowHand,1,both hands?,128,H_027.jpg,1619712802.75319,1619712802.75491,421.709179868698,8.08876323699951,429.812201967239,431.912986030579,0.3,433.19679807663,0.550204992294312,433.748536100388,1,left,0.530033826828003,433.747003068924,604.477337827683,607.237337827682,1619713227.22237,1619713227.22333,1619713235.32539,1619713235.32744,1619713237.42618,1619713238.70999,1619713238.71154,1619713239.26173,1619713239.2602,1619713409.99053,1
17,4,2,3,24,3,4,c4_HowHand,2,both hands?,121,H_091.jpg,1619712802.75319,1619712802.75491,421.709179868698,8.08876323699951,429.812201967239,431.912986030579,0.3,434.06378745079,0.5668785572052,434.631721963882,3,right,0.547797918319702,434.630666007996,604.477337827683,607.237337827682,1619713227.22237,1619713227.22333,1619713235.32539,1619713235.32744,1619713237.42618,1619713239.57698,1619713239.57904,1619713240.14491,1619713240.14386,1619713409.99053,0
17,4,2,3,24,4,4,c4_HowHand,1,both hands?,123,H_167.jpg,1619712802.75319,1619712802.75491,421.709179868698,8.08876323699951,429.812201967239,431.912986030579,0.3,434.947450151443,0.750280380249023,435.708696117401,1,left,0.739449977874756,435.697730531693,604.477337827683,607.237337827682,1619713227.22237,1619713227.22333,1619713235.32539,1619713235.32744,1619713237.42618,1619713240.46064,1619713240.46221,1619713241.22189,1619713241.21092,1619713409.99053,1
17,4,2,3,24,5,4,c4_HowHand,1,both hands?,124,H_581.jpg,1619712802.75319,1619712802.75491,421.709179868698,8.08876323699951,429.812201967239,431.912986030579,0.3,436.014515628815,0.66691517829895,436.683086147308,1,left,0.647061109542847,436.681430807114,604.477337827683,607.237337827682,1619713227.22237,1619713227.22333,1619713235.32539,1619713235.32744,1619713237.42618,1619713241.52771,1619713241.52948,1619713242.19628,1619713242.19462,1619713409.99053,1
17,4,2,3,24,6,4,c4_HowHand,2,both hands?,126,H_159.jpg,1619712802.75319,1619712802.75491,421.709179868698,8.08876323699951,429.812201967239,431.912986030579,0.3,436.998214712143,0.716934442520142,437.725502004623,3,right,0.709127187728882,437.715149154663,604.477337827683,607.237337827682,1619713227.22237,1619713227.22333,1619713235.32539,1619713235.32744,1619713237.42618,1619713242.51141,1619713242.51293,1619713243.23869,1619713243.22834,1619713409.99053,0
17,4,2,3,24,7,4,c4_HowHand,1,both hands?,127,H_349.jpg,1619712802.75319,1619712802.75491,421.709179868698,8.08876323699951,429.812201967239,431.912986030579,0.3,438.031934013367,0.80029821395874,438.842224111557,1,left,0.787187099456787,438.832232227325,604.477337827683,607.237337827682,1619713227.22237,1619713227.22333,1619713235.32539,1619713235.32744,1619713237.42618,1619713243.54513,1619713243.54685,1619713244.35542,1619713244.34542,1619713409.99053,1
17,4,2,3,24,8,4,c4_HowHand,2,both hands?,125,H_627.jpg,1619712802.75319,1619712802.75491,421.709179868698,8.08876323699951,429.812201967239,431.912986030579,0.3,439.149017324448,0.716933250427246,439.867091169357,3,right,0.701517105102539,439.865950574875,604.477337827683,607.237337827682,1619713227.22237,1619713227.22333,1619713235.32539,1619713235.32744,1619713237.42618,1619713244.66221,1619713244.66368,1619713245.38028,1619713245.37914,1619713409.99053,0
17,4,2,3,25,1,2,c2_WhyHand,1,healthy?,18,H_438.jpg,1619712802.75319,1619712802.75491,439.949315776825,7.36562633514404,447.318730344772,449.419513931274,2.10078358650208,449.569570293427,0.683587789535522,450.259026041031,1,left,0.662379026412964,450.253158082962,604.477337827683,607.237337827682,1619713245.46251,1619713245.47214,1619713252.83192,1619713252.83914,1619713254.93271,1619713255.08276,1619713255.08907,1619713255.77222,1619713255.76635,1619713409.99053,1
17,4,2,3,25,2,2,c2_WhyHand,1,healthy?,23,H_364.jpg,1619712802.75319,1619712802.75491,439.949315776825,7.36562633514404,447.318730344772,449.419513931274,0.3,450.569943418503,0.766953229904175,451.342324962616,1,left,0.756349802017212,451.336896648407,604.477337827683,607.237337827682,1619713245.46251,1619713245.47214,1619713252.83192,1619713252.83914,1619713254.93271,1619713256.08314,1619713256.08488,1619713256.85552,1619713256.85009,1619713409.99053,1
17,4,2,3,25,3,2,c2_WhyHand,1,healthy?,17,H_362.jpg,1619712802.75319,1619712802.75491,439.949315776825,7.36562633514404,447.318730344772,449.419513931274,0.3,451.653680553436,0.450167894363403,452.108761062622,1,left,0.437441110610962,452.1038484478,604.477337827683,607.237337827682,1619713245.46251,1619713245.47214,1619713252.83192,1619713252.83914,1619713254.93271,1619713257.16687,1619713257.16855,1619713257.62195,1619713257.61704,1619713409.99053,1
17,4,2,3,25,4,2,c2_WhyHand,2,healthy?,24,H_019.jpg,1619712802.75319,1619712802.75491,439.949315776825,7.36562633514404,447.318730344772,449.419513931274,0.3,452.420633306503,0.483514070510864,452.908740987778,3,right,0.468077898025513,452.904147377014,604.477337827683,607.237337827682,1619713245.46251,1619713245.47214,1619713252.83192,1619713252.83914,1619713254.93271,1619713257.93383,1619713257.93546,1619713258.42193,1619713258.41734,1619713409.99053,0
17,4,2,3,25,5,2,c2_WhyHand,1,healthy?,19,H_167.jpg,1619712802.75319,1619712802.75491,439.949315776825,7.36562633514404,447.318730344772,449.419513931274,0.3,453.220931997299,0.483513116836548,453.706215133667,1,left,0.459450960159302,453.704445114136,604.477337827683,607.237337827682,1619713245.46251,1619713245.47214,1619713252.83192,1619713252.83914,1619713254.93271,1619713258.73412,1619713258.73891,1619713259.21941,1619713259.21764,1619713409.99053,1
17,4,2,3,25,6,2,c2_WhyHand,2,healthy?,20,H_007.jpg,1619712802.75319,1619712802.75491,439.949315776825,7.36562633514404,447.318730344772,449.419513931274,0.3,454.021230688095,0.466840267181396,454.492447128296,3,right,0.438246011734009,454.488070955276,604.477337827683,607.237337827682,1619713245.46251,1619713245.47214,1619713252.83192,1619713252.83914,1619713254.93271,1619713259.53442,1619713259.53893,1619713260.00564,1619713260.00126,1619713409.99053,0
17,4,2,3,25,7,2,c2_WhyHand,1,healthy?,21,H_627.jpg,1619712802.75319,1619712802.75491,439.949315776825,7.36562633514404,447.318730344772,449.419513931274,0.3,454.804856290817,0.550205230712891,455.358345975876,1,left,0.538710832595825,455.35506152153,604.477337827683,607.237337827682,1619713245.46251,1619713245.47214,1619713252.83192,1619713252.83914,1619713254.93271,1619713260.31805,1619713260.32219,1619713260.87154,1619713260.86825,1619713409.99053,1
17,4,2,3,25,8,2,c2_WhyHand,2,healthy?,22,H_130.jpg,1619712802.75319,1619712802.75491,439.949315776825,7.36562633514404,447.318730344772,449.419513931274,0.3,455.671845903397,0.600224494934082,456.275578012466,3,right,0.580341100692749,456.272070398331,604.477337827683,607.237337827682,1619713245.46251,1619713245.47214,1619713252.83192,1619713252.83914,1619713254.93271,1619713261.18504,1619713261.18881,1619713261.78877,1619713261.78526,1619713409.99053,0
17,4,2,3,26,1,4,c4_HowHand,1,pressing button?,82,H_126.jpg,1619712802.75319,1619712802.75491,456.355434169769,10.0134789943695,466.37583779335,468.476620426178,2.10078263282776,468.626677265167,1.21712040901184,469.845474948883,1,left,1.20601105690002,469.843797674179,604.477337827683,607.237337827682,1619713261.86863,1619713261.8721,1619713271.88903,1619713271.89088,1619713273.98981,1619713274.13987,1619713274.14153,1619713275.35867,1619713275.35699,1619713409.99053,1
17,4,2,3,26,2,4,c4_HowHand,2,pressing button?,85,H_130.jpg,1619712802.75319,1619712802.75491,456.355434169769,10.0134789943695,466.37583779335,468.476620426178,0.3,470.160582056046,0.500186920166016,470.675361146927,3,right,0.489783048629761,470.660768976212,604.477337827683,607.237337827682,1619713261.86863,1619713261.8721,1619713271.88903,1619713271.89088,1619713273.98981,1619713275.67377,1619713275.67579,1619713276.18855,1619713276.17396,1619713409.99053,0
17,4,2,3,26,3,4,c4_HowHand,1,pressing button?,84,H_483.jpg,1619712802.75319,1619712802.75491,456.355434169769,10.0134789943695,466.37583779335,468.476620426178,0.3,470.977555265427,0.533530712127686,471.512185087204,1,left,0.511909008026123,471.511085977554,604.477337827683,607.237337827682,1619713261.86863,1619713261.8721,1619713271.88903,1619713271.89088,1619713273.98981,1619713276.49075,1619713276.4924,1619713277.02538,1619713277.02428,1619713409.99053,1
17,4,2,3,26,4,4,c4_HowHand,2,pressing button?,87,H_024.jpg,1619712802.75319,1619712802.75491,456.355434169769,10.0134789943695,466.37583779335,468.476620426178,0.3,471.827871074677,0.500186204910278,472.342381944656,3,right,0.490530967712402,472.328057279587,604.477337827683,607.237337827682,1619713261.86863,1619713261.8721,1619713271.88903,1619713271.89088,1619713273.98981,1619713277.34106,1619713277.34279,1619713277.85557,1619713277.84125,1619713409.99053,0
17,4,2,3,26,5,4,c4_HowHand,1,pressing button?,86,H_332.jpg,1619712802.75319,1619712802.75491,456.355434169769,10.0134789943695,466.37583779335,468.476620426178,0.3,472.644842615128,0.466840744018555,473.112727155685,1,left,0.442602157592773,473.111683359146,604.477337827683,607.237337827682,1619713261.86863,1619713261.8721,1619713271.88903,1619713271.89088,1619713273.98981,1619713278.15803,1619713278.15996,1619713278.62592,1619713278.62488,1619713409.99053,1
17,4,2,3,26,6,4,c4_HowHand,1,pressing button?,88,H_019.jpg,1619712802.75319,1619712802.75491,456.355434169769,10.0134789943695,466.37583779335,468.476620426178,0.3,473.42846821785,0.416821718215942,473.846313943863,1,left,0.405202865600586,473.845289936066,604.477337827683,607.237337827682,1619713261.86863,1619713261.8721,1619713271.88903,1619713271.89088,1619713273.98981,1619713278.94166,1619713278.94317,1619713279.35951,1619713279.35848,1619713409.99053,1
17,4,2,3,26,7,4,c4_HowHand,2,pressing button?,81,H_261.jpg,1619712802.75319,1619712802.75491,456.355434169769,10.0134789943695,466.37583779335,468.476620426178,0.3,474.162075510025,0.483513116836548,474.646630039215,3,right,0.469794988632202,474.645588626862,604.477337827683,607.237337827682,1619713261.86863,1619713261.8721,1619713271.88903,1619713271.89088,1619713273.98981,1619713279.67527,1619713279.67697,1619713280.15982,1619713280.15878,1619713409.99053,0
17,4,2,3,26,8,4,c4_HowHand,1,pressing button?,83,H_502.jpg,1619712802.75319,1619712802.75491,456.355434169769,10.0134789943695,466.37583779335,468.476620426178,0.3,474.962373247147,0.51685905456543,475.480838050842,1,left,0.496101856231689,475.479232301712,604.477337827683,607.237337827682,1619713261.86863,1619713261.8721,1619713271.88903,1619713271.89088,1619713273.98981,1619713280.47557,1619713280.47749,1619713280.99403,1619713280.99242,1619713409.99053,1
17,4,2,3,27,1,3,c3_HowFace,1,looking at camera?,60,F_618.jpg,1619712802.75319,1619712802.75491,475.562597026825,8.33637714385986,483.915711631775,486.016494503021,2.10078287124634,486.166553487778,0.633567333221436,486.809071054459,1,left,0.622854948043823,486.800120820999,604.477337827683,607.237337827682,1619713281.07579,1619713281.07736,1619713289.4289,1619713289.43108,1619713291.52969,1619713291.67975,1619713291.68178,1619713292.32226,1619713292.31331,1619713409.99053,1
17,4,2,3,27,2,3,c3_HowFace,2,looking at camera?,58,F_754.jpg,1619712802.75319,1619712802.75491,475.562597026825,8.33637714385986,483.915711631775,486.016494503021,0.3,487.116906633377,0.50018572807312,487.61926697731,3,right,0.483207941055298,487.61709236145,604.477337827683,607.237337827682,1619713281.07579,1619713281.07736,1619713289.4289,1619713289.43108,1619713291.52969,1619713292.6301,1619713292.63167,1619713293.13246,1619713293.13028,1619713409.99053,0
17,4,2,3,27,3,3,c3_HowFace,1,looking at camera?,59,F_129.jpg,1619712802.75319,1619712802.75491,475.562597026825,8.33637714385986,483.915711631775,486.016494503021,0.3,487.933876981735,0.566879034042358,488.50894903183,1,left,0.556008100509644,488.500756015778,604.477337827683,607.237337827682,1619713281.07579,1619713281.07736,1619713289.4289,1619713289.43108,1619713291.52969,1619713293.44707,1619713293.44831,1619713294.02214,1619713294.01395,1619713409.99053,1
17,4,2,3,27,4,3,c3_HowFace,1,looking at camera?,62,F_598.jpg,1619712802.75319,1619712802.75491,475.562597026825,8.33637714385986,483.915711631775,486.016494503021,0.3,488.817540397644,0.466840744018555,489.285396089554,1,left,0.448530912399292,489.284381141663,604.477337827683,607.237337827682,1619713281.07579,1619713281.07736,1619713289.4289,1619713289.43108,1619713291.52969,1619713294.33073,1619713294.33229,1619713294.79859,1619713294.79757,1619713409.99053,1
17,4,2,3,27,5,3,c3_HowFace,1,looking at camera?,64,F_128.jpg,1619712802.75319,1619712802.75491,475.562597026825,8.33637714385986,483.915711631775,486.016494503021,0.3,489.601165523529,0.466840982437134,490.074999084473,1,left,0.45930814743042,490.068006505966,604.477337827683,607.237337827682,1619713281.07579,1619713281.07736,1619713289.4289,1619713289.43108,1619713291.52969,1619713295.11436,1619713295.11594,1619713295.58819,1619713295.5812,1619713409.99053,1
17,4,2,3,27,6,3,c3_HowFace,2,looking at camera?,57,F_582.jpg,1619712802.75319,1619712802.75491,475.562597026825,8.33637714385986,483.915711631775,486.016494503021,0.3,490.384791841507,1.31715750694275,491.708374013901,3,right,1.31011295318604,491.70194934845,604.477337827683,607.237337827682,1619713281.07579,1619713281.07736,1619713289.4289,1619713289.43108,1619713291.52969,1619713295.89798,1619713295.89981,1619713297.22157,1619713297.21514,1619713409.99053,0
17,4,2,3,27,7,3,c3_HowFace,1,looking at camera?,61,F_774.jpg,1619712802.75319,1619712802.75491,475.562597026825,8.33637714385986,483.915711631775,486.016494503021,0.3,492.018734207153,0.533531665802002,492.558355083466,1,left,0.515381813049316,492.552265872955,604.477337827683,607.237337827682,1619713281.07579,1619713281.07736,1619713289.4289,1619713289.43108,1619713291.52969,1619713297.53193,1619713297.5338,1619713298.07155,1619713298.06546,1619713409.99053,1
