src_subject_id,session_id,run_id,param_counterbalance_ver,param_block_num,param_trial_num,param_cond_type_num,param_cond_type_string,param_normative_response,param_ques_type_string,param_image_num,param_image_filename,param_trigger_onset,param_start_biopac,event01_fixation,event01_fixation_dur,event01_blockquestion_onset,event01_block_isi_blacksreen,event01_blockquestion_dur,event02_image_onset,event02_image_dur,event03_response_onset,event03_response_key,event03_response_keyname,event03_RT,event04_shortquestion_onset,param_end_instruct_onset,param_experiment_duration,RAW_e1_fixation,RAW_e1_fixation_biopac,RAW_e1_blockquestion_onset,RAW_e1_blockquestion_onset_biopac,RAW_e1_block_isi_blacksreen,RAW_e2_image_onset,RAW_e2_image_onset_biopac,RAW_e3_response_onset,RAW_e4_shortquestion_onset,RAW_param_end_instruct_onset,accuracy
2,4,2,3,1,1,4,c4_HowHand,1,reaching?,107,H_007.jpg,1616679272.6173,1616679272.61908,0.02192663192749,0.0393545627593994,0.0719458961486814,2.10604571342468,2.034099817276,2.25610255241394,1.73398685455322,NaN,0,NA,0,3.99008940696716,604.483082761765,607.243082761765,1616679275.39923,1616679275.40534,1616679275.44925,1616679275.45113,1616679277.48335,1616679277.63341,1616679277.64527,NaN,1616679279.36739,1616679879.86039,0
2,4,2,3,1,2,4,c4_HowHand,2,reaching?,108,H_532.jpg,1616679272.6173,1616679272.61908,0.02192663192749,0.0393545627593994,0.0719458961486814,2.10604571342468,0.3,4.30687569618225,1.7173125743866,NaN,0,NA,0,6.02418827056885,604.483082761765,607.243082761765,1616679275.39923,1616679275.40534,1616679275.44925,1616679275.45113,1616679277.48335,1616679279.68418,1616679279.68571,NaN,1616679281.40149,1616679879.86039,0
2,4,2,3,1,3,4,c4_HowHand,1,reaching?,109,H_474.jpg,1616679272.6173,1616679272.61908,0.02192663192749,0.0393545627593994,0.0719458961486814,2.10604571342468,0.3,6.34097455978394,1.61727619171143,7.96822618484497,1,left,1.598308801651,7.95825075149536,604.483082761765,607.243082761765,1616679275.39923,1616679275.40534,1616679275.44925,1616679275.45113,1616679277.48335,1616679281.71828,1616679281.72001,1616679283.34553,1616679283.33555,1616679879.86039,1
2,4,2,3,1,4,4,c4_HowHand,2,reaching?,105,H_438.jpg,1616679272.6173,1616679272.61908,0.02192663192749,0.0393545627593994,0.0719458961486814,2.10604571342468,0.3,8.27503751754761,1.35050797462463,9.63389705657959,3,right,1.34084510803223,9.62554549217224,604.483082761765,607.243082761765,1616679275.39923,1616679275.40534,1616679275.44925,1616679275.45113,1616679277.48335,1616679283.65234,1616679283.65443,1616679285.0112,1616679285.00285,1616679879.86039,0
2,4,2,3,1,5,4,c4_HowHand,1,reaching?,110,H_364.jpg,1616679272.6173,1616679272.61908,0.02192663192749,0.0393545627593994,0.0719458961486814,2.10604571342468,0.3,9.94233225822449,0.0166735649108887,9.97089814186096,3,right,0.00030517578125,9.95900582313538,604.483082761765,607.243082761765,1616679275.39923,1616679275.40534,1616679275.44925,1616679275.45113,1616679277.48335,1616679285.31964,1616679285.32204,1616679285.3482,1616679285.33631,1616679879.86039,0
2,4,2,3,1,6,4,c4_HowHand,1,reaching?,106,H_006.jpg,1616679272.6173,1616679272.61908,0.02192663192749,0.0393545627593994,0.0719458961486814,2.10604571342468,0.3,10.2757913970947,0.883666276931763,11.1678151988983,1,left,0.870354890823364,11.1594576740265,604.483082761765,607.243082761765,1616679275.39923,1616679275.40534,1616679275.44925,1616679275.45113,1616679277.48335,1616679285.65309,1616679285.65511,1616679286.54512,1616679286.53676,1616679879.86039,1
2,4,2,3,1,7,4,c4_HowHand,1,reaching?,111,H_003.jpg,1616679272.6173,1616679272.61908,0.02192663192749,0.0393545627593994,0.0719458961486814,2.10604571342468,0.3,11.4762432479858,1.05039596557617,12.5285382175446,1,left,1.0269079208374,12.526639213562,604.483082761765,607.243082761765,1616679275.39923,1616679275.40534,1616679275.44925,1616679275.45113,1616679277.48335,1616679286.85355,1616679286.85553,1616679287.90584,1616679287.90394,1616679879.86039,1
2,4,2,3,1,8,4,c4_HowHand,2,reaching?,112,H_132.jpg,1616679272.6173,1616679272.61908,0.02192663192749,0.0393545627593994,0.0719458961486814,2.10604571342468,0.3,12.8434257411957,1.18378019332886,14.0339031124115,3,right,1.17594885826111,14.0272059345245,604.483082761765,607.243082761765,1616679275.39923,1616679275.40534,1616679275.44925,1616679275.45113,1616679277.48335,1616679288.22073,1616679288.2224,1616679289.41121,1616679289.40451,1616679879.86039,0
2,4,2,3,2,1,2,c2_WhyHand,1,healthy?,21,H_627.jpg,1616679272.6173,1616679272.61908,14.1772618198395,3.35384440422058,17.5451979541779,19.6459891700745,2.10079121589661,19.796045293808,1.10041427612305,20.9004561805725,1,left,1.08714604377747,20.896459569931,604.483082761765,607.243082761765,1616679289.55456,1616679289.56162,1616679292.9225,1616679292.9299,1616679295.02329,1616679295.17335,1616679295.17846,1616679296.27776,1616679296.27376,1616679879.86039,1
2,4,2,3,2,2,2,c2_WhyHand,1,healthy?,18,H_438.jpg,1616679272.6173,1616679272.61908,14.1772618198395,3.35384440422058,17.5451979541779,19.6459891700745,0.3,21.2132463359833,0.950358629226685,22.1676170730591,1,left,0.930590867996216,22.16360496521,604.483082761765,607.243082761765,1616679289.55456,1616679289.56162,1616679292.9225,1616679292.9299,1616679295.02329,1616679296.59055,1616679296.5948,1616679297.54492,1616679297.54091,1616679879.86039,1
2,4,2,3,2,3,2,c2_WhyHand,1,healthy?,23,H_364.jpg,1616679272.6173,1616679272.61908,14.1772618198395,3.35384440422058,17.5451979541779,19.6459891700745,0.3,22.4803905391693,1.08374238014221,23.5674550437927,1,left,1.0728280544281,23.5641329193115,604.483082761765,607.243082761765,1616679289.55456,1616679289.56162,1616679292.9225,1616679292.9299,1616679295.02329,1616679297.85769,1616679297.86161,1616679298.94476,1616679298.94144,1616679879.86039,1
2,4,2,3,2,4,2,c2_WhyHand,2,healthy?,22,H_130.jpg,1616679272.6173,1616679272.61908,14.1772618198395,3.35384440422058,17.5451979541779,19.6459891700745,0.3,23.880918970108,0.816973924636841,24.7011570835114,3,right,0.800562858581543,24.6978928947449,604.483082761765,607.243082761765,1616679289.55456,1616679289.56162,1616679292.9225,1616679292.9299,1616679295.02329,1616679299.25822,1616679299.26139,1616679300.07846,1616679300.0752,1616679879.86039,0
2,4,2,3,2,5,2,c2_WhyHand,1,healthy?,17,H_362.jpg,1616679272.6173,1616679272.61908,14.1772618198395,3.35384440422058,17.5451979541779,19.6459891700745,0.3,25.0146796607971,0.81697416305542,25.8343801403046,1,left,0.803510904312134,25.8316538238525,604.483082761765,607.243082761765,1616679289.55456,1616679289.56162,1616679292.9225,1616679292.9299,1616679295.02329,1616679300.39198,1616679300.39504,1616679301.21168,1616679301.20896,1616679879.86039,1
2,4,2,3,2,6,2,c2_WhyHand,2,healthy?,20,H_007.jpg,1616679272.6173,1616679272.61908,14.1772618198395,3.35384440422058,17.5451979541779,19.6459891700745,0.3,26.148439874649,1.10041522979736,27.2509531879425,3,right,1.07963705062866,27.2488551044464,604.483082761765,607.243082761765,1616679289.55456,1616679289.56162,1616679292.9225,1616679292.9299,1616679295.02329,1616679301.52574,1616679301.52825,1616679302.62826,1616679302.62616,1616679879.86039,0
2,4,2,3,2,7,2,c2_WhyHand,1,healthy?,19,H_167.jpg,1616679272.6173,1616679272.61908,14.1772618198395,3.35384440422058,17.5451979541779,19.6459891700745,0.3,27.5656402015686,0.917012453079224,28.484353055954,1,left,0.89942193031311,28.4826526546478,604.483082761765,607.243082761765,1616679289.55456,1616679289.56162,1616679292.9225,1616679292.9299,1616679295.02329,1616679302.94294,1616679302.94504,1616679303.86166,1616679303.85996,1616679879.86039,1
2,4,2,3,2,8,2,c2_WhyHand,2,healthy?,24,H_019.jpg,1616679272.6173,1616679272.61908,14.1772618198395,3.35384440422058,17.5451979541779,19.6459891700745,0.3,28.7994389438629,0.883665800094604,29.684473028183,3,right,0.868522882461548,29.6831047439575,604.483082761765,607.243082761765,1616679289.55456,1616679289.56162,1616679292.9225,1616679292.9299,1616679295.02329,1616679304.17674,1616679304.17841,1616679305.06178,1616679305.06041,1616679879.86039,0
2,4,2,3,3,1,1,c1_WhyFace,1,admiring?,4,F_779.jpg,1616679272.6173,1616679272.61908,29.766469707489,6.87272238731384,36.6523983383179,38.7531893157959,2.10079097747803,38.9032463932037,0.883666276931763,39.7879080677032,1,left,0.860930919647217,39.7869126701355,604.483082761765,607.243082761765,1616679305.14377,1616679305.1455,1616679312.0297,1616679312.03172,1616679314.13049,1616679314.28055,1616679314.28212,1616679315.16521,1616679315.16422,1616679879.86039,1
2,4,2,3,3,2,1,c1_WhyFace,1,admiring?,1,F_593.jpg,1616679272.6173,1616679272.61908,29.766469707489,6.87272238731384,36.6523983383179,38.7531893157959,0.3,40.1036975288391,0.883668184280396,40.9890181922913,1,left,0.862680912017822,40.9873657131195,604.483082761765,607.243082761765,1616679305.14377,1616679305.1455,1616679312.0297,1616679312.03172,1616679314.13049,1616679315.481,1616679315.48297,1616679316.36632,1616679316.36467,1616679879.86039,1
2,4,2,3,3,3,1,c1_WhyFace,2,admiring?,3,F_110.jpg,1616679272.6173,1616679272.61908,29.766469707489,6.87272238731384,36.6523983383179,38.7531893157959,0.3,41.3041515254974,0.716936588287354,42.022858133316,3,right,0.698456048965454,42.0210881137848,604.483082761765,607.243082761765,1616679305.14377,1616679305.1455,1616679312.0297,1616679312.03172,1616679314.13049,1616679316.68145,1616679316.68292,1616679317.40016,1616679317.39839,1616679879.86039,0
2,4,2,3,3,4,1,c1_WhyFace,1,admiring?,8,F_590.jpg,1616679272.6173,1616679272.61908,29.766469707489,6.87272238731384,36.6523983383179,38.7531893157959,0.3,42.337874879837,0.666918277740479,43.0178000831604,1,left,0.657749176025391,43.0047931575775,604.483082761765,607.243082761765,1616679305.14377,1616679305.1455,1616679312.0297,1616679312.03172,1616679314.13049,1616679317.71518,1616679317.71687,1616679318.3951,1616679318.3821,1616679879.86039,1
2,4,2,3,3,5,1,c1_WhyFace,2,admiring?,6,F_692.jpg,1616679272.6173,1616679272.61908,29.766469707489,6.87272238731384,36.6523983383179,38.7531893157959,0.3,43.3215784931183,0.833647727966309,44.1569311523438,3,right,0.815553188323975,44.1552262210846,604.483082761765,607.243082761765,1616679305.14377,1616679305.1455,1616679312.0297,1616679312.03172,1616679314.13049,1616679318.69888,1616679318.70045,1616679319.53423,1616679319.53253,1616679879.86039,0
2,4,2,3,3,6,1,c1_WhyFace,1,admiring?,5,F_759.jpg,1616679272.6173,1616679272.61908,29.766469707489,6.87272238731384,36.6523983383179,38.7531893157959,0.3,44.4720115566254,0.650245189666748,45.1236650848389,1,left,0.630604028701782,45.1222567462921,604.483082761765,607.243082761765,1616679305.14377,1616679305.1455,1616679312.0297,1616679312.03172,1616679314.13049,1616679319.84931,1616679319.85075,1616679320.50097,1616679320.49956,1616679879.86039,1
2,4,2,3,3,7,1,c1_WhyFace,1,admiring?,7,F_648.jpg,1616679272.6173,1616679272.61908,29.766469707489,6.87272238731384,36.6523983383179,38.7531893157959,0.3,45.4390435123444,0.850320100784302,46.2909769916534,1,left,0.829217910766602,46.2893636131287,604.483082761765,607.243082761765,1616679305.14377,1616679305.1455,1616679312.0297,1616679312.03172,1616679314.13049,1616679320.81635,1616679320.81789,1616679321.66828,1616679321.66667,1616679879.86039,1
2,4,2,3,3,8,1,c1_WhyFace,2,admiring?,2,F_129.jpg,1616679272.6173,1616679272.61908,29.766469707489,6.87272238731384,36.6523983383179,38.7531893157959,0.3,46.6061496639252,0.983704090118408,47.6006071472168,3,right,0.973244905471802,47.5898537540436,604.483082761765,607.243082761765,1616679305.14377,1616679305.1455,1616679312.0297,1616679312.03172,1616679314.13049,1616679321.98345,1616679321.98479,1616679322.97791,1616679322.96716,1616679879.86039,0
2,4,2,3,4,1,3,c3_HowFace,1,smiling?,119,F_139.jpg,1616679272.6173,1616679272.61908,47.6732172870636,7.92999076843262,55.6095433139801,57.710333814621,2.10079050064087,57.8603906536102,0.666918516159058,58.5289862060547,1,left,0.642469167709351,58.5273091697693,604.483082761765,607.243082761765,1616679323.05052,1616679323.06185,1616679330.98685,1616679330.99488,1616679333.08764,1616679333.23769,1616679333.24513,1616679333.90629,1616679333.90461,1616679879.86039,1
2,4,2,3,4,2,3,c3_HowFace,2,smiling?,113,F_712.jpg,1616679272.6173,1616679272.61908,47.6732172870636,7.92999076843262,55.6095433139801,57.710333814621,0.3,58.8440947437286,0.65024471282959,59.5010650062561,3,right,0.642277956008911,59.4943394565582,604.483082761765,607.243082761765,1616679323.05052,1616679323.06185,1616679330.98685,1616679330.99488,1616679333.08764,1616679334.2214,1616679334.22334,1616679334.87837,1616679334.87164,1616679879.86039,0
2,4,2,3,4,3,3,c3_HowFace,1,smiling?,115,F_695.jpg,1616679272.6173,1616679272.61908,47.6732172870636,7.92999076843262,55.6095433139801,57.710333814621,0.3,59.8111255073547,0.566880464553833,60.3838281536102,1,left,0.554126024246216,60.3780059719086,604.483082761765,607.243082761765,1616679323.05052,1616679323.06185,1616679330.98685,1616679330.99488,1616679333.08764,1616679335.18843,1616679335.19006,1616679335.76113,1616679335.75531,1616679879.86039,1
2,4,2,3,4,4,3,c3_HowFace,2,smiling?,120,F_758.jpg,1616679272.6173,1616679272.61908,47.6732172870636,7.92999076843262,55.6095433139801,57.710333814621,0.3,60.6947917842865,0.733610153198242,61.4343690776825,3,right,0.72265100479126,61.4284019374847,604.483082761765,607.243082761765,1616679323.05052,1616679323.06185,1616679330.98685,1616679330.99488,1616679333.08764,1616679336.07209,1616679336.07364,1616679336.81167,1616679336.8057,1616679879.86039,0
2,4,2,3,4,5,3,c3_HowFace,1,smiling?,116,F_083.jpg,1616679272.6173,1616679272.61908,47.6732172870636,7.92999076843262,55.6095433139801,57.710333814621,0.3,61.7451863193512,0.633573770523071,62.3844091796875,1,left,0.620175123214722,62.3787600898743,604.483082761765,607.243082761765,1616679323.05052,1616679323.06185,1616679330.98685,1616679330.99488,1616679333.08764,1616679337.12249,1616679337.12441,1616679337.76171,1616679337.75606,1616679879.86039,1
2,4,2,3,4,6,3,c3_HowFace,1,smiling?,118,F_759.jpg,1616679272.6173,1616679272.61908,47.6732172870636,7.92999076843262,55.6095433139801,57.710333814621,0.3,62.695545425415,0.783628940582275,63.4806010627747,1,left,0.761749029159546,63.4791743659973,604.483082761765,607.243082761765,1616679323.05052,1616679323.06185,1616679330.98685,1616679330.99488,1616679333.08764,1616679338.07285,1616679338.07457,1616679338.8579,1616679338.85648,1616679879.86039,1
2,4,2,3,4,7,3,c3_HowFace,2,smiling?,114,F_412.jpg,1616679272.6173,1616679272.61908,47.6732172870636,7.92999076843262,55.6095433139801,57.710333814621,0.3,63.7959611320496,0.61689829826355,64.4145791435242,3,right,0.596201181411743,64.4128594303131,604.483082761765,607.243082761765,1616679323.05052,1616679323.06185,1616679330.98685,1616679330.99488,1616679333.08764,1616679339.17326,1616679339.17495,1616679339.79188,1616679339.79016,1616679879.86039,0
2,4,2,3,4,8,3,c3_HowFace,1,smiling?,117,F_593.jpg,1616679272.6173,1616679272.61908,47.6732172870636,7.92999076843262,55.6095433139801,57.710333814621,0.3,64.729645242691,0.800302505493164,65.5343110466003,1,left,0.786509037017822,65.5299477481842,604.483082761765,607.243082761765,1616679323.05052,1616679323.06185,1616679330.98685,1616679330.99488,1616679333.08764,1616679340.10695,1616679340.11175,1616679340.91161,1616679340.90725,1616679879.86039,1
2,4,2,3,5,1,4,c4_HowHand,1,lifting?,56,H_136.jpg,1616679272.6173,1616679272.61908,65.5966386699676,7.53717041015625,73.1494853401184,75.2502777481079,2.1007924079895,75.4003343486786,1.71731328964233,NaN,0,NA,0,77.1176476383209,604.483082761765,607.243082761765,1616679340.97394,1616679340.97953,1616679348.52679,1616679348.52957,1616679350.62758,1616679350.77764,1616679350.77965,NaN,1616679352.49495,1616679879.86039,0
2,4,2,3,5,2,4,c4_HowHand,2,lifting?,51,H_038.jpg,1616679272.6173,1616679272.61908,65.5966386699676,7.53717041015625,73.1494853401184,75.2502777481079,0.3,77.4344334506988,0.133383274078369,77.5687839889526,1,left,0.122154951095581,77.5678167247772,604.483082761765,607.243082761765,1616679340.97394,1616679340.97953,1616679348.52679,1616679348.52957,1616679350.62758,1616679352.81174,1616679352.81319,1616679352.94609,1616679352.94512,1616679879.86039,0
2,4,2,3,5,3,4,c4_HowHand,1,lifting?,52,H_189.jpg,1616679272.6173,1616679272.61908,65.5966386699676,7.53717041015625,73.1494853401184,75.2502777481079,0.3,77.8846030139923,1.56725788116455,79.4528720283508,1,left,1.55067920684814,79.4518608951569,604.483082761765,607.243082761765,1616679340.97394,1616679340.97953,1616679348.52679,1616679348.52957,1616679350.62758,1616679353.26191,1616679353.26345,1616679354.83017,1616679354.82916,1616679879.86039,1
2,4,2,3,5,4,4,c4_HowHand,2,lifting?,53,H_077.jpg,1616679272.6173,1616679272.61908,65.5966386699676,7.53717041015625,73.1494853401184,75.2502777481079,0.3,79.7686471843719,0.750281810760498,80.5200531387329,3,right,0.736202001571655,80.5189289951324,604.483082761765,607.243082761765,1616679340.97394,1616679340.97953,1616679348.52679,1616679348.52957,1616679350.62758,1616679355.14595,1616679355.14717,1616679355.89736,1616679355.89623,1616679879.86039,0
2,4,2,3,5,5,4,c4_HowHand,1,lifting?,50,H_443.jpg,1616679272.6173,1616679272.61908,65.5966386699676,7.53717041015625,73.1494853401184,75.2502777481079,0.3,80.8357155227661,0.81697416305542,81.6536891365051,1,left,0.805742979049683,81.6526896858215,604.483082761765,607.243082761765,1616679340.97394,1616679340.97953,1616679348.52679,1616679348.52957,1616679350.62758,1616679356.21302,1616679356.21466,1616679357.03099,1616679357.02999,1616679879.86039,1
2,4,2,3,5,6,4,c4_HowHand,2,lifting?,55,H_012.jpg,1616679272.6173,1616679272.61908,65.5966386699676,7.53717041015625,73.1494853401184,75.2502777481079,0.3,81.9694754981995,0.66691780090332,82.6513590717316,3,right,0.659435033798218,82.6363932991028,604.483082761765,607.243082761765,1616679340.97394,1616679340.97953,1616679348.52679,1616679348.52957,1616679350.62758,1616679357.34678,1616679357.34823,1616679358.02866,1616679358.0137,1616679879.86039,0
2,4,2,3,5,7,4,c4_HowHand,1,lifting?,49,H_362.jpg,1616679272.6173,1616679272.61908,65.5966386699676,7.53717041015625,73.1494853401184,75.2502777481079,0.3,82.9531798267364,0.633572101593018,83.5881750488281,1,left,0.614455938339233,83.5867519283295,604.483082761765,607.243082761765,1616679340.97394,1616679340.97953,1616679348.52679,1616679348.52957,1616679350.62758,1616679358.33048,1616679358.3321,1616679358.96548,1616679358.96405,1616679879.86039,1
2,4,2,3,5,8,4,c4_HowHand,1,lifting?,54,H_170.jpg,1616679272.6173,1616679272.61908,65.5966386699676,7.53717041015625,73.1494853401184,75.2502777481079,0.3,83.9035377407074,1.20045304298401,85.1173460388184,3,right,1.19045615196228,85.1039907836914,604.483082761765,607.243082761765,1616679340.97394,1616679340.97953,1616679348.52679,1616679348.52957,1616679350.62758,1616679359.28084,1616679359.28282,1616679360.49465,1616679360.48129,1616679879.86039,0
2,4,2,3,6,1,2,c2_WhyHand,1,helping?,38,H_077.jpg,1616679272.6173,1616679272.61908,85.1706833744049,10.4442026615143,95.6246218585968,97.7254135513306,2.10079169273376,97.8754699134827,0.950358390808105,98.8272120857239,1,left,0.925201892852783,98.8258283042908,604.483082761765,607.243082761765,1616679360.54799,1616679360.56166,1616679371.00192,1616679371.01197,1616679373.10272,1616679373.25277,1616679373.26204,1616679374.20451,1616679374.20313,1616679879.86039,1
2,4,2,3,6,2,2,c2_WhyHand,1,helping?,36,H_349.jpg,1616679272.6173,1616679272.61908,85.1706833744049,10.4442026615143,95.6246218585968,97.7254135513306,0.3,99.1426136398315,0.933686256408691,100.084663143158,1,left,0.918124914169312,100.07629989624,604.483082761765,607.243082761765,1616679360.54799,1616679360.56166,1616679371.00192,1616679371.01197,1616679373.10272,1616679374.51992,1616679374.52133,1616679375.46197,1616679375.4536,1616679879.86039,1
2,4,2,3,6,3,2,c2_WhyHand,1,helping?,37,H_474.jpg,1616679272.6173,1616679272.61908,85.1706833744049,10.4442026615143,95.6246218585968,97.7254135513306,0.3,100.393085231781,0.933685779571533,101.334624042511,1,left,0.916810035705566,101.326771011353,604.483082761765,607.243082761765,1616679360.54799,1616679360.56166,1616679371.00192,1616679371.01197,1616679373.10272,1616679375.77039,1616679375.77205,1616679376.71193,1616679376.70407,1616679879.86039,1
2,4,2,3,6,4,2,c2_WhyHand,1,helping?,39,H_024.jpg,1616679272.6173,1616679272.61908,85.1706833744049,10.4442026615143,95.6246218585968,97.7254135513306,0.3,101.643556585312,1.08374190330505,102.734629144669,3,right,1.07355499267578,102.727298488617,604.483082761765,607.243082761765,1616679360.54799,1616679360.56166,1616679371.00192,1616679371.01197,1616679373.10272,1616679377.02086,1616679377.02245,1616679378.11193,1616679378.1046,1616679879.86039,0
2,4,2,3,6,5,2,c2_WhyHand,2,helping?,40,H_012.jpg,1616679272.6173,1616679272.61908,85.1706833744049,10.4442026615143,95.6246218585968,97.7254135513306,0.3,103.044083347321,0.816975355148315,103.867647161484,3,right,0.808346033096313,103.861058702469,604.483082761765,607.243082761765,1616679360.54799,1616679360.56166,1616679371.00192,1616679371.01197,1616679373.10272,1616679378.42139,1616679378.42318,1616679379.24495,1616679379.23836,1616679879.86039,0
2,4,2,3,6,6,2,c2_WhyHand,2,helping?,35,H_159.jpg,1616679272.6173,1616679272.61908,85.1706833744049,10.4442026615143,95.6246218585968,97.7254135513306,0.3,104.17784403801,0.933686256408691,105.113198032379,3,right,0.911754131317139,105.111530294418,604.483082761765,607.243082761765,1616679360.54799,1616679360.56166,1616679371.00192,1616679371.01197,1616679373.10272,1616679379.55515,1616679379.55669,1616679380.4905,1616679380.48883,1616679879.86039,0
2,4,2,3,6,7,2,c2_WhyHand,1,helping?,34,H_111.jpg,1616679272.6173,1616679272.61908,85.1706833744049,10.4442026615143,95.6246218585968,97.7254135513306,0.3,105.428315868378,0.783628463745117,106.217853059769,1,left,0.777001142501831,106.211944332123,604.483082761765,607.243082761765,1616679360.54799,1616679360.56166,1616679371.00192,1616679371.01197,1616679373.10272,1616679380.80562,1616679380.80724,1616679381.59516,1616679381.58925,1616679879.86039,1
2,4,2,3,6,8,2,c2_WhyHand,2,helping?,33,H_091.jpg,1616679272.6173,1616679272.61908,85.1706833744049,10.4442026615143,95.6246218585968,97.7254135513306,0.3,106.528730621338,1.01704978942871,107.546885004044,3,right,0.994425773620605,107.545780410767,604.483082761765,607.243082761765,1616679360.54799,1616679360.56166,1616679371.00192,1616679371.01197,1616679373.10272,1616679381.90603,1616679381.90787,1616679382.92419,1616679382.92308,1616679879.86039,0
2,4,2,3,7,1,1,c1_WhyFace,1,proud?,104,F_598.jpg,1616679272.6173,1616679272.61908,107.612472763062,5.87743735313416,113.498024454117,115.598814716339,2.10079026222229,115.748871078491,1.71731448173523,NaN,0,NA,0,117.466185560226,604.483082761765,607.243082761765,1616679382.98978,1616679382.9915,1616679388.87533,1616679388.87889,1616679390.97612,1616679391.12617,1616679391.12895,NaN,1616679392.84349,1616679879.86039,0
2,4,2,3,7,2,1,c1_WhyFace,2,proud?,102,F_760.jpg,1616679272.6173,1616679272.61908,107.612472763062,5.87743735313416,113.498024454117,115.598814716339,0.3,117.782971372604,1.71731448173523,NaN,0,NA,0,119.50028585434,604.483082761765,607.243082761765,1616679382.98978,1616679382.9915,1616679388.87533,1616679388.87889,1616679390.97612,1616679393.16027,1616679393.16192,NaN,1616679394.87759,1616679879.86039,0
2,4,2,3,7,3,1,c1_WhyFace,1,proud?,97,F_582.jpg,1616679272.6173,1616679272.61908,107.612472763062,5.87743735313416,113.498024454117,115.598814716339,0.3,119.817071905136,0.933684587478638,120.751812210083,1,left,0.922730207443237,120.750756492615,604.483082761765,607.243082761765,1616679382.98978,1616679382.9915,1616679388.87533,1616679388.87889,1616679390.97612,1616679395.19437,1616679395.19525,1616679396.12912,1616679396.12806,1616679879.86039,1
2,4,2,3,7,4,1,c1_WhyFace,2,proud?,98,F_412.jpg,1616679272.6173,1616679272.61908,107.612472763062,5.87743735313416,113.498024454117,115.598814716339,0.3,121.067542304993,0.750283241271973,121.818840017319,3,right,0.734177827835083,121.817825546265,604.483082761765,607.243082761765,1616679382.98978,1616679382.9915,1616679388.87533,1616679388.87889,1616679390.97612,1616679396.44485,1616679396.44633,1616679397.19614,1616679397.19513,1616679879.86039,0
2,4,2,3,7,5,1,c1_WhyFace,1,proud?,101,F_083.jpg,1616679272.6173,1616679272.61908,107.612472763062,5.87743735313416,113.498024454117,115.598814716339,0.3,122.134610404968,1.71731472015381,124.04925822258,1,left,1.89320702552795,123.851925125122,604.483082761765,607.243082761765,1616679382.98978,1616679382.9915,1616679388.87533,1616679388.87889,1616679390.97612,1616679397.51191,1616679397.51379,1616679399.42656,1616679399.22923,1616679879.86039,1
2,4,2,3,7,6,1,c1_WhyFace,2,proud?,100,F_776.jpg,1616679272.6173,1616679272.61908,107.612472763062,5.87743735313416,113.498024454117,115.598814716339,0.3,124.168709983826,0.0166749954223633,124.186981191635,1,left,0.00023198127746582,124.185384979248,604.483082761765,607.243082761765,1616679382.98978,1616679382.9915,1616679388.87533,1616679388.87889,1616679390.97612,1616679399.54601,1616679399.54754,1616679399.56428,1616679399.56269,1616679879.86039,0
2,4,2,3,7,7,1,c1_WhyFace,1,proud?,103,F_618.jpg,1616679272.6173,1616679272.61908,107.612472763062,5.87743735313416,113.498024454117,115.598814716339,0.3,124.502171030045,0.866992235183716,125.370868196487,1,left,0.847411870956421,125.369163265228,604.483082761765,607.243082761765,1616679382.98978,1616679382.9915,1616679388.87533,1616679388.87889,1616679390.97612,1616679399.87947,1616679399.88085,1616679400.74817,1616679400.74647,1616679879.86039,1
2,4,2,3,7,8,1,c1_WhyFace,1,proud?,99,F_695.jpg,1616679272.6173,1616679272.61908,107.612472763062,5.87743735313416,113.498024454117,115.598814716339,0.3,125.685949792862,0.933684825897217,126.620506038666,1,left,0.923780918121338,126.619634618759,604.483082761765,607.243082761765,1616679382.98978,1616679382.9915,1616679388.87533,1616679388.87889,1616679390.97612,1616679401.06325,1616679401.06479,1616679401.99781,1616679401.99694,1616679879.86039,1
2,4,2,3,8,1,3,c3_HowFace,1,looking to side?,72,F_590.jpg,1616679272.6173,1616679272.61908,126.686327447891,4.33355975151062,131.037967195511,133.138757696152,2.10079050064087,133.288815011978,0.933684349060059,134.223841180801,1,left,0.920343160629272,134.222499361038,604.483082761765,607.243082761765,1616679402.06363,1616679402.06518,1616679406.41527,1616679406.41712,1616679408.51606,1616679408.66612,1616679408.66789,1616679409.60114,1616679409.5998,1616679879.86039,1
2,4,2,3,8,2,3,c3_HowFace,1,looking to side?,71,F_433.jpg,1616679272.6173,1616679272.61908,126.686327447891,4.33355975151062,131.037967195511,133.138757696152,0.3,134.539285650253,1.15043449401855,135.691513051987,3,right,1.13120985031128,135.689720144272,604.483082761765,607.243082761765,1616679402.06363,1616679402.06518,1616679406.41527,1616679406.41712,1616679408.51606,1616679409.91659,1616679409.91829,1616679411.06882,1616679411.06702,1616679879.86039,0
2,4,2,3,8,3,3,c3_HowFace,1,looking to side?,67,F_716.jpg,1616679272.6173,1616679272.61908,126.686327447891,4.33355975151062,131.037967195511,133.138757696152,0.3,136.006505718231,1.06706857681274,137.084197034836,1,left,1.05376195907593,137.073574295044,604.483082761765,607.243082761765,1616679402.06363,1616679402.06518,1616679406.41527,1616679406.41712,1616679408.51606,1616679411.38381,1616679411.38545,1616679412.4615,1616679412.45088,1616679879.86039,1
2,4,2,3,8,4,3,c3_HowFace,2,looking to side?,70,F_779.jpg,1616679272.6173,1616679272.61908,126.686327447891,4.33355975151062,131.037967195511,133.138757696152,0.3,137.39036034584,0.750282049179077,138.15091299057,1,left,0.739906072616577,138.14064239502,604.483082761765,607.243082761765,1616679402.06363,1616679402.06518,1616679406.41527,1616679406.41712,1616679408.51606,1616679412.76766,1616679412.76941,1616679413.52822,1616679413.51795,1616679879.86039,0
2,4,2,3,8,5,3,c3_HowFace,1,looking to side?,68,F_760.jpg,1616679272.6173,1616679272.61908,126.686327447891,4.33355975151062,131.037967195511,133.138757696152,0.3,138.457429876328,0.9336838722229,139.401086082459,1,left,0.920062780380249,139.39111374855,604.483082761765,607.243082761765,1616679402.06363,1616679402.06518,1616679406.41527,1616679406.41712,1616679408.51606,1616679413.83473,1616679413.83644,1616679414.77839,1616679414.76842,1616679879.86039,1
2,4,2,3,8,6,3,c3_HowFace,2,looking to side?,66,F_111.jpg,1616679272.6173,1616679272.61908,126.686327447891,4.33355975151062,131.037967195511,133.138757696152,0.3,139.707899799347,0.917012691497803,140.626637210846,3,right,0.897137880325317,140.624912490845,604.483082761765,607.243082761765,1616679402.06363,1616679402.06518,1616679406.41527,1616679406.41712,1616679408.51606,1616679415.0852,1616679415.08701,1616679416.00394,1616679416.00222,1616679879.86039,0
2,4,2,3,8,7,3,c3_HowFace,1,looking to side?,69,F_110.jpg,1616679272.6173,1616679272.61908,126.686327447891,4.33355975151062,131.037967195511,133.138757696152,0.3,140.941698541641,0.866993427276611,141.818044176102,1,left,0.859411954879761,141.808691968918,604.483082761765,607.243082761765,1616679402.06363,1616679402.06518,1616679406.41527,1616679406.41712,1616679408.51606,1616679416.319,1616679416.32041,1616679417.19535,1616679417.18599,1616679879.86039,1
2,4,2,3,8,8,3,c3_HowFace,2,looking to side?,65,F_798.jpg,1616679272.6173,1616679272.61908,126.686327447891,4.33355975151062,131.037967195511,133.138757696152,0.3,142.125477781296,1.13376069068909,143.26090215683,3,right,1.11737179756165,143.259238471985,604.483082761765,607.243082761765,1616679402.06363,1616679402.06518,1616679406.41527,1616679406.41712,1616679408.51606,1616679417.50278,1616679417.50424,1616679418.63821,1616679418.63654,1616679879.86039,0
2,4,2,3,9,1,1,c1_WhyFace,1,argument?,43,F_716.jpg,1616679272.6173,1616679272.61908,143.325930347443,6.80193567276001,150.145167341232,152.245957603455,2.10079026222229,152.396014680862,0.866993427276611,153.267818202972,1,left,0.845839023590088,153.263008108139,604.483082761765,607.243082761765,1616679418.70323,1616679418.70495,1616679425.52247,1616679425.52404,1616679427.62326,1616679427.77332,1616679427.77517,1616679428.64512,1616679428.64031,1616679879.86039,1
2,4,2,3,9,2,1,c1_WhyFace,2,argument?,44,F_139.jpg,1616679272.6173,1616679272.61908,143.325930347443,6.80193567276001,150.145167341232,152.245957603455,0.3,153.57979344368,0.616900444030762,154.201644172668,3,right,0.603446960449219,154.196693887711,604.483082761765,607.243082761765,1616679418.70323,1616679418.70495,1616679425.52247,1616679425.52404,1616679427.62326,1616679428.9571,1616679428.95895,1616679429.57895,1616679429.574,1616679879.86039,0
2,4,2,3,9,3,1,c1_WhyFace,1,argument?,41,F_712.jpg,1616679272.6173,1616679272.61908,143.325930347443,6.80193567276001,150.145167341232,152.245957603455,0.3,154.513478269577,0.750283479690552,155.268155088425,1,left,0.726014852523804,155.263761749268,604.483082761765,607.243082761765,1616679418.70323,1616679418.70495,1616679425.52247,1616679425.52404,1616679427.62326,1616679429.89078,1616679429.89592,1616679430.64546,1616679430.64106,1616679879.86039,1
2,4,2,3,9,4,1,c1_WhyFace,2,argument?,45,F_433.jpg,1616679272.6173,1616679272.61908,143.325930347443,6.80193567276001,150.145167341232,152.245957603455,0.3,155.580547561646,1.01704978942871,156.600817193985,3,right,1.00693297386169,156.597597351074,604.483082761765,607.243082761765,1616679418.70323,1616679418.70495,1616679425.52247,1616679425.52404,1616679427.62326,1616679430.95785,1616679430.96191,1616679431.97812,1616679431.9749,1616679879.86039,0
2,4,2,3,9,5,1,c1_WhyFace,1,argument?,42,F_403.jpg,1616679272.6173,1616679272.61908,143.325930347443,6.80193567276001,150.145167341232,152.245957603455,0.3,156.914384117126,0.700263500213623,157.617447128296,1,left,0.690130949020386,157.61464761734,604.483082761765,607.243082761765,1616679418.70323,1616679418.70495,1616679425.52247,1616679425.52404,1616679427.62326,1616679432.29169,1616679432.29558,1616679432.99475,1616679432.99195,1616679879.86039,1
2,4,2,3,9,6,1,c1_WhyFace,2,argument?,46,F_844.jpg,1616679272.6173,1616679272.61908,143.325930347443,6.80193567276001,150.145167341232,152.245957603455,0.3,157.931432476044,0.833649635314941,158.767576208115,3,right,0.815496921539307,158.765082111359,604.483082761765,607.243082761765,1616679418.70323,1616679418.70495,1616679425.52247,1616679425.52404,1616679427.62326,1616679433.30874,1616679433.31203,1616679434.14488,1616679434.14239,1616679879.86039,0
2,4,2,3,9,7,1,c1_WhyFace,1,argument?,47,F_743.jpg,1616679272.6173,1616679272.61908,143.325930347443,6.80193567276001,150.145167341232,152.245957603455,0.3,159.081867446899,0.68359112739563,159.767451992035,1,left,0.672972202301025,159.765458574295,604.483082761765,607.243082761765,1616679418.70323,1616679418.70495,1616679425.52247,1616679425.52404,1616679427.62326,1616679434.45917,1616679434.46201,1616679435.14475,1616679435.14276,1616679879.86039,1
2,4,2,3,9,8,1,c1_WhyFace,1,argument?,48,F_758.jpg,1616679272.6173,1616679272.61908,143.325930347443,6.80193567276001,150.145167341232,152.245957603455,0.3,160.082244148254,1.06706953048706,161.151353111267,1,left,1.05546998977661,161.149313678741,604.483082761765,607.243082761765,1616679418.70323,1616679418.70495,1616679425.52247,1616679425.52404,1616679427.62326,1616679435.45955,1616679435.46208,1616679436.52866,1616679436.52662,1616679879.86039,1
2,4,2,3,10,1,3,c3_HowFace,1,open mouth?,80,F_844.jpg,1616679272.6173,1616679272.61908,161.216004600525,6.75186657905579,167.985222806931,170.08601354599,2.10079073905945,170.236070861816,0.70026421546936,170.951047172546,1,left,0.691497087478638,170.936335077286,604.483082761765,607.243082761765,1616679436.59331,1616679436.59485,1616679443.36253,1616679443.36437,1616679445.46332,1616679445.61337,1616679445.61523,1616679446.32835,1616679446.31364,1616679879.86039,1
2,4,2,3,10,2,3,c3_HowFace,1,open mouth?,74,F_776.jpg,1616679272.6173,1616679272.61908,161.216004600525,6.75186657905579,167.985222806931,170.08601354599,0.3,171.253120651245,0.683591365814209,171.938212146759,1,left,0.666247844696045,171.936712017059,604.483082761765,607.243082761765,1616679436.59331,1616679436.59485,1616679443.36253,1616679443.36437,1616679445.46332,1616679446.63042,1616679446.63197,1616679447.31552,1616679447.31401,1616679879.86039,1
2,4,2,3,10,3,3,c3_HowFace,2,open mouth?,76,F_544.jpg,1616679272.6173,1616679272.61908,161.216004600525,6.75186657905579,167.985222806931,170.08601354599,0.3,172.253497829437,0.733610153198242,173.001615991592,3,right,0.724271059036255,172.987107982636,604.483082761765,607.243082761765,1616679436.59331,1616679436.59485,1616679443.36253,1616679443.36437,1616679445.46332,1616679447.6308,1616679447.6323,1616679448.37892,1616679448.36441,1616679879.86039,0
2,4,2,3,10,4,3,c3_HowFace,1,open mouth?,78,F_692.jpg,1616679272.6173,1616679272.61908,161.216004600525,6.75186657905579,167.985222806931,170.08601354599,0.3,173.303893556595,0.516860961914062,173.82260011673,1,left,0.494282007217407,173.820754518509,604.483082761765,607.243082761765,1616679436.59331,1616679436.59485,1616679443.36253,1616679443.36437,1616679445.46332,1616679448.6812,1616679448.68298,1616679449.1999,1616679449.19806,1616679879.86039,1
2,4,2,3,10,5,3,c3_HowFace,2,open mouth?,77,F_584.jpg,1616679272.6173,1616679272.61908,161.216004600525,6.75186657905579,167.985222806931,170.08601354599,0.3,174.137540807724,0.650244235992432,174.789232006073,3,right,0.635773897171021,174.787785043716,604.483082761765,607.243082761765,1616679436.59331,1616679436.59485,1616679443.36253,1616679443.36437,1616679445.46332,1616679449.51484,1616679449.51657,1616679450.16653,1616679450.16509,1616679879.86039,0
2,4,2,3,10,6,3,c3_HowFace,1,open mouth?,73,F_403.jpg,1616679272.6173,1616679272.61908,161.216004600525,6.75186657905579,167.985222806931,170.08601354599,0.3,175.10457157135,0.533534288406372,175.639172067642,1,left,0.511245965957642,175.638105859756,604.483082761765,607.243082761765,1616679436.59331,1616679436.59485,1616679443.36253,1616679443.36437,1616679445.46332,1616679450.48187,1616679450.48362,1616679451.01647,1616679451.01541,1616679879.86039,1
2,4,2,3,10,7,3,c3_HowFace,1,open mouth?,75,F_086.jpg,1616679272.6173,1616679272.61908,161.216004600525,6.75186657905579,167.985222806931,170.08601354599,0.3,175.95489238739,0.700263500213623,176.656174173355,1,left,0.687012910842896,176.655155887604,604.483082761765,607.243082761765,1616679436.59331,1616679436.59485,1616679443.36253,1616679443.36437,1616679445.46332,1616679451.3322,1616679451.33397,1616679452.03348,1616679452.03246,1616679879.86039,1
2,4,2,3,10,8,3,c3_HowFace,2,open mouth?,79,F_648.jpg,1616679272.6173,1616679272.61908,161.216004600525,6.75186657905579,167.985222806931,170.08601354599,0.3,176.971942176819,0.733609676361084,177.717733135223,3,right,0.72189998626709,177.70555185318,604.483082761765,607.243082761765,1616679436.59331,1616679436.59485,1616679443.36253,1616679443.36437,1616679445.46332,1616679452.34925,1616679452.35076,1616679453.09504,1616679453.08285,1616679879.86039,0
2,4,2,3,11,1,4,c4_HowHand,1,pressing button?,88,H_019.jpg,1616679272.6173,1616679272.61908,177.772243967056,8.08565020561218,185.87529753685,187.976088037491,2.10079050064087,188.126145114899,1.71731352806091,NaN,0,NA,0,189.84345864296,604.483082761765,607.243082761765,1616679453.14955,1616679453.16213,1616679461.2526,1616679461.25418,1616679463.35339,1616679463.50345,1616679463.50531,NaN,1616679465.22076,1616679879.86039,0
2,4,2,3,11,2,4,c4_HowHand,2,pressing button?,87,H_024.jpg,1616679272.6173,1616679272.61908,177.772243967056,8.08565020561218,185.87529753685,187.976088037491,0.3,190.160244932175,1.71731400489807,NaN,0,NA,0,191.877558937073,604.483082761765,607.243082761765,1616679453.14955,1616679453.16213,1616679461.2526,1616679461.25418,1616679463.35339,1616679465.53755,1616679465.53892,NaN,1616679467.25486,1616679879.86039,0
2,4,2,3,11,3,4,c4_HowHand,2,pressing button?,85,H_130.jpg,1616679272.6173,1616679272.61908,177.772243967056,8.08565020561218,185.87529753685,187.976088037491,0.3,192.194344272614,0.967031717300415,193.167639007568,3,right,0.95600700378418,193.161375989914,604.483082761765,607.243082761765,1616679453.14955,1616679453.16213,1616679461.2526,1616679461.25418,1616679463.35339,1616679467.57165,1616679467.57305,1616679468.54494,1616679468.53868,1616679879.86039,0
2,4,2,3,11,4,4,c4_HowHand,1,pressing button?,83,H_502.jpg,1616679272.6173,1616679272.61908,177.772243967056,8.08565020561218,185.87529753685,187.976088037491,0.3,193.478161802292,0.833647966384888,194.317793121338,1,left,0.820291996002197,194.311809768677,604.483082761765,607.243082761765,1616679453.14955,1616679453.16213,1616679461.2526,1616679461.25418,1616679463.35339,1616679468.85546,1616679468.85668,1616679469.6951,1616679469.68911,1616679879.86039,1
2,4,2,3,11,5,4,c4_HowHand,2,pressing button?,81,H_261.jpg,1616679272.6173,1616679272.61908,177.772243967056,8.08565020561218,185.87529753685,187.976088037491,0.3,194.628595342636,0.700263500213623,195.334452142715,3,right,0.686702013015747,195.32885884285,604.483082761765,607.243082761765,1616679453.14955,1616679453.16213,1616679461.2526,1616679461.25418,1616679463.35339,1616679470.0059,1616679470.00747,1616679470.71176,1616679470.70616,1616679879.86039,0
2,4,2,3,11,6,4,c4_HowHand,1,pressing button?,86,H_332.jpg,1616679272.6173,1616679272.61908,177.772243967056,8.08565020561218,185.87529753685,187.976088037491,0.3,195.645645370483,0.566880702972412,196.213951101303,1,left,0.546124935150146,196.212526073456,604.483082761765,607.243082761765,1616679453.14955,1616679453.16213,1616679461.2526,1616679461.25418,1616679463.35339,1616679471.02295,1616679471.02469,1616679471.59125,1616679471.58983,1616679879.86039,1
2,4,2,3,11,7,4,c4_HowHand,1,pressing button?,82,H_126.jpg,1616679272.6173,1616679272.61908,177.772243967056,8.08565020561218,185.87529753685,187.976088037491,0.3,196.529311647415,0.650245428085327,197.1806042099,1,left,0.629827976226807,197.1795570755,604.483082761765,607.243082761765,1616679453.14955,1616679453.16213,1616679461.2526,1616679461.25418,1616679463.35339,1616679471.90661,1616679471.90833,1616679472.55791,1616679472.55686,1616679879.86039,1
2,4,2,3,11,8,4,c4_HowHand,1,pressing button?,84,H_483.jpg,1616679272.6173,1616679272.61908,177.772243967056,8.08565020561218,185.87529753685,187.976088037491,0.3,197.496342887878,0.68359112739563,198.184338083267,1,left,0.67448902130127,198.179934015274,604.483082761765,607.243082761765,1616679453.14955,1616679453.16213,1616679461.2526,1616679461.25418,1616679463.35339,1616679472.87365,1616679472.87521,1616679473.56164,1616679473.55724,1616679879.86039,1
2,4,2,3,12,1,2,c2_WhyHand,1,competing?,9,H_261.jpg,1616679272.6173,1616679272.61908,198.26329659462,5.38470458984375,203.665332546234,205.766125907898,2.10079336166382,205.916181793213,0.633572578430176,206.551529159546,1,left,0.612383842468262,206.549754371643,604.483082761765,607.243082761765,1616679473.6406,1616679473.64574,1616679479.04264,1616679479.04559,1616679481.14343,1616679481.29348,1616679481.29582,1616679481.92883,1616679481.92706,1616679879.86039,1
2,4,2,3,12,2,2,c2_WhyHand,2,competing?,12,H_483.jpg,1616679272.6173,1616679272.61908,198.26329659462,5.38470458984375,203.665332546234,205.766125907898,0.3,206.86654042244,0.933684587478638,207.801402082443,3,right,0.926286935806274,207.800225009918,604.483082761765,607.243082761765,1616679473.6406,1616679473.64574,1616679479.04264,1616679479.04559,1616679481.14343,1616679482.24384,1616679482.24544,1616679483.1787,1616679483.17753,1616679879.86039,0
2,4,2,3,12,3,2,c2_WhyHand,1,competing?,14,H_132.jpg,1616679272.6173,1616679272.61908,198.26329659462,5.38470458984375,203.665332546234,205.766125907898,0.3,208.117011299133,0.766955375671387,208.884833087921,1,left,0.757536888122559,208.883966674805,604.483082761765,607.243082761765,1616679473.6406,1616679473.64574,1616679479.04264,1616679479.04559,1616679481.14343,1616679483.49431,1616679483.49587,1616679484.26214,1616679484.26127,1616679879.86039,1
2,4,2,3,12,4,2,c2_WhyHand,2,competing?,10,H_126.jpg,1616679272.6173,1616679272.61908,198.26329659462,5.38470458984375,203.665332546234,205.766125907898,0.3,209.20075296402,0.833647727966309,210.035785188675,3,right,0.821417093276978,210.034400691986,604.483082761765,607.243082761765,1616679473.6406,1616679473.64574,1616679479.04264,1616679479.04559,1616679481.14343,1616679484.57806,1616679484.57973,1616679485.41309,1616679485.4117,1616679879.86039,0
2,4,2,3,12,5,2,c2_WhyHand,1,competing?,16,H_136.jpg,1616679272.6173,1616679272.61908,198.26329659462,5.38470458984375,203.665332546234,205.766125907898,0.3,210.351186981201,0.883665084838867,211.236420145035,1,left,0.873152017593384,211.23485206604,604.483082761765,607.243082761765,1616679473.6406,1616679473.64574,1616679479.04264,1616679479.04559,1616679481.14343,1616679485.72849,1616679485.72996,1616679486.61372,1616679486.61215,1616679879.86039,1
2,4,2,3,12,6,2,c2_WhyHand,2,competing?,11,H_502.jpg,1616679272.6173,1616679272.61908,198.26329659462,5.38470458984375,203.665332546234,205.766125907898,0.3,211.551638832092,0.783628940582275,212.336289157867,3,right,0.766960859298706,212.335267772675,604.483082761765,607.243082761765,1616679473.6406,1616679473.64574,1616679479.04264,1616679479.04559,1616679481.14343,1616679486.92894,1616679486.93038,1616679487.71359,1616679487.71257,1616679879.86039,0
2,4,2,3,12,7,2,c2_WhyHand,1,competing?,13,H_003.jpg,1616679272.6173,1616679272.61908,198.26329659462,5.38470458984375,203.665332546234,205.766125907898,0.3,212.65205406189,0.700263738632202,213.353701105118,1,left,0.690697193145752,213.352317800522,604.483082761765,607.243082761765,1616679473.6406,1616679473.64574,1616679479.04264,1616679479.04559,1616679481.14343,1616679488.02936,1616679488.03118,1616679488.731,1616679488.72962,1616679879.86039,1
2,4,2,3,12,8,2,c2_WhyHand,1,competing?,15,H_170.jpg,1616679272.6173,1616679272.61908,198.26329659462,5.38470458984375,203.665332546234,205.766125907898,0.3,213.669103851318,0.716935634613037,214.387222995758,1,left,0.694446086883545,214.386039485931,604.483082761765,607.243082761765,1616679473.6406,1616679473.64574,1616679479.04264,1616679479.04559,1616679481.14343,1616679489.04641,1616679489.04827,1616679489.76453,1616679489.76334,1616679879.86039,1
2,4,2,3,13,1,1,c1_WhyFace,1,self-doubt?,29,F_544.jpg,1616679272.6173,1616679272.61908,214.452731599808,7.26522445678711,221.722137680054,223.822930088043,2.1007924079895,223.972985973358,1.71731376647949,NaN,0,NA,0,225.690299739838,604.483082761765,607.243082761765,1616679489.83003,1616679489.83167,1616679497.09944,1616679497.11251,1616679499.20023,1616679499.35029,1616679499.36264,NaN,1616679501.0676,1616679879.86039,0
2,4,2,3,13,2,1,c1_WhyFace,2,self-doubt?,27,F_086.jpg,1616679272.6173,1616679272.61908,214.452731599808,7.26522445678711,221.722137680054,223.822930088043,0.3,226.007085313797,1.13376188278198,227.151761045456,3,right,1.12236499786377,227.140847196579,604.483082761765,607.243082761765,1616679489.83003,1616679489.83167,1616679497.09944,1616679497.11251,1616679499.20023,1616679501.38439,1616679501.38589,1616679502.52906,1616679502.51815,1616679879.86039,0
2,4,2,3,13,3,1,c1_WhyFace,1,self-doubt?,25,F_798.jpg,1616679272.6173,1616679272.61908,214.452731599808,7.26522445678711,221.722137680054,223.822930088043,0.3,227.45763253212,0.683590412139893,228.152036180496,1,left,0.676671028137207,228.14122294426,604.483082761765,607.243082761765,1616679489.83003,1616679489.83167,1616679497.09944,1616679497.11251,1616679499.20023,1616679502.83494,1616679502.83639,1616679503.52934,1616679503.51853,1616679879.86039,1
2,4,2,3,13,4,1,c1_WhyFace,1,self-doubt?,26,F_111.jpg,1616679272.6173,1616679272.61908,214.452731599808,7.26522445678711,221.722137680054,223.822930088043,0.3,228.4580082798,0.716938495635986,229.175955047607,1,left,0.698515892028809,229.174946775436,604.483082761765,607.243082761765,1616679489.83003,1616679489.83167,1616679497.09944,1616679497.11251,1616679499.20023,1616679503.83531,1616679503.83636,1616679504.55326,1616679504.55225,1616679879.86039,1
2,4,2,3,13,5,1,c1_WhyFace,2,self-doubt?,31,F_774.jpg,1616679272.6173,1616679272.61908,214.452731599808,7.26522445678711,221.722137680054,223.822930088043,0.3,229.491731395721,0.616900444030762,230.110155096054,3,right,0.600854158401489,230.108631839752,604.483082761765,607.243082761765,1616679489.83003,1616679489.83167,1616679497.09944,1616679497.11251,1616679499.20023,1616679504.86903,1616679504.87053,1616679505.48746,1616679505.48593,1616679879.86039,0
2,4,2,3,13,6,1,c1_WhyFace,1,self-doubt?,28,F_754.jpg,1616679272.6173,1616679272.61908,214.452731599808,7.26522445678711,221.722137680054,223.822930088043,0.3,230.425418128967,0.750281572341919,231.185188045502,1,left,0.734477043151855,231.175699701309,604.483082761765,607.243082761765,1616679489.83003,1616679489.83167,1616679497.09944,1616679497.11251,1616679499.20023,1616679505.80272,1616679505.80452,1616679506.56249,1616679506.553,1616679879.86039,1
2,4,2,3,13,7,1,c1_WhyFace,2,self-doubt?,32,F_128.jpg,1616679272.6173,1616679272.61908,214.452731599808,7.26522445678711,221.722137680054,223.822930088043,0.3,231.492485990524,0.683590412139893,232.177137126923,3,right,0.66469407081604,232.176076402664,604.483082761765,607.243082761765,1616679489.83003,1616679489.83167,1616679497.09944,1616679497.11251,1616679499.20023,1616679506.86979,1616679506.87134,1616679507.55444,1616679507.55338,1616679879.86039,0
2,4,2,3,13,8,1,c1_WhyFace,1,self-doubt?,30,F_584.jpg,1616679272.6173,1616679272.61908,214.452731599808,7.26522445678711,221.722137680054,223.822930088043,0.3,232.492862930298,0.766955375671387,233.268038024902,1,left,0.753766059875488,233.259818305969,604.483082761765,607.243082761765,1616679489.83003,1616679489.83167,1616679497.09944,1616679497.11251,1616679499.20023,1616679507.87017,1616679507.87167,1616679508.64534,1616679508.63712,1616679879.86039,1
2,4,2,3,14,1,3,c3_HowFace,1,looking at camera?,64,F_128.jpg,1616679272.6173,1616679272.61908,233.343183746338,7.42886137962341,240.779319038391,242.880109539032,2.10079050064087,243.030166854858,1.71731376647949,NaN,0,NA,0,244.747480621338,604.483082761765,607.243082761765,1616679508.72049,1616679508.72901,1616679516.15662,1616679516.16296,1616679518.25741,1616679518.40747,1616679518.41272,NaN,1616679520.12478,1616679879.86039,0
2,4,2,3,14,2,3,c3_HowFace,1,looking at camera?,60,F_618.jpg,1616679272.6173,1616679272.61908,233.343183746338,7.42886137962341,240.779319038391,242.880109539032,0.3,245.064267148972,0.616899013519287,245.685291042328,1,left,0.603538990020752,245.681166162491,604.483082761765,607.243082761765,1616679508.72049,1616679508.72901,1616679516.15662,1616679516.16296,1616679518.25741,1616679520.44157,1616679520.44577,1616679521.06259,1616679521.05847,1616679879.86039,1
2,4,2,3,14,3,3,c3_HowFace,1,looking at camera?,62,F_598.jpg,1616679272.6173,1616679272.61908,233.343183746338,7.42886137962341,240.779319038391,242.880109539032,0.3,245.99795173645,0.700263738632202,246.701766004562,1,left,0.678020000457764,246.698215475082,604.483082761765,607.243082761765,1616679508.72049,1616679508.72901,1616679516.15662,1616679516.16296,1616679518.25741,1616679521.37525,1616679521.37927,1616679522.07907,1616679522.07552,1616679879.86039,1
2,4,2,3,14,4,3,c3_HowFace,2,looking at camera?,63,F_743.jpg,1616679272.6173,1616679272.61908,233.343183746338,7.42886137962341,240.779319038391,242.880109539032,0.3,247.015001764297,0.583553314208984,247.601386060715,3,right,0.560744047164917,247.598555078506,604.483082761765,607.243082761765,1616679508.72049,1616679508.72901,1616679516.15662,1616679516.16296,1616679518.25741,1616679522.3923,1616679522.39649,1616679522.97869,1616679522.97586,1616679879.86039,0
2,4,2,3,14,5,3,c3_HowFace,1,looking at camera?,61,F_774.jpg,1616679272.6173,1616679272.61908,233.343183746338,7.42886137962341,240.779319038391,242.880109539032,0.3,247.915340652466,0.66691780090332,248.584540119171,1,left,0.645941019058228,248.582258453369,604.483082761765,607.243082761765,1616679508.72049,1616679508.72901,1616679516.15662,1616679516.16296,1616679518.25741,1616679523.29264,1616679523.29576,1616679523.96184,1616679523.95956,1616679879.86039,1
2,4,2,3,14,6,3,c3_HowFace,2,looking at camera?,57,F_582.jpg,1616679272.6173,1616679272.61908,233.343183746338,7.42886137962341,240.779319038391,242.880109539032,0.3,248.899045219421,0.633571863174438,249.535177221298,1,left,0.609205007553101,249.532617082596,604.483082761765,607.243082761765,1616679508.72049,1616679508.72901,1616679516.15662,1616679516.16296,1616679518.25741,1616679524.27635,1616679524.27912,1616679524.91248,1616679524.90992,1616679879.86039,0
2,4,2,3,14,7,3,c3_HowFace,2,looking at camera?,58,F_754.jpg,1616679272.6173,1616679272.61908,233.343183746338,7.42886137962341,240.779319038391,242.880109539032,0.3,249.849402894974,0.800301790237427,250.651134004593,3,right,0.791246891021729,250.649704685211,604.483082761765,607.243082761765,1616679508.72049,1616679508.72901,1616679516.15662,1616679516.16296,1616679518.25741,1616679525.22671,1616679525.22934,1616679526.02844,1616679526.02701,1616679879.86039,0
2,4,2,3,14,8,3,c3_HowFace,1,looking at camera?,59,F_129.jpg,1616679272.6173,1616679272.61908,233.343183746338,7.42886137962341,240.779319038391,242.880109539032,0.3,250.966490974426,0.65024471282959,251.618211021423,1,left,0.637656927108765,251.616735687256,604.483082761765,607.243082761765,1616679508.72049,1616679508.72901,1616679516.15662,1616679516.16296,1616679518.25741,1616679526.34379,1616679526.34574,1616679526.99551,1616679526.99404,1616679879.86039,1
2,4,2,3,15,1,4,c4_HowHand,1,both hands?,123,H_167.jpg,1616679272.6173,1616679272.61908,251.683427801132,7.87863326072693,259.569731941223,261.670523633957,2.10079169273376,261.820580949783,1.21712517738342,263.038837184906,1,left,1.20501112937927,263.037706127167,604.483082761765,607.243082761765,1616679527.06073,1616679527.06184,1616679534.94703,1616679534.94889,1616679537.04783,1616679537.19788,1616679537.19986,1616679538.41614,1616679538.41501,1616679879.86039,1
2,4,2,3,15,2,4,c4_HowHand,2,both hands?,121,H_091.jpg,1616679272.6173,1616679272.61908,251.683427801132,7.87863326072693,259.569731941223,261.670523633957,0.3,263.354491939545,0.716936588287354,264.084945192337,3,right,0.707153797149658,264.071428527832,604.483082761765,607.243082761765,1616679527.06073,1616679527.06184,1616679534.94703,1616679534.94889,1616679537.04783,1616679538.73179,1616679538.73333,1616679539.46225,1616679539.44873,1616679879.86039,0
2,4,2,3,15,3,4,c4_HowHand,2,both hands?,125,H_627.jpg,1616679272.6173,1616679272.61908,251.683427801132,7.87863326072693,259.569731941223,261.670523633957,0.3,264.388214817047,0.967030763626099,265.368320217133,3,right,0.955881118774414,265.355245580673,604.483082761765,607.243082761765,1616679527.06073,1616679527.06184,1616679534.94703,1616679534.94889,1616679537.04783,1616679539.76552,1616679539.76741,1616679540.74562,1616679540.73255,1616679879.86039,0
2,4,2,3,15,4,4,c4_HowHand,1,both hands?,128,H_027.jpg,1616679272.6173,1616679272.61908,251.683427801132,7.87863326072693,259.569731941223,261.670523633957,0.3,265.672031869888,0.766954660415649,266.440026988983,1,left,0.750890016555786,266.438986530304,604.483082761765,607.243082761765,1616679527.06073,1616679527.06184,1616679534.94703,1616679534.94889,1616679537.04783,1616679541.04933,1616679541.05087,1616679541.81733,1616679541.81629,1616679879.86039,1
2,4,2,3,15,5,4,c4_HowHand,1,both hands?,122,H_111.jpg,1616679272.6173,1616679272.61908,251.683427801132,7.87863326072693,259.569731941223,261.670523633957,0.3,266.755772819519,0.766955375671387,267.535675992966,1,left,0.759828090667725,267.52272819519,604.483082761765,607.243082761765,1616679527.06073,1616679527.06184,1616679534.94703,1616679534.94889,1616679537.04783,1616679542.13308,1616679542.13481,1616679542.91298,1616679542.90003,1616679879.86039,1
2,4,2,3,15,6,4,c4_HowHand,2,both hands?,126,H_159.jpg,1616679272.6173,1616679272.61908,251.683427801132,7.87863326072693,259.569731941223,261.670523633957,0.3,267.839514484406,0.766956090927124,268.608204116821,3,right,0.742682933807373,268.606470575333,604.483082761765,607.243082761765,1616679527.06073,1616679527.06184,1616679534.94703,1616679534.94889,1616679537.04783,1616679543.21682,1616679543.21848,1616679543.98551,1616679543.98377,1616679879.86039,0
2,4,2,3,15,7,4,c4_HowHand,1,both hands?,124,H_581.jpg,1616679272.6173,1616679272.61908,251.683427801132,7.87863326072693,259.569731941223,261.670523633957,0.3,268.923256626129,0.983704805374146,269.908529033661,1,left,0.963099002838135,269.906961431503,604.483082761765,607.243082761765,1616679527.06073,1616679527.06184,1616679534.94703,1616679534.94889,1616679537.04783,1616679544.30056,1616679544.30222,1616679545.28583,1616679545.28426,1616679879.86039,1
2,4,2,3,15,8,4,c4_HowHand,1,both hands?,127,H_349.jpg,1616679272.6173,1616679272.61908,251.683427801132,7.87863326072693,259.569731941223,261.670523633957,0.3,270.223747005463,0.733608484268188,270.958594074249,1,left,0.718224048614502,270.957355489731,604.483082761765,607.243082761765,1616679527.06073,1616679527.06184,1616679534.94703,1616679534.94889,1616679537.04783,1616679545.60105,1616679545.60299,1616679546.3359,1616679546.33466,1616679879.86039,1
2,4,2,3,16,1,2,c2_WhyHand,1,self-protection?,89,H_443.jpg,1616679272.6173,1616679272.61908,271.024047842026,7.32792925834656,278.36014579773,280.460936775208,2.10079097747803,280.610994091034,1.40052771568298,282.018524160385,1,left,1.38288187980652,282.011521806717,604.483082761765,607.243082761765,1616679546.40135,1616679546.41244,1616679553.73745,1616679553.74605,1616679555.83824,1616679555.9883,1616679555.99643,1616679557.39583,1616679557.38882,1616679879.86039,1
2,4,2,3,16,2,2,c2_WhyHand,2,self-protection?,90,H_006.jpg,1616679272.6173,1616679272.61908,271.024047842026,7.32792925834656,278.36014579773,280.460936775208,0.3,282.328307380676,0.816973686218262,283.14697312355,3,right,0.793900012969971,283.145281066895,604.483082761765,607.243082761765,1616679546.40135,1616679546.41244,1616679553.73745,1616679553.74605,1616679555.83824,1616679557.70561,1616679557.70749,1616679558.52428,1616679558.52258,1616679879.86039,0
2,4,2,3,16,3,2,c2_WhyHand,1,self-protection?,91,H_581.jpg,1616679272.6173,1616679272.61908,271.024047842026,7.32792925834656,278.36014579773,280.460936775208,0.3,283.462068071365,0.98370361328125,284.447221031189,1,left,0.963876962661743,284.445771684647,604.483082761765,607.243082761765,1616679546.40135,1616679546.41244,1616679553.73745,1616679553.74605,1616679555.83824,1616679558.83937,1616679558.84058,1616679559.82452,1616679559.82307,1616679879.86039,1
2,4,2,3,16,4,2,c2_WhyHand,2,self-protection?,92,H_532.jpg,1616679272.6173,1616679272.61908,271.024047842026,7.32792925834656,278.36014579773,280.460936775208,0.3,284.762558689117,0.766955137252808,285.535510053635,3,right,0.754682064056396,285.52951382637,604.483082761765,607.243082761765,1616679546.40135,1616679546.41244,1616679553.73745,1616679553.74605,1616679555.83824,1616679560.13986,1616679560.14162,1616679560.91281,1616679560.90682,1616679879.86039,0
2,4,2,3,16,5,2,c2_WhyHand,1,self-protection?,96,H_027.jpg,1616679272.6173,1616679272.61908,271.024047842026,7.32792925834656,278.36014579773,280.460936775208,0.3,285.846299638748,0.883666753768921,286.735491027832,1,left,0.868320941925049,286.729966392517,604.483082761765,607.243082761765,1616679546.40135,1616679546.41244,1616679553.73745,1616679553.74605,1616679555.83824,1616679561.2236,1616679561.22515,1616679562.11279,1616679562.10727,1616679879.86039,1
2,4,2,3,16,6,2,c2_WhyHand,1,self-protection?,93,H_038.jpg,1616679272.6173,1616679272.61908,271.024047842026,7.32792925834656,278.36014579773,280.460936775208,0.3,287.046751728058,0.98370361328125,288.035346021652,1,left,0.971287965774536,288.030455341339,604.483082761765,607.243082761765,1616679546.40135,1616679546.41244,1616679553.73745,1616679553.74605,1616679555.83824,1616679562.42405,1616679562.42567,1616679563.41265,1616679563.40776,1616679879.86039,1
2,4,2,3,16,7,2,c2_WhyHand,2,self-protection?,95,H_332.jpg,1616679272.6173,1616679272.61908,271.024047842026,7.32792925834656,278.36014579773,280.460936775208,0.3,288.347241868973,1.00037622451782,289.351807107925,3,right,0.982517004013062,289.347618093491,604.483082761765,607.243082761765,1616679546.40135,1616679546.41244,1616679553.73745,1616679553.74605,1616679555.83824,1616679563.72454,1616679563.72913,1616679564.72911,1616679564.72492,1616679879.86039,0
2,4,2,3,16,8,2,c2_WhyHand,1,self-protection?,94,H_189.jpg,1616679272.6173,1616679272.61908,271.024047842026,7.32792925834656,278.36014579773,280.460936775208,0.3,289.664404382706,0.766956329345703,290.434910049438,1,left,0.746222972869873,290.431360712051,604.483082761765,607.243082761765,1616679546.40135,1616679546.41244,1616679553.73745,1616679553.74605,1616679555.83824,1616679565.04171,1616679565.04566,1616679565.81221,1616679565.80866,1616679879.86039,1
2,4,2,3,17,1,3,c3_HowFace,1,smiling?,118,F_759.jpg,1616679272.6173,1616679272.61908,290.498052825928,9.33388519287109,299.851577272415,301.935696115494,2.08411884307861,302.085751523972,1.73398756980896,NaN,0,NA,0,303.819739093781,604.483082761765,607.243082761765,1616679565.87536,1616679565.8795,1616679575.22888,1616679575.23064,1616679577.313,1616679577.46305,1616679577.47976,NaN,1616679579.19704,1616679879.86039,0
2,4,2,3,17,2,3,c3_HowFace,2,smiling?,114,F_412.jpg,1616679272.6173,1616679272.61908,290.498052825928,9.33388519287109,299.851577272415,301.935696115494,0.3,304.136524429321,0.900339603424072,305.038503160477,3,right,0.888190031051636,305.036864032745,604.483082761765,607.243082761765,1616679565.87536,1616679565.8795,1616679575.22888,1616679575.23064,1616679577.313,1616679579.51383,1616679579.51549,1616679580.41581,1616679580.41417,1616679879.86039,0
2,4,2,3,17,3,3,c3_HowFace,1,smiling?,117,F_593.jpg,1616679272.6173,1616679272.61908,290.498052825928,9.33388519287109,299.851577272415,301.935696115494,0.3,305.353649368286,0.750283002853394,306.105591049194,1,left,0.734216928482056,306.10393237114,604.483082761765,607.243082761765,1616679565.87536,1616679565.8795,1616679575.22888,1616679575.23064,1616679577.313,1616679580.73095,1616679580.73249,1616679581.48289,1616679581.48124,1616679879.86039,1
2,4,2,3,17,4,3,c3_HowFace,2,smiling?,113,F_712.jpg,1616679272.6173,1616679272.61908,290.498052825928,9.33388519287109,299.851577272415,301.935696115494,0.3,306.420718898773,0.800301790237427,307.222777118683,3,right,0.77777099609375,307.221020689011,604.483082761765,607.243082761765,1616679565.87536,1616679565.8795,1616679575.22888,1616679575.23064,1616679577.313,1616679581.79802,1616679581.79979,1616679582.60008,1616679582.59832,1616679879.86039,0
2,4,2,3,17,5,3,c3_HowFace,1,smiling?,115,F_695.jpg,1616679272.6173,1616679272.61908,290.498052825928,9.33388519287109,299.851577272415,301.935696115494,0.3,307.537806739807,0.633571863174438,308.173128118515,1,left,0.612895965576172,308.171378602982,604.483082761765,607.243082761765,1616679565.87536,1616679565.8795,1616679575.22888,1616679575.23064,1616679577.313,1616679582.91511,1616679582.91777,1616679583.55043,1616679583.54868,1616679879.86039,1
2,4,2,3,17,6,3,c3_HowFace,1,smiling?,119,F_139.jpg,1616679272.6173,1616679272.61908,290.498052825928,9.33388519287109,299.851577272415,301.935696115494,0.3,308.488163461685,0.850321054458618,309.340086212158,1,left,0.836383104324341,309.338484516144,604.483082761765,607.243082761765,1616679565.87536,1616679565.8795,1616679575.22888,1616679575.23064,1616679577.313,1616679583.86547,1616679583.86705,1616679584.71739,1616679584.71579,1616679879.86039,1
2,4,2,3,17,7,3,c3_HowFace,1,smiling?,116,F_083.jpg,1616679272.6173,1616679272.61908,290.498052825928,9.33388519287109,299.851577272415,301.935696115494,0.3,309.65527056694,0.600226163864136,310.256822099686,1,left,0.585536003112793,310.255496730804,604.483082761765,607.243082761765,1616679565.87536,1616679565.8795,1616679575.22888,1616679575.23064,1616679577.313,1616679585.03257,1616679585.03404,1616679585.63412,1616679585.6328,1616679879.86039,1
2,4,2,3,17,8,3,c3_HowFace,2,smiling?,120,F_758.jpg,1616679272.6173,1616679272.61908,290.498052825928,9.33388519287109,299.851577272415,301.935696115494,0.3,310.572282781601,0.783629179000854,311.368154993057,3,right,0.773961067199707,311.355911960602,604.483082761765,607.243082761765,1616679565.87536,1616679565.8795,1616679575.22888,1616679575.23064,1616679577.313,1616679585.94959,1616679585.95125,1616679586.74546,1616679586.73321,1616679879.86039,0
2,4,2,3,18,1,1,c1_WhyFace,1,admiring?,1,F_593.jpg,1616679272.6173,1616679272.61908,311.439276924133,6.18261218070984,317.641613712311,319.725732316971,2.08411860466003,319.875788679123,0.583552837371826,320.468850126266,1,left,0.564759016036987,320.459341516495,604.483082761765,607.243082761765,1616679586.81658,1616679586.8182,1616679593.01892,1616679593.02085,1616679595.10304,1616679595.25309,1616679595.26307,1616679595.84615,1616679595.83664,1616679879.86039,1
2,4,2,3,18,2,1,c1_WhyFace,2,admiring?,2,F_129.jpg,1616679272.6173,1616679272.61908,311.439276924133,6.18261218070984,317.641613712311,319.725732316971,0.3,320.776127328873,0.950357913970947,321.735561122894,3,right,0.935518026351929,321.726485242844,604.483082761765,607.243082761765,1616679586.81658,1616679586.8182,1616679593.01892,1616679593.02085,1616679595.10304,1616679596.15343,1616679596.1552,1616679597.11286,1616679597.10379,1616679879.86039,0
2,4,2,3,18,3,1,c1_WhyFace,1,admiring?,5,F_759.jpg,1616679272.6173,1616679272.61908,311.439276924133,6.18261218070984,317.641613712311,319.725732316971,0.3,322.043271770477,0.566880226135254,322.619039049149,1,left,0.55583119392395,322.610151996613,604.483082761765,607.243082761765,1616679586.81658,1616679586.8182,1616679593.01892,1616679593.02085,1616679595.10304,1616679597.42057,1616679597.42218,1616679597.99634,1616679597.98745,1616679879.86039,1
2,4,2,3,18,4,1,c1_WhyFace,2,admiring?,6,F_692.jpg,1616679272.6173,1616679272.61908,311.439276924133,6.18261218070984,317.641613712311,319.725732316971,0.3,322.926937570572,0.666918277740479,323.60220407486,3,right,0.652199983596802,323.593855848312,604.483082761765,607.243082761765,1616679586.81658,1616679586.8182,1616679593.01892,1616679593.02085,1616679595.10304,1616679598.30424,1616679598.30587,1616679598.97951,1616679598.97116,1616679879.86039,0
2,4,2,3,18,5,1,c1_WhyFace,1,admiring?,4,F_779.jpg,1616679272.6173,1616679272.61908,311.439276924133,6.18261218070984,317.641613712311,319.725732316971,0.3,323.910642137527,0.566879272460938,324.479023208618,1,left,0.543764114379883,324.477521409988,604.483082761765,607.243082761765,1616679586.81658,1616679586.8182,1616679593.01892,1616679593.02085,1616679595.10304,1616679599.28795,1616679599.28981,1616679599.85633,1616679599.85482,1616679879.86039,1
2,4,2,3,18,6,1,c1_WhyFace,1,admiring?,8,F_590.jpg,1616679272.6173,1616679272.61908,311.439276924133,6.18261218070984,317.641613712311,319.725732316971,0.3,324.794308414459,0.78362774848938,325.585816135407,1,left,0.77094292640686,325.577936162949,604.483082761765,607.243082761765,1616679586.81658,1616679586.8182,1616679593.01892,1616679593.02085,1616679595.10304,1616679600.17161,1616679600.17314,1616679600.96312,1616679600.95524,1616679879.86039,1
2,4,2,3,18,7,1,c1_WhyFace,1,admiring?,7,F_648.jpg,1616679272.6173,1616679272.61908,311.439276924133,6.18261218070984,317.641613712311,319.725732316971,0.3,325.894722690582,0.716936826705933,326.619053115845,1,left,0.703475952148438,326.611659517288,604.483082761765,607.243082761765,1616679586.81658,1616679586.8182,1616679593.01892,1616679593.02085,1616679595.10304,1616679601.27203,1616679601.27391,1616679601.99636,1616679601.98896,1616679879.86039,1
2,4,2,3,18,8,1,c1_WhyFace,2,admiring?,3,F_110.jpg,1616679272.6173,1616679272.61908,311.439276924133,6.18261218070984,317.641613712311,319.725732316971,0.3,326.928445329666,0.866993188858032,327.802072992325,3,right,0.858356952667236,327.795438518524,604.483082761765,607.243082761765,1616679586.81658,1616679586.8182,1616679593.01892,1616679593.02085,1616679595.10304,1616679602.30575,1616679602.30758,1616679603.17938,1616679603.17274,1616679879.86039,0
2,4,2,3,19,1,2,c2_WhyHand,1,competing?,9,H_261.jpg,1616679272.6173,1616679272.61908,327.878803482056,7.63314771652222,335.515014400482,337.615806570053,2.10079216957092,337.765862932205,0.633571147918701,338.402379026413,1,left,0.617717027664185,338.399434080124,604.483082761765,607.243082761765,1616679603.25611,1616679603.25787,1616679610.89232,1616679610.89639,1616679612.99311,1616679613.14317,1616679613.14616,1616679613.77968,1616679613.77674,1616679879.86039,1
2,4,2,3,19,2,2,c2_WhyHand,1,competing?,15,H_170.jpg,1616679272.6173,1616679272.61908,327.878803482056,7.63314771652222,335.515014400482,337.615806570053,0.3,338.716220846176,0.65024471282959,339.368817081451,1,left,0.639886140823364,339.366465559006,604.483082761765,607.243082761765,1616679603.25611,1616679603.25787,1616679610.89232,1616679610.89639,1616679612.99311,1616679614.09352,1616679614.09592,1616679614.74612,1616679614.74377,1616679879.86039,1
2,4,2,3,19,3,2,c2_WhyHand,2,competing?,12,H_483.jpg,1616679272.6173,1616679272.61908,327.878803482056,7.63314771652222,335.515014400482,337.615806570053,0.3,339.683252325058,0.866991758346558,340.552142133713,3,right,0.851557016372681,340.550244083405,604.483082761765,607.243082761765,1616679603.25611,1616679603.25787,1616679610.89232,1616679610.89639,1616679612.99311,1616679615.06056,1616679615.06294,1616679615.92945,1616679615.92755,1616679879.86039,0
2,4,2,3,19,4,2,c2_WhyHand,1,competing?,14,H_132.jpg,1616679272.6173,1616679272.61908,327.878803482056,7.63314771652222,335.515014400482,337.615806570053,0.3,340.867030849457,0.600225687026978,341.46834610939,1,left,0.583169937133789,341.467256536484,604.483082761765,607.243082761765,1616679603.25611,1616679603.25787,1616679610.89232,1616679610.89639,1616679612.99311,1616679616.24433,1616679616.24616,1616679616.84565,1616679616.84456,1616679879.86039,1
2,4,2,3,19,5,2,c2_WhyHand,1,competing?,16,H_136.jpg,1616679272.6173,1616679272.61908,327.878803482056,7.63314771652222,335.515014400482,337.615806570053,0.3,341.78404258728,0.683591365814209,342.469176998138,1,left,0.664226055145264,342.467633953094,604.483082761765,607.243082761765,1616679603.25611,1616679603.25787,1616679610.89232,1616679610.89639,1616679612.99311,1616679617.16135,1616679617.16342,1616679617.84648,1616679617.84494,1616679879.86039,1
2,4,2,3,19,6,2,c2_WhyHand,1,competing?,13,H_003.jpg,1616679272.6173,1616679272.61908,327.878803482056,7.63314771652222,335.515014400482,337.615806570053,0.3,342.78442024231,0.583553314208984,343.369617214203,1,left,0.563118934631348,343.367973556519,604.483082761765,607.243082761765,1616679603.25611,1616679603.25787,1616679610.89232,1616679610.89639,1616679612.99311,1616679618.16172,1616679618.16325,1616679618.74692,1616679618.74528,1616679879.86039,1
2,4,2,3,19,7,2,c2_WhyHand,2,competing?,10,H_126.jpg,1616679272.6173,1616679272.61908,327.878803482056,7.63314771652222,335.515014400482,337.615806570053,0.3,343.684759130478,0.833647727966309,344.519718160629,3,right,0.823290109634399,344.518406858444,604.483082761765,607.243082761765,1616679603.25611,1616679603.25787,1616679610.89232,1616679610.89639,1616679612.99311,1616679619.06206,1616679619.06351,1616679619.89702,1616679619.89571,1616679879.86039,0
2,4,2,3,19,8,2,c2_WhyHand,2,competing?,11,H_502.jpg,1616679272.6173,1616679272.61908,327.878803482056,7.63314771652222,335.515014400482,337.615806570053,0.3,344.835192432404,0.800301313400269,345.636815061569,3,right,0.791680097579956,345.635493745804,604.483082761765,607.243082761765,1616679603.25611,1616679603.25787,1616679610.89232,1616679610.89639,1616679612.99311,1616679620.2125,1616679620.21378,1616679621.01412,1616679621.0128,1616679879.86039,0
2,4,2,3,20,1,4,c4_HowHand,1,reaching?,111,H_003.jpg,1616679272.6173,1616679272.61908,345.702185621262,11.2896964550018,357.006445636749,359.107236375809,2.10079073905945,359.257293453217,0.967030763626099,360.235647192001,1,left,0.957804918289185,360.224324216843,604.483082761765,607.243082761765,1616679621.07949,1616679621.08039,1616679632.38375,1616679632.38584,1616679634.48454,1616679634.6346,1616679634.63628,1616679635.61295,1616679635.60163,1616679879.86039,1
2,4,2,3,20,2,4,c4_HowHand,1,reaching?,110,H_364.jpg,1616679272.6173,1616679272.61908,345.702185621262,11.2896964550018,357.006445636749,359.107236375809,0.3,360.541110506058,0.967031240463257,361.509601106644,1,left,0.951956033706665,361.508141746521,604.483082761765,607.243082761765,1616679621.07949,1616679621.08039,1616679632.38375,1616679632.38584,1616679634.48454,1616679635.91841,1616679635.91996,1616679636.8869,1616679636.88544,1616679879.86039,1
2,4,2,3,20,3,4,c4_HowHand,2,reaching?,108,H_532.jpg,1616679272.6173,1616679272.61908,345.702185621262,11.2896964550018,357.006445636749,359.107236375809,0.3,361.824927797318,0.783627510070801,362.618443002701,3,right,0.772969961166382,362.608555307388,604.483082761765,607.243082761765,1616679621.07949,1616679621.08039,1616679632.38375,1616679632.38584,1616679634.48454,1616679637.20223,1616679637.20396,1616679637.99575,1616679637.98586,1616679879.86039,0
2,4,2,3,20,4,4,c4_HowHand,1,reaching?,106,H_006.jpg,1616679272.6173,1616679272.61908,345.702185621262,11.2896964550018,357.006445636749,359.107236375809,0.3,362.925341596603,0.766956090927124,363.693973054886,1,left,0.748677015304565,363.692297687531,604.483082761765,607.243082761765,1616679621.07949,1616679621.08039,1616679632.38375,1616679632.38584,1616679634.48454,1616679638.30264,1616679638.30416,1616679639.07128,1616679639.0696,1616679879.86039,1
2,4,2,3,20,5,4,c4_HowHand,2,reaching?,105,H_438.jpg,1616679272.6173,1616679272.61908,345.702185621262,11.2896964550018,357.006445636749,359.107236375809,0.3,364.009083499908,1.00037741661072,365.010836114883,3,right,0.983390092849731,365.009460916519,604.483082761765,607.243082761765,1616679621.07949,1616679621.08039,1616679632.38375,1616679632.38584,1616679634.48454,1616679639.38639,1616679639.38845,1616679640.38814,1616679640.38676,1616679879.86039,0
2,4,2,3,20,6,4,c4_HowHand,1,reaching?,107,H_007.jpg,1616679272.6173,1616679272.61908,345.702185621262,11.2896964550018,357.006445636749,359.107236375809,0.3,365.326246490479,0.616899013519287,365.944169034958,1,left,0.596317052841187,365.943145503998,604.483082761765,607.243082761765,1616679621.07949,1616679621.08039,1616679632.38375,1616679632.38584,1616679634.48454,1616679640.70355,1616679640.70514,1616679641.32147,1616679641.32045,1616679879.86039,1
2,4,2,3,20,7,4,c4_HowHand,1,reaching?,109,H_474.jpg,1616679272.6173,1616679272.61908,345.702185621262,11.2896964550018,357.006445636749,359.107236375809,0.3,366.259932031631,1.13375949859619,367.401925077438,1,left,1.12629199028015,367.393691530228,604.483082761765,607.243082761765,1616679621.07949,1616679621.08039,1616679632.38375,1616679632.38584,1616679634.48454,1616679641.63723,1616679641.63841,1616679642.77923,1616679642.77099,1616679879.86039,1
2,4,2,3,20,8,4,c4_HowHand,2,reaching?,112,H_132.jpg,1616679272.6173,1616679272.61908,345.702185621262,11.2896964550018,357.006445636749,359.107236375809,0.3,367.71047829628,0.700263261795044,368.419149150848,1,left,0.688026905059814,368.410741558075,604.483082761765,607.243082761765,1616679621.07949,1616679621.08039,1616679632.38375,1616679632.38584,1616679634.48454,1616679643.08778,1616679643.08937,1616679643.79645,1616679643.78804,1616679879.86039,0
2,4,2,3,21,1,3,c3_HowFace,1,open mouth?,73,F_403.jpg,1616679272.6173,1616679272.61908,368.494106044769,6.33778595924377,374.84650062561,376.947292556763,2.10079193115234,377.097348680496,1.03372263908386,378.135493030548,1,left,1.02348589897156,378.13107131958,604.483082761765,607.243082761765,1616679643.87141,1616679643.87962,1616679650.2238,1616679650.22994,1616679652.3246,1616679652.47465,1616679652.47985,1616679653.5128,1616679653.50837,1616679879.86039,1
2,4,2,3,21,2,3,c3_HowFace,2,open mouth?,79,F_648.jpg,1616679272.6173,1616679272.61908,368.494106044769,6.33778595924377,374.84650062561,376.947292556763,0.3,378.447858085632,0.666917562484741,379.118774166107,3,right,0.654237031936646,379.114775648117,604.483082761765,607.243082761765,1616679643.87141,1616679643.87962,1616679650.2238,1616679650.22994,1616679652.3246,1616679653.82516,1616679653.8296,1616679654.49608,1616679654.49208,1616679879.86039,0
2,4,2,3,21,3,3,c3_HowFace,1,open mouth?,74,F_776.jpg,1616679272.6173,1616679272.61908,368.494106044769,6.33778595924377,374.84650062561,376.947292556763,0.3,379.431561460495,0.600225925445557,380.034984102249,1,left,0.589990854263306,380.031787385941,604.483082761765,607.243082761765,1616679643.87141,1616679643.87962,1616679650.2238,1616679650.22994,1616679652.3246,1616679654.80886,1616679654.81291,1616679655.41229,1616679655.40909,1616679879.86039,1
2,4,2,3,21,4,3,c3_HowFace,2,open mouth?,77,F_584.jpg,1616679272.6173,1616679272.61908,368.494106044769,6.33778595924377,374.84650062561,376.947292556763,0.3,380.348573675156,0.83364725112915,381.18405913353,3,right,0.809731006622314,381.182220926285,604.483082761765,607.243082761765,1616679643.87141,1616679643.87962,1616679650.2238,1616679650.22994,1616679652.3246,1616679655.72588,1616679655.72955,1616679656.56136,1616679656.55952,1616679879.86039,0
2,4,2,3,21,5,3,c3_HowFace,1,open mouth?,80,F_844.jpg,1616679272.6173,1616679272.61908,368.494106044769,6.33778595924377,374.84650062561,376.947292556763,0.3,381.499006500244,0.733609914779663,382.235072126389,1,left,0.721220970153809,382.232616415024,604.483082761765,607.243082761765,1616679643.87141,1616679643.87962,1616679650.2238,1616679650.22994,1616679652.3246,1616679656.87631,1616679656.87966,1616679657.61238,1616679657.60992,1616679879.86039,1
2,4,2,3,21,6,3,c3_HowFace,1,open mouth?,78,F_692.jpg,1616679272.6173,1616679272.61908,368.494106044769,6.33778595924377,374.84650062561,376.947292556763,0.3,382.549402227402,1.71731472015381,NaN,0,NA,0,384.266716947556,604.483082761765,607.243082761765,1616679643.87141,1616679643.87962,1616679650.2238,1616679650.22994,1616679652.3246,1616679657.92671,1616679657.92961,NaN,1616679659.64402,1616679879.86039,0
2,4,2,3,21,7,3,c3_HowFace,1,open mouth?,75,F_086.jpg,1616679272.6173,1616679272.61908,368.494106044769,6.33778595924377,374.84650062561,376.947292556763,0.3,384.583502759933,0.700262546539307,385.285095205307,1,left,0.68719482421875,385.283765306473,604.483082761765,607.243082761765,1616679643.87141,1616679643.87962,1616679650.2238,1616679650.22994,1616679652.3246,1616679659.96081,1616679659.96238,1616679660.6624,1616679660.66107,1616679879.86039,1
2,4,2,3,21,8,3,c3_HowFace,2,open mouth?,76,F_544.jpg,1616679272.6173,1616679272.61908,368.494106044769,6.33778595924377,374.84650062561,376.947292556763,0.3,385.600551595688,0.766955852508545,386.369397153854,3,right,0.744588136672974,386.367507448196,604.483082761765,607.243082761765,1616679643.87141,1616679643.87962,1616679650.2238,1616679650.22994,1616679652.3246,1616679660.97785,1616679660.97964,1616679661.7467,1616679661.74481,1616679879.86039,0
2,4,2,3,22,1,1,c1_WhyFace,1,argument?,42,F_403.jpg,1616679272.6173,1616679272.61908,386.450873126984,7.0570809841156,393.520202388763,395.620994319916,2.10079193115234,395.771050920486,1.71731352806091,NaN,0,NA,0,397.488364448547,604.483082761765,607.243082761765,1616679661.82818,1616679661.83003,1616679668.89751,1616679668.89932,1616679670.9983,1616679671.14835,1616679671.14995,NaN,1616679672.86567,1616679879.86039,0
2,4,2,3,22,2,1,c1_WhyFace,2,argument?,46,F_844.jpg,1616679272.6173,1616679272.61908,386.450873126984,7.0570809841156,393.520202388763,395.620994319916,0.3,397.805150737762,0.483515739440918,398.290389051437,1,left,0.471888065338135,398.288666477203,604.483082761765,607.243082761765,1616679661.82818,1616679661.83003,1616679668.89751,1616679668.89932,1616679670.9983,1616679673.18245,1616679673.18406,1616679673.66769,1616679673.66597,1616679879.86039,0
2,4,2,3,22,3,1,c1_WhyFace,1,argument?,41,F_712.jpg,1616679272.6173,1616679272.61908,386.450873126984,7.0570809841156,393.520202388763,395.620994319916,0.3,398.605451574326,0.933686256408691,399.540237178802,1,left,0.916734218597412,399.539137830734,604.483082761765,607.243082761765,1616679661.82818,1616679661.83003,1616679668.89751,1616679668.89932,1616679670.9983,1616679673.98275,1616679673.98433,1616679674.91754,1616679674.91644,1616679879.86039,1
2,4,2,3,22,4,1,c1_WhyFace,1,argument?,48,F_758.jpg,1616679272.6173,1616679272.61908,386.450873126984,7.0570809841156,393.520202388763,395.620994319916,0.3,399.855924358368,0.800300359725952,400.668703069687,1,left,0.790548086166382,400.656224718094,604.483082761765,607.243082761765,1616679661.82818,1616679661.83003,1616679668.89751,1616679668.89932,1616679670.9983,1616679675.23323,1616679675.23487,1616679676.04601,1616679676.03353,1616679879.86039,1
2,4,2,3,22,5,1,c1_WhyFace,2,argument?,45,F_433.jpg,1616679272.6173,1616679272.61908,386.450873126984,7.0570809841156,393.520202388763,395.620994319916,0.3,400.973010530472,0.616899013519287,401.59178399086,3,right,0.604666948318481,401.589909543991,604.483082761765,607.243082761765,1616679661.82818,1616679661.83003,1616679668.89751,1616679668.89932,1616679670.9983,1616679676.35031,1616679676.35159,1616679676.96909,1616679676.96721,1616679879.86039,0
2,4,2,3,22,6,1,c1_WhyFace,1,argument?,43,F_716.jpg,1616679272.6173,1616679272.61908,386.450873126984,7.0570809841156,393.520202388763,395.620994319916,0.3,401.906695833206,0.933685779571533,402.842102041245,1,left,0.913734912872314,402.840381612778,604.483082761765,607.243082761765,1616679661.82818,1616679661.83003,1616679668.89751,1616679668.89932,1616679670.9983,1616679677.284,1616679677.28547,1616679678.2194,1616679678.21768,1616679879.86039,1
2,4,2,3,22,7,1,c1_WhyFace,2,argument?,44,F_139.jpg,1616679272.6173,1616679272.61908,386.450873126984,7.0570809841156,393.520202388763,395.620994319916,0.3,403.157166471481,0.766955852508545,403.93527220726,3,right,0.753587961196899,403.92412232399,604.483082761765,607.243082761765,1616679661.82818,1616679661.83003,1616679668.89751,1616679668.89932,1616679670.9983,1616679678.53447,1616679678.53639,1616679679.31258,1616679679.30143,1616679879.86039,0
2,4,2,3,22,8,1,c1_WhyFace,1,argument?,47,F_743.jpg,1616679272.6173,1616679272.61908,386.450873126984,7.0570809841156,393.520202388763,395.620994319916,0.3,404.240908613205,0.683591604232788,404.925566186905,1,left,0.668514966964722,404.924500217438,604.483082761765,607.243082761765,1616679661.82818,1616679661.83003,1616679668.89751,1616679668.89932,1616679670.9983,1616679679.61821,1616679679.62007,1616679680.30287,1616679680.3018,1616679879.86039,1
2,4,2,3,23,1,2,c2_WhyHand,1,helping?,39,H_024.jpg,1616679272.6173,1616679272.61908,405.007864942551,6.72010111808777,411.743735780716,413.844526996613,2.10079121589661,413.994583835602,1.7173125743866,NaN,0,NA,0,415.711896409988,604.483082761765,607.243082761765,1616679680.38517,1616679680.38702,1616679687.12104,1616679687.12312,1616679689.22183,1616679689.37189,1616679689.37367,NaN,1616679691.0892,1616679879.86039,0
2,4,2,3,23,2,2,c2_WhyHand,1,helping?,36,H_349.jpg,1616679272.6173,1616679272.61908,405.007864942551,6.72010111808777,411.743735780716,413.844526996613,0.3,416.028684606552,0.61689829826355,416.652384033203,1,left,0.604871034622192,416.645582904816,604.483082761765,607.243082761765,1616679680.38517,1616679680.38702,1616679687.12104,1616679687.12312,1616679689.22183,1616679691.40599,1616679691.40746,1616679692.02969,1616679692.02289,1616679879.86039,1
2,4,2,3,23,3,2,c2_WhyHand,1,helping?,38,H_077.jpg,1616679272.6173,1616679272.61908,405.007864942551,6.72010111808777,411.743735780716,413.844526996613,0.3,416.962368955612,0.750283002853394,417.719569196701,1,left,0.73297905921936,417.712651958466,604.483082761765,607.243082761765,1616679680.38517,1616679680.38702,1616679687.12104,1616679687.12312,1616679689.22183,1616679692.33967,1616679692.34114,1616679693.09687,1616679693.08995,1616679879.86039,1
2,4,2,3,23,4,2,c2_WhyHand,1,helping?,37,H_474.jpg,1616679272.6173,1616679272.61908,405.007864942551,6.72010111808777,411.743735780716,413.844526996613,0.3,418.029437532425,0.816974639892578,418.852520217896,1,left,0.802458047866821,418.846412172318,604.483082761765,607.243082761765,1616679680.38517,1616679680.38702,1616679687.12104,1616679687.12312,1616679689.22183,1616679693.40674,1616679693.40849,1616679694.22982,1616679694.22372,1616679879.86039,1
2,4,2,3,23,5,2,c2_WhyHand,2,helping?,33,H_091.jpg,1616679272.6173,1616679272.61908,405.007864942551,6.72010111808777,411.743735780716,413.844526996613,0.3,419.163197031021,0.766956806182861,419.935749998093,3,right,0.753954887390137,419.930153837204,604.483082761765,607.243082761765,1616679680.38517,1616679680.38702,1616679687.12104,1616679687.12312,1616679689.22183,1616679694.5405,1616679694.54204,1616679695.31305,1616679695.30746,1616679879.86039,0
2,4,2,3,23,6,2,c2_WhyHand,2,helping?,35,H_159.jpg,1616679272.6173,1616679272.61908,405.007864942551,6.72010111808777,411.743735780716,413.844526996613,0.3,420.246939411163,0.866991519927979,421.118675222397,3,right,0.851171970367432,421.113930931091,604.483082761765,607.243082761765,1616679680.38517,1616679680.38702,1616679687.12104,1616679687.12312,1616679689.22183,1616679695.62424,1616679695.62575,1616679696.49598,1616679696.49123,1616679879.86039,0
2,4,2,3,23,7,2,c2_WhyHand,1,helping?,34,H_111.jpg,1616679272.6173,1616679272.61908,405.007864942551,6.72010111808777,411.743735780716,413.844526996613,0.3,421.430718412399,0.883666038513184,422.319199075699,1,left,0.870706081390381,422.314384450912,604.483082761765,607.243082761765,1616679680.38517,1616679680.38702,1616679687.12104,1616679687.12312,1616679689.22183,1616679696.80802,1616679696.80944,1616679697.6965,1616679697.69169,1616679879.86039,1
2,4,2,3,23,8,2,c2_WhyHand,2,helping?,40,H_012.jpg,1616679272.6173,1616679272.61908,405.007864942551,6.72010111808777,411.743735780716,413.844526996613,0.3,422.631171216965,0.86699390411377,423.499710073471,3,right,0.842273950576782,423.498165121079,604.483082761765,607.243082761765,1616679680.38517,1616679680.38702,1616679687.12104,1616679687.12312,1616679689.22183,1616679698.00847,1616679698.01325,1616679698.87701,1616679698.87547,1616679879.86039,0
2,4,2,3,24,1,4,c4_HowHand,1,both hands?,122,H_111.jpg,1616679272.6173,1616679272.61908,423.581528654099,6.21643853187561,429.817211856842,431.901330699921,2.08411884307861,432.051386108398,1.65062260627747,433.70350312233,1,left,1.63600206375122,433.702008714676,604.483082761765,607.243082761765,1616679698.95883,1616679698.96039,1616679705.19451,1616679705.19651,1616679707.27863,1616679707.42869,1616679707.4301,1616679709.08081,1616679709.07931,1616679879.86039,1
2,4,2,3,24,2,4,c4_HowHand,1,both hands?,128,H_027.jpg,1616679272.6173,1616679272.61908,423.581528654099,6.21643853187561,429.817211856842,431.901330699921,0.3,434.018795003891,0.816972494125366,434.837505092621,1,left,0.79432487487793,434.835767498016,604.483082761765,607.243082761765,1616679698.95883,1616679698.96039,1616679705.19451,1616679705.19651,1616679707.27863,1616679709.3961,1616679709.39778,1616679710.21481,1616679710.21307,1616679879.86039,1
2,4,2,3,24,3,4,c4_HowHand,2,both hands?,121,H_091.jpg,1616679272.6173,1616679272.61908,423.581528654099,6.21643853187561,429.817211856842,431.901330699921,0.3,435.152555456162,0.80030083656311,435.953901042938,3,right,0.778902053833008,435.952856292725,604.483082761765,607.243082761765,1616679698.95883,1616679698.96039,1616679705.19451,1616679705.19651,1616679707.27863,1616679710.52986,1616679710.53148,1616679711.3312,1616679711.33016,1616679879.86039,0
2,4,2,3,24,4,4,c4_HowHand,1,both hands?,123,H_167.jpg,1616679272.6173,1616679272.61908,423.581528654099,6.21643853187561,429.817211856842,431.901330699921,0.3,436.26964258194,0.600227117538452,436.87153219223,1,left,0.58144211769104,436.869869699478,604.483082761765,607.243082761765,1616679698.95883,1616679698.96039,1616679705.19451,1616679705.19651,1616679707.27863,1616679711.64695,1616679711.64846,1616679712.24884,1616679712.24717,1616679879.86039,1
2,4,2,3,24,5,4,c4_HowHand,1,both hands?,124,H_581.jpg,1616679272.6173,1616679272.61908,423.581528654099,6.21643853187561,429.817211856842,431.901330699921,0.3,437.18665312767,0.816976308822632,438.005302181244,3,right,0.79611611366272,438.003629436493,604.483082761765,607.243082761765,1616679698.95883,1616679698.96039,1616679705.19451,1616679705.19651,1616679707.27863,1616679712.56396,1616679712.56544,1616679713.38261,1616679713.38093,1616679879.86039,0
2,4,2,3,24,6,4,c4_HowHand,2,both hands?,126,H_159.jpg,1616679272.6173,1616679272.61908,423.581528654099,6.21643853187561,429.817211856842,431.901330699921,0.3,438.320415248871,0.516862630844116,438.838712205887,1,left,0.495130062103271,438.837277879715,604.483082761765,607.243082761765,1616679698.95883,1616679698.96039,1616679705.19451,1616679705.19651,1616679707.27863,1616679713.69772,1616679713.69931,1616679714.21602,1616679714.21458,1616679879.86039,0
2,4,2,3,24,7,4,c4_HowHand,1,both hands?,127,H_349.jpg,1616679272.6173,1616679272.61908,423.581528654099,6.21643853187561,429.817211856842,431.901330699921,0.3,439.154062976837,0.800301313400269,439.956283082962,1,left,0.786991119384766,439.954364290237,604.483082761765,607.243082761765,1616679698.95883,1616679698.96039,1616679705.19451,1616679705.19651,1616679707.27863,1616679714.53137,1616679714.53277,1616679715.33359,1616679715.33167,1616679879.86039,1
2,4,2,3,24,8,4,c4_HowHand,2,both hands?,125,H_627.jpg,1616679272.6173,1616679272.61908,423.581528654099,6.21643853187561,429.817211856842,431.901330699921,0.3,440.271150817871,0.683590888977051,440.968672027588,3,right,0.676372051239014,440.954741706848,604.483082761765,607.243082761765,1616679698.95883,1616679698.96039,1616679705.19451,1616679705.19651,1616679707.27863,1616679715.64845,1616679715.65013,1616679716.34597,1616679716.33204,1616679879.86039,0
2,4,2,3,25,1,2,c2_WhyHand,1,healthy?,18,H_438.jpg,1616679272.6173,1616679272.61908,441.054779996872,6.26017117500305,447.32380818367,449.424599876404,2.10079169273376,449.574656000137,1.71731352806091,NaN,0,NA,0,451.291969528198,604.483082761765,607.243082761765,1616679716.43208,1616679716.4337,1616679722.70111,1616679722.71428,1616679724.8019,1616679724.95196,1616679724.96389,NaN,1616679726.66927,1616679879.86039,0
2,4,2,3,25,2,2,c2_WhyHand,1,healthy?,23,H_364.jpg,1616679272.6173,1616679272.61908,441.054779996872,6.26017117500305,447.32380818367,449.424599876404,0.3,451.608755817413,1.71731376647949,NaN,0,NA,0,453.326069583893,604.483082761765,607.243082761765,1616679716.43208,1616679716.4337,1616679722.70111,1616679722.71428,1616679724.8019,1616679726.98606,1616679726.98775,NaN,1616679728.70337,1616679879.86039,0
2,4,2,3,25,3,2,c2_WhyHand,1,healthy?,17,H_362.jpg,1616679272.6173,1616679272.61908,441.054779996872,6.26017117500305,447.32380818367,449.424599876404,0.3,453.642855873108,0.700263261795044,454.344601144791,1,left,0.681089162826538,454.343119134903,604.483082761765,607.243082761765,1616679716.43208,1616679716.4337,1616679722.70111,1616679722.71428,1616679724.8019,1616679729.02016,1616679729.02166,1616679729.7219,1616679729.72042,1616679879.86039,1
2,4,2,3,25,4,2,c2_WhyHand,2,healthy?,24,H_019.jpg,1616679272.6173,1616679272.61908,441.054779996872,6.26017117500305,447.32380818367,449.424599876404,0.3,454.659904947281,0.766955614089966,455.435845127106,3,right,0.759068965911865,455.426860561371,604.483082761765,607.243082761765,1616679716.43208,1616679716.4337,1616679722.70111,1616679722.71428,1616679724.8019,1616679730.03721,1616679730.0391,1616679730.81315,1616679730.80416,1616679879.86039,0
2,4,2,3,25,5,2,c2_WhyHand,1,healthy?,19,H_167.jpg,1616679272.6173,1616679272.61908,441.054779996872,6.26017117500305,447.32380818367,449.424599876404,0.3,455.743646612167,0.583552837371826,456.336192121506,1,left,0.568191051483154,456.327199449539,604.483082761765,607.243082761765,1616679716.43208,1616679716.4337,1616679722.70111,1616679722.71428,1616679724.8019,1616679731.12095,1616679731.12279,1616679731.7135,1616679731.7045,1616679879.86039,1
2,4,2,3,25,6,2,c2_WhyHand,2,healthy?,20,H_007.jpg,1616679272.6173,1616679272.61908,441.054779996872,6.26017117500305,447.32380818367,449.424599876404,0.3,456.643985977173,0.833647489547729,457.47916220665,3,right,0.813031196594238,457.477633466721,604.483082761765,607.243082761765,1616679716.43208,1616679716.4337,1616679722.70111,1616679722.71428,1616679724.8019,1616679732.02129,1616679732.02288,1616679732.85647,1616679732.85494,1616679879.86039,0
2,4,2,3,25,7,2,c2_WhyHand,1,healthy?,21,H_627.jpg,1616679272.6173,1616679272.61908,441.054779996872,6.26017117500305,447.32380818367,449.424599876404,0.3,457.79441904068,0.783629655838013,458.579695215225,1,left,0.761148929595947,458.578048696518,604.483082761765,607.243082761765,1616679716.43208,1616679716.4337,1616679722.70111,1616679722.71428,1616679724.8019,1616679733.17172,1616679733.1732,1616679733.957,1616679733.95535,1616679879.86039,1
2,4,2,3,25,8,2,c2_WhyHand,2,healthy?,22,H_130.jpg,1616679272.6173,1616679272.61908,441.054779996872,6.26017117500305,447.32380818367,449.424599876404,0.3,458.89483379364,0.783628940582275,459.685458173752,3,right,0.769592046737671,459.678462734222,604.483082761765,607.243082761765,1616679716.43208,1616679716.4337,1616679722.70111,1616679722.71428,1616679724.8019,1616679734.27214,1616679734.27362,1616679735.06276,1616679735.05577,1616679879.86039,0
2,4,2,3,26,1,4,c4_HowHand,1,pressing button?,82,H_126.jpg,1616679272.6173,1616679272.61908,459.76182841301,6.60710978507996,466.380987873077,468.48177980423,2.10079193115234,468.631835927963,1.71731400489807,NaN,0,NA,0,470.349149932861,604.483082761765,607.243082761765,1616679735.13913,1616679735.14662,1616679741.75829,1616679741.76413,1616679743.85908,1616679744.00914,1616679744.0133,NaN,1616679745.72645,1616679879.86039,0
2,4,2,3,26,2,4,c4_HowHand,2,pressing button?,85,H_130.jpg,1616679272.6173,1616679272.61908,459.76182841301,6.60710978507996,466.380987873077,468.48177980423,0.3,470.665935745239,1.71731328964233,NaN,0,NA,0,472.383249034882,604.483082761765,607.243082761765,1616679735.13913,1616679735.14662,1616679741.75829,1616679741.76413,1616679743.85908,1616679746.04324,1616679746.04669,NaN,1616679747.76055,1616679879.86039,0
2,4,2,3,26,3,4,c4_HowHand,1,pressing button?,84,H_483.jpg,1616679272.6173,1616679272.61908,459.76182841301,6.60710978507996,466.380987873077,468.48177980423,0.3,472.700028409958,0.950365304946899,473.652051200867,1,left,0.939986944198608,473.650393714905,604.483082761765,607.243082761765,1616679735.13913,1616679735.14662,1616679741.75829,1616679741.76413,1616679743.85908,1616679748.07733,1616679748.07971,1616679749.02935,1616679749.0277,1616679879.86039,1
2,4,2,3,26,4,4,c4_HowHand,2,pressing button?,87,H_024.jpg,1616679272.6173,1616679272.61908,459.76182841301,6.60710978507996,466.380987873077,468.48177980423,0.3,473.96718000412,0.666917562484741,474.635444154739,3,right,0.659633159637451,474.634097566605,604.483082761765,607.243082761765,1616679735.13913,1616679735.14662,1616679741.75829,1616679741.76413,1616679743.85908,1616679749.34448,1616679749.34657,1616679750.01275,1616679750.0114,1616679879.86039,0
2,4,2,3,26,5,4,c4_HowHand,1,pressing button?,86,H_332.jpg,1616679272.6173,1616679272.61908,459.76182841301,6.60710978507996,466.380987873077,468.48177980423,0.3,474.950884094238,0.583552598953247,475.535552015305,1,left,0.562995195388794,475.534436693192,604.483082761765,607.243082761765,1616679735.13913,1616679735.14662,1616679741.75829,1616679741.76413,1616679743.85908,1616679750.32819,1616679750.33001,1616679750.91285,1616679750.91174,1616679879.86039,1
2,4,2,3,26,6,4,c4_HowHand,1,pressing button?,88,H_019.jpg,1616679272.6173,1616679272.61908,459.76182841301,6.60710978507996,466.380987873077,468.48177980423,0.3,475.851223220825,0.616898059844971,476.468976011276,1,left,0.609433889389038,476.46812128067,604.483082761765,607.243082761765,1616679735.13913,1616679735.14662,1616679741.75829,1616679741.76413,1616679743.85908,1616679751.22853,1616679751.23,1616679751.84628,1616679751.84542,1616679879.86039,1
2,4,2,3,26,7,4,c4_HowHand,2,pressing button?,81,H_261.jpg,1616679272.6173,1616679272.61908,459.76182841301,6.60710978507996,466.380987873077,468.48177980423,0.3,476.784907331467,0.783629179000854,477.569916000366,3,right,0.770756006240845,477.568536510468,604.483082761765,607.243082761765,1616679735.13913,1616679735.14662,1616679741.75829,1616679741.76413,1616679743.85908,1616679752.16221,1616679752.1637,1616679752.94722,1616679752.94584,1616679879.86039,0
2,4,2,3,26,8,4,c4_HowHand,1,pressing button?,83,H_502.jpg,1616679272.6173,1616679272.61908,459.76182841301,6.60710978507996,466.380987873077,468.48177980423,0.3,477.885322561264,0.850320339202881,478.736838092804,1,left,0.838618993759155,478.735642900467,604.483082761765,607.243082761765,1616679735.13913,1616679735.14662,1616679741.75829,1616679741.76413,1616679743.85908,1616679753.26263,1616679753.26426,1616679754.11414,1616679754.11295,1616679879.86039,1
2,4,2,3,27,1,3,c3_HowFace,1,looking at camera?,60,F_618.jpg,1616679272.6173,1616679272.61908,478.819007863998,5.07994031906128,483.904257049561,486.005048742294,2.10079169273376,486.155104866028,1.13376140594482,487.290515174866,1,left,1.09955716133118,487.288866271973,604.483082761765,607.243082761765,1616679754.19631,1616679754.19723,1616679759.28156,1616679759.2986,1616679761.38235,1616679761.53241,1616679761.54722,1616679762.66782,1616679762.66617,1616679879.86039,1
2,4,2,3,27,2,3,c3_HowFace,2,looking at camera?,58,F_754.jpg,1616679272.6173,1616679272.61908,478.819007863998,5.07994031906128,483.904257049561,486.005048742294,0.3,487.605650653839,0.700264930725098,488.30791806221,3,right,0.685721158981323,488.305915584564,604.483082761765,607.243082761765,1616679754.19631,1616679754.19723,1616679759.28156,1616679759.2986,1616679761.38235,1616679762.98295,1616679762.98434,1616679763.68522,1616679763.68322,1616679879.86039,0
2,4,2,3,27,3,3,c3_HowFace,1,looking at camera?,59,F_129.jpg,1616679272.6173,1616679272.61908,478.819007863998,5.07994031906128,483.904257049561,486.005048742294,0.3,488.622700681686,0.483515977859497,489.107390155792,1,left,0.466562986373901,489.106216659546,604.483082761765,607.243082761765,1616679754.19631,1616679754.19723,1616679759.28156,1616679759.2986,1616679761.38235,1616679764,1616679764.0014,1616679764.48469,1616679764.48352,1616679879.86039,1
2,4,2,3,27,4,3,c3_HowFace,1,looking at camera?,62,F_598.jpg,1616679272.6173,1616679272.61908,478.819007863998,5.07994031906128,483.904257049561,486.005048742294,0.3,489.423002948761,0.766955614089966,490.190946092606,1,left,0.754236936569214,490.189958562851,604.483082761765,607.243082761765,1616679754.19631,1616679754.19723,1616679759.28156,1616679759.2986,1616679761.38235,1616679764.80031,1616679764.80224,1616679765.56825,1616679765.56726,1616679879.86039,1
2,4,2,3,27,5,3,c3_HowFace,1,looking at camera?,64,F_128.jpg,1616679272.6173,1616679272.61908,478.819007863998,5.07994031906128,483.904257049561,486.005048742294,0.3,490.506744852066,0.900338649749756,491.408109178543,1,left,0.887334108352661,491.407083501816,604.483082761765,607.243082761765,1616679754.19631,1616679754.19723,1616679759.28156,1616679759.2986,1616679761.38235,1616679765.88405,1616679765.88584,1616679766.78541,1616679766.78439,1616679879.86039,1
2,4,2,3,27,6,3,c3_HowFace,2,looking at camera?,57,F_582.jpg,1616679272.6173,1616679272.61908,478.819007863998,5.07994031906128,483.904257049561,486.005048742294,0.3,491.723869075775,1.40052843093872,493.135888090134,1,left,1.39007782936096,493.124397506714,604.483082761765,607.243082761765,1616679754.19631,1616679754.19723,1616679759.28156,1616679759.2986,1616679761.38235,1616679767.10117,1616679767.10304,1616679768.51319,1616679768.5017,1616679879.86039,0
2,4,2,3,27,7,3,c3_HowFace,1,looking at camera?,61,F_774.jpg,1616679272.6173,1616679272.61908,478.819007863998,5.07994031906128,483.904257049561,486.005048742294,0.3,493.441184272766,0.0166726112365723,493.45954202652,1,left,0.000218868255615234,493.457856884003,604.483082761765,607.243082761765,1616679754.19631,1616679754.19723,1616679759.28156,1616679759.2986,1616679761.38235,1616679768.81849,1616679768.82035,1616679768.83684,1616679768.83516,1616679879.86039,1
2,4,2,3,27,8,3,c3_HowFace,2,looking at camera?,63,F_743.jpg,1616679272.6173,1616679272.61908,478.819007863998,5.07994031906128,483.904257049561,486.005048742294,0.3,493.774642457962,0.983703374862671,494.759936084747,3,right,0.958471059799194,494.758345832825,604.483082761765,607.243082761765,1616679754.19631,1616679754.19723,1616679759.28156,1616679759.2986,1616679761.38235,1616679769.15195,1616679769.15396,1616679770.13724,1616679770.13565,1616679879.86039,0
2,4,2,3,28,1,1,c1_WhyFace,1,self-doubt?,25,F_798.jpg,1616679272.6173,1616679272.61908,494.841710319519,8.02145576477051,502.878072013855,504.978863945007,2.10079193115234,505.128919830322,1.05039620399475,506.185586204529,1,left,1.04290008544922,506.179316034317,604.483082761765,607.243082761765,1616679770.21901,1616679770.23026,1616679778.25537,1616679778.2572,1616679780.35617,1616679780.50622,1616679780.5078,1616679781.56289,1616679781.55662,1616679879.86039,1
2,4,2,3,28,2,1,c1_WhyFace,2,self-doubt?,27,F_086.jpg,1616679272.6173,1616679272.61908,494.841710319519,8.02145576477051,502.878072013855,504.978863945007,0.3,506.496101846695,0.700263977050781,507.197482099533,3,right,0.679869174957275,507.196365823746,604.483082761765,607.243082761765,1616679770.21901,1616679770.23026,1616679778.25537,1616679778.2572,1616679780.35617,1616679781.8734,1616679781.87516,1616679782.57478,1616679782.57367,1616679879.86039,0
