onset	duration	trial_type	pmod_accuracy	image_fname
5.018059968948364	0.9471302032470703	how_face	1.0	F_759.jpg
6.2685301303863525	0.7191200256347656	how_face	1.0	F_412.jpg
7.302250146865845	0.9190800189971924	how_face	1.0	F_593.jpg
8.53604006767273	1.495460033416748	how_face	1.0	F_712.jpg
10.336709976196289	0.8379001617431641	how_face	1.0	F_695.jpg
11.48714017868042	0.5936698913574219	how_face	1.0	F_139.jpg
12.387480020523071	0.5596499443054199	how_face	1.0	F_083.jpg
13.254470109939575	0.6422500610351562	how_face	1.0	F_758.jpg
24.125190019607544	0.9356601238250732	why_face	1.0	F_593.jpg
25.375660181045532	0.8547999858856201	why_face	1.0	F_129.jpg
26.542760133743286	1.0213499069213867	why_face	1.0	F_759.jpg
27.87659001350403	0.7350499629974365	why_face	1.0	F_692.jpg
28.926980018615723	0.7514200210571289	why_face	1.0	F_779.jpg
29.99404001235962	0.7854299545288086	why_face	1.0	F_590.jpg
31.094449996948242	0.8026700019836426	why_face	1.0	F_648.jpg
32.21153998374939	0.6190900802612305	why_face	1.0	F_110.jpg
43.182300090789795	0.7517499923706055	why_hand	1.0	H_261.jpg
44.24936008453369	1.285599946975708	why_hand	0.0	H_170.jpg
45.84996008872986	0.9015200138092041	why_hand	1.0	H_483.jpg
47.06708002090454	0.984950065612793	why_hand	1.0	H_132.jpg
48.367560148239136	1.11899995803833	why_hand	1.0	H_136.jpg
49.801429986953735	0.912559986114502	why_hand	1.0	H_003.jpg
51.018550157547	0.9120798110961914	why_hand	1.0	H_126.jpg
52.23567008972168	1.1452300548553467	why_hand	1.0	H_502.jpg
65.67402005195618	1.3060801029205322	how_hand	1.0	H_003.jpg
67.29129004478455	0.8553900718688965	how_hand	1.0	H_364.jpg
68.4583899974823	0.9521100521087646	how_hand	1.0	H_532.jpg
69.72553014755249	0.8878998756408691	how_hand	1.0	H_006.jpg
70.92598009109497	1.354259967803955	how_hand	1.0	H_438.jpg
72.59326004981995	0.8875000476837158	how_hand	1.0	H_007.jpg
73.79370999336243		how_hand	0.0	H_474.jpg
75.82780003547668	1.002920150756836	how_hand	1.0	H_132.jpg
84.78114008903503	1.202430009841919	how_face	1.0	F_403.jpg
86.29838013648987	0.7846698760986328	how_face	1.0	F_648.jpg
87.39879012107849	0.634660005569458	how_face	1.0	F_776.jpg
88.34914016723633	0.6852598190307617	how_face	1.0	F_584.jpg
89.34950995445251	0.668220043182373	how_face	1.0	F_844.jpg
90.33320999145508	0.8179900646209717	how_face	1.0	F_692.jpg
91.46696996688843	0.7353801727294922	how_face	1.0	F_086.jpg
92.51735997200012	1.0017800331115723	how_face	1.0	F_544.jpg
106.25582003593445	1.3082599639892578	why_face	1.0	F_403.jpg
107.87309002876282	0.9347701072692871	why_face	1.0	F_844.jpg
109.12355017662048	0.8851099014282227	why_face	1.0	F_712.jpg
110.32400012016296	1.039989948272705	why_face	1.0	F_758.jpg
111.67449998855591	0.9064300060272217	why_face	1.0	F_433.jpg
112.89163017272949	1.5550198554992676	why_face	1.0	F_716.jpg
114.75899004936218	0.7880699634552002	why_face	1.0	F_139.jpg
115.8594000339508	1.370609998703003	why_face	1.0	F_743.jpg
128.7308599948883	1.81427001953125	why_hand	1.0	H_024.jpg
130.76496005058289	0.9159801006317139	why_hand	1.0	H_349.jpg
131.98207998275757	1.2187399864196777	why_hand	0.0	H_077.jpg
133.51598000526428	1.152209997177124	why_hand	1.0	H_474.jpg
134.9832000732422	1.1015000343322754	why_hand	1.0	H_091.jpg
136.40039014816284	1.234799861907959	why_hand	0.0	H_159.jpg
137.95097017288208	1.3856799602508545	why_hand	0.0	H_111.jpg
139.65160012245178	1.2624900341033936	why_hand	1.0	H_012.jpg
146.27074003219604		how_hand	0.0	H_111.jpg
148.3048300743103	0.6179800033569336	how_hand	1.0	H_027.jpg
149.23851013183594	0.9249999523162842	how_hand	1.0	H_091.jpg
150.47231006622314	1.0748000144958496	how_hand	1.0	H_167.jpg
151.8561601638794	0.9239199161529541	how_hand	1.0	H_581.jpg
153.08995008468628	0.9406900405883789	how_hand	1.0	H_159.jpg
154.3404200077057	0.8230600357055664	how_hand	1.0	H_349.jpg
155.47416996955872	1.0728700160980225	how_hand	1.0	H_627.jpg
163.79394006729126	0.9367198944091797	why_hand	1.0	H_438.jpg
165.04440999031067	1.883270025253296	why_hand	1.0	H_364.jpg
167.07850003242493	0.018970012664794922	why_hand	1.0	H_362.jpg
167.41196012496948	1.2515299320220947	why_hand	1.0	H_019.jpg
168.97921013832092	1.001960039138794	why_hand	1.0	H_167.jpg
170.29637002944946	1.285400152206421	why_hand	1.0	H_007.jpg
171.8969600200653	1.1847901344299316	why_hand	1.0	H_627.jpg
173.39752006530762	1.2181799411773682	why_hand	1.0	H_130.jpg
182.46757006645203	0.8180599212646484	how_hand	1.0	H_126.jpg
183.60133004188538	0.8354599475860596	how_hand	1.0	H_130.jpg
184.75176000595093	0.8847801685333252	how_hand	1.0	H_483.jpg
185.95220017433167	1.0180997848510742	how_hand	1.0	H_024.jpg
187.2860300540924	0.9443700313568115	how_hand	1.0	H_332.jpg
188.5364899635315		how_hand	0.0	H_019.jpg
190.57059001922607		how_hand	0.0	H_261.jpg
192.60469007492065		how_hand	0.0	H_502.jpg
203.95892000198364	0.8883299827575684	how_face	1.0	F_618.jpg
205.1593701839447	0.7381198406219482	how_face	1.0	F_754.jpg
206.2097601890564	0.786829948425293	how_face	1.0	F_129.jpg
207.31017017364502	0.5683498382568359	how_face	1.0	F_598.jpg
208.19383001327515	0.7696599960327148	how_face	1.0	F_128.jpg
209.27757000923157	1.0029699802398682	how_face	1.0	F_582.jpg
210.5947301387787	1.1518900394439697	how_face	1.0	F_774.jpg
212.0619399547577	1.8567800521850586	how_face	1.0	F_743.jpg
222.74926018714905	0.8188698291778564	why_face	1.0	F_798.jpg
223.8830201625824	1.3643798828125	why_face	1.0	F_086.jpg
225.55030012130737	0.8520200252532959	why_face	1.0	F_544.jpg
226.71741008758545	0.6680400371551514	why_face	1.0	F_754.jpg
227.701110124588	0.7629399299621582	why_face	1.0	F_111.jpg
228.7681701183319	0.9458699226379395	why_face	0.0	F_584.jpg
230.01864004135132	1.418990135192871	why_face	1.0	F_128.jpg
231.75261998176575	0.8277502059936523	why_face	0.0	F_774.jpg
240.27245998382568	1.3523101806640625	why_hand	0.0	H_581.jpg
241.93974995613098	1.4402801990509033	why_hand	0.0	H_443.jpg
243.6904001235962	1.2396800518035889	why_hand	1.0	H_332.jpg
245.24098014831543	1.372459888458252	why_hand	1.0	H_027.jpg
246.92494010925293	1.222059965133667	why_hand	1.0	H_532.jpg
248.45885014533997		why_hand	0.0	H_189.jpg
250.49294018745422		why_hand	0.0	H_006.jpg
252.5270299911499	0.8702101707458496	why_hand	1.0	H_038.jpg
258.14579010009766	1.0348799228668213	how_hand	1.0	H_443.jpg
259.4962999820709	1.2687602043151855	how_hand	1.0	H_038.jpg
261.08021998405457	1.0685100555419922	how_hand	1.0	H_136.jpg
262.4640700817108	1.202199935913086	how_hand	1.0	H_012.jpg
263.9813001155853	0.8350298404693604	how_hand	1.0	H_362.jpg
265.1317300796509	1.0316998958587646	how_hand	1.0	H_189.jpg
266.4655599594116	1.185500144958496	how_hand	1.0	H_170.jpg
267.96612000465393	1.7337901592254639	how_hand	1.0	H_077.jpg
276.0191299915314	1.0188500881195068	how_face	0.0	F_716.jpg
277.3529601097107	1.5689399242401123	how_face	1.0	F_798.jpg
279.2369899749756	1.5438101291656494	how_face	1.0	F_760.jpg
281.08768010139465	1.2257699966430664	how_face	1.0	F_110.jpg
282.6215901374817	1.0353398323059082	how_face	0.0	F_779.jpg
283.97209000587463	0.8586001396179199	how_face	1.0	F_590.jpg
285.1391899585724	1.1849000453948975	how_face	1.0	F_111.jpg
286.6397500038147	0.8685901165008545	how_face	1.0	F_433.jpg
293.5590000152588		why_face	0.0	F_083.jpg
295.59309005737305		why_face	0.0	F_582.jpg
297.6271800994873	0.8864500522613525	why_face	1.0	F_618.jpg
298.8276300430298	1.3358399868011475	why_face	1.0	F_776.jpg
300.4782500267029	1.5852000713348389	why_face	1.0	F_598.jpg
302.3789601325989	1.4523098468780518	why_face	1.0	F_760.jpg
304.1462800502777	1.2350900173187256	why_face	1.0	F_412.jpg
305.69686007499695	1.2182199954986572	why_face	1.0	F_695.jpg
311.34897017478943		how_face	0.0	F_695.jpg
313.3830599784851	1.001500129699707	how_face	0.0	F_412.jpg
314.7002201080322	1.0353598594665527	how_face	0.0	F_593.jpg
316.05071997642517	0.6186301708221436	how_face	1.0	F_139.jpg
316.9844000339508	0.8296499252319336	how_face	1.0	F_712.jpg
318.11816000938416	0.7353999614715576	how_face	1.0	F_759.jpg
319.16855001449585	0.7854001522064209	how_face	1.0	F_758.jpg
320.2689599990845	0.6852500438690186	how_face	1.0	F_083.jpg
330.3894000053406	0.7847800254821777	why_face	1.0	F_779.jpg
331.4898099899292	0.7902200222015381	why_face	1.0	F_110.jpg
332.5902199745178	0.839820146560669	why_face	1.0	F_590.jpg
333.74065017700195	0.7850399017333984	why_face	1.0	F_648.jpg
334.8410601615906	0.8227498531341553	why_face	1.0	F_759.jpg
335.9748201370239	1.389050006866455	why_face	1.0	F_129.jpg
337.6754500865936	1.2712600231170654	why_face	1.0	F_593.jpg
339.2593801021576	1.0347700119018555	why_face	1.0	F_692.jpg
348.46281003952026		why_hand	0.0	H_364.jpg
350.4969000816345	1.1189301013946533	why_hand	1.0	H_007.jpg
351.9307701587677	0.8017199039459229	why_hand	1.0	H_167.jpg
353.0478501319885	0.935499906539917	why_hand	1.0	H_130.jpg
354.29832005500793	0.9517900943756104	why_hand	1.0	H_438.jpg
355.56545996665955	0.9817001819610596	why_hand	1.0	H_019.jpg
356.84927010536194	0.9353499412536621	why_hand	1.0	H_362.jpg
358.09974002838135	1.2849600315093994	why_hand	0.0	H_627.jpg
365.9860100746155	1.2610499858856201	how_hand	1.0	H_126.jpg
367.5532600879669	0.9601900577545166	how_hand	1.0	H_332.jpg
368.82039999961853	1.252000093460083	how_hand	1.0	H_261.jpg
370.38765001296997	1.559110164642334	how_hand	0.0	H_024.jpg
372.25501012802124	1.425959825515747	how_hand	1.0	H_502.jpg
373.98899006843567		how_hand	0.0	H_130.jpg
376.02309012413025	0.30728983879089355	how_hand	1.0	H_019.jpg
376.63998007774353	1.402129888534546	how_hand	1.0	H_483.jpg
383.87601017951965	1.521439790725708	how_face	1.0	F_590.jpg
385.71003007888794	1.6184799671173096	how_face	1.0	F_110.jpg
387.64409017562866	1.535949945449829	how_face	0.0	F_760.jpg
389.49478006362915	1.134850025177002	how_face	0.0	F_779.jpg
390.94532012939453	0.6687798500061035	how_face	1.0	F_433.jpg
391.9290201663971	1.4689598083496094	how_face	1.0	F_798.jpg
393.71302008628845	1.0681300163269043	how_face	1.0	F_716.jpg
395.0968701839447	1.468639850616455	how_face	1.0	F_111.jpg
401.71600008010864	1.181190013885498	why_face	1.0	F_403.jpg
403.19989013671875	0.985339879989624	why_face	1.0	F_139.jpg
404.50037002563477		why_face	0.0	F_743.jpg
406.534460067749		why_face	0.0	F_433.jpg
408.5685601234436	1.3852698802947998	why_face	1.0	F_716.jpg
410.2691900730133	0.8347198963165283	why_face	1.0	F_758.jpg
411.41962003707886	0.7771401405334473	why_face	1.0	F_844.jpg
412.5033600330353	0.7850401401519775	why_face	1.0	F_712.jpg
419.55598998069763	1.0907402038574219	why_hand	1.0	H_189.jpg
420.9565100669861	1.2186100482940674	why_hand	0.0	H_038.jpg
422.4904100894928	1.3355400562286377	why_hand	0.0	H_581.jpg
424.1410300731659	1.0391199588775635	why_hand	1.0	H_006.jpg
425.4915301799774	1.9602699279785156	why_hand	1.0	H_027.jpg
427.5256299972534	0.021610021591186523	why_hand	0.0	H_332.jpg
427.85908007621765	0.8883600234985352	why_hand	0.0	H_443.jpg
429.05953001976013	1.964750051498413	why_hand	1.0	H_532.jpg
437.06252002716064		how_hand	0.0	H_581.jpg
439.0966100692749	0.9850399494171143	how_hand	1.0	H_349.jpg
440.3970899581909	0.9518601894378662	how_hand	1.0	H_159.jpg
441.6642301082611	0.8345999717712402	how_hand	1.0	H_111.jpg
442.81466007232666	1.0353600978851318	how_hand	1.0	H_627.jpg
444.1651601791382		how_hand	0.0	H_167.jpg
446.1992599964142		how_hand	0.0	H_027.jpg
448.23335003852844	1.4304499626159668	how_hand	0.0	H_091.jpg
454.85248017311096	0.7115898132324219	why_hand	1.0	H_170.jpg
455.8695299625397	0.7610700130462646	why_hand	1.0	H_132.jpg
456.93658995628357	0.8354201316833496	why_hand	1.0	H_126.jpg
458.0870201587677		why_hand	0.0	H_003.jpg
460.1211099624634	0.8097701072692871	why_hand	1.0	H_502.jpg
461.2382001876831		why_hand	0.0	H_136.jpg
463.2722899913788		why_hand	0.0	H_483.jpg
465.30638003349304	0.6516799926757812	why_hand	1.0	H_261.jpg
472.7424900531769		how_hand	0.0	H_362.jpg
474.77658009529114	1.170180082321167	how_hand	1.0	H_012.jpg
476.26047015190125	0.8685598373413086	how_hand	1.0	H_136.jpg
477.4442400932312	1.1865198612213135	how_hand	1.0	H_189.jpg
478.9448001384735		how_hand	0.0	H_170.jpg
480.97889018058777	1.135239839553833	how_hand	0.0	H_077.jpg
482.42943000793457	1.1019599437713623	how_hand	1.0	H_443.jpg
483.84663009643555	1.1188900470733643	how_hand	1.0	H_038.jpg
490.81590008735657		how_face	0.0	F_403.jpg
492.8499901294708		how_face	0.0	F_086.jpg
494.8840801715851	0.6186099052429199	how_face	1.0	F_844.jpg
495.81775999069214	0.8185501098632812	how_face	1.0	F_544.jpg
496.9515199661255	0.9187700748443604	how_face	1.0	F_776.jpg
498.18531012535095		how_face	0.0	F_648.jpg
500.2194001674652		how_face	0.0	F_692.jpg
502.2534899711609		how_face	0.0	F_584.jpg
509.0393600463867	0.6080300807952881	why_face	1.0	F_582.jpg
509.95637011528015	1.5183100700378418	why_face	1.0	F_776.jpg
511.7903800010681	1.0566999912261963	why_face	1.0	F_598.jpg
513.1575601100922	0.839249849319458	why_face	1.0	F_412.jpg
514.3079900741577	0.9015300273895264	why_face	1.0	F_618.jpg
515.5251100063324	0.9221701622009277	why_face	1.0	F_083.jpg
516.7589001655579	1.2545599937438965	why_face	1.0	F_695.jpg
518.3261501789093		why_face	0.0	F_760.jpg
527.9964301586151		why_hand	0.0	H_024.jpg
530.047189950943		why_hand	0.0	H_474.jpg
532.0812799930573	1.0852000713348389	why_hand	1.0	H_349.jpg
533.481810092926	1.2686400413513184	why_hand	1.0	H_091.jpg
535.0657300949097	1.2021598815917969	why_hand	1.0	H_012.jpg
536.5829601287842		why_hand	0.0	H_077.jpg
538.6170501708984		why_hand	0.0	H_159.jpg
540.6511499881744		why_hand	0.0	H_111.jpg
546.2198901176453		how_hand	0.0	H_474.jpg
548.2539801597595	0.709630012512207	how_hand	1.0	H_003.jpg
549.2710301876068	1.4097199440002441	how_hand	1.0	H_132.jpg
550.9883301258087	0.8855299949645996	how_hand	1.0	H_364.jpg
552.1887800693512	0.8579399585723877	how_hand	1.0	H_006.jpg
553.355880022049	0.9188001155853271	how_hand	1.0	H_532.jpg
554.5896799564362	1.0241501331329346	how_hand	1.0	H_438.jpg
555.9235100746155	1.507200002670288	how_hand	0.0	H_007.jpg
565.1936299800873	0.8699400424957275	how_face	1.0	F_618.jpg
566.3774101734161	0.685999870300293	how_face	1.0	F_743.jpg
567.3777799606323	0.5856900215148926	how_face	1.0	F_598.jpg
568.2781200408936	0.935420036315918	how_face	1.0	F_774.jpg
569.5285801887512		how_face	0.0	F_129.jpg
571.5626699924469		how_face	0.0	F_128.jpg
573.5967600345612		how_face	0.0	F_582.jpg
575.6308600902557		how_face	0.0	F_754.jpg
583.9839701652527	1.9429500102996826	why_face	1.0	F_798.jpg
586.0180599689484	0.018200159072875977	why_face	0.0	F_128.jpg
586.3515200614929	1.0457401275634766	why_face	1.0	F_754.jpg
587.7020301818848	0.9689099788665771	why_face	1.0	F_544.jpg
588.9858400821686	0.7776401042938232	why_face	1.0	F_086.jpg
590.0695700645447	0.634929895401001	why_face	1.0	F_111.jpg
591.0199301242828	0.752079963684082	why_face	1.0	F_774.jpg
592.0869901180267	1.1353199481964111	why_face	1.0	F_584.jpg
5.965190172195435	1.0	buttonpress		F_759.jpg
6.987650156021118	1.0	buttonpress		F_412.jpg
8.221330165863037	1.0	buttonpress		F_593.jpg
10.031500101089478	1.0	buttonpress		F_712.jpg
11.174610137939453	1.0	buttonpress		F_695.jpg
12.080810070037842	1.0	buttonpress		F_139.jpg
12.947129964828491	1.0	buttonpress		F_083.jpg
13.896720170974731	1.0	buttonpress		F_758.jpg
25.060850143432617	1.0	buttonpress		F_593.jpg
26.230460166931152	1.0	buttonpress		F_129.jpg
27.564110040664673	1.0	buttonpress		F_759.jpg
28.611639976501465	1.0	buttonpress		F_692.jpg
29.67840003967285	1.0	buttonpress		F_779.jpg
30.779469966888428	1.0	buttonpress		F_590.jpg
31.897119998931885	1.0	buttonpress		F_648.jpg
32.83063006401062	1.0	buttonpress		F_110.jpg
43.9340500831604	1.0	buttonpress		H_261.jpg
45.5349600315094	1.0	buttonpress		H_170.jpg
46.75148010253906	1.0	buttonpress		H_483.jpg
48.052030086517334	1.0	buttonpress		H_132.jpg
49.486560106277466	1.0	buttonpress		H_136.jpg
50.71398997306824	1.0	buttonpress		H_003.jpg
51.93062996864319	1.0	buttonpress		H_126.jpg
53.380900144577026	1.0	buttonpress		H_502.jpg
66.98010015487671	1.0	buttonpress		H_003.jpg
68.14668011665344	1.0	buttonpress		H_364.jpg
69.41050004959106	1.0	buttonpress		H_532.jpg
70.61343002319336	1.0	buttonpress		H_006.jpg
72.28024005889893	1.0	buttonpress		H_438.jpg
73.48076009750366	1.0	buttonpress		H_007.jpg
	1.0	buttonpress		H_474.jpg
76.83072018623352	1.0	buttonpress		H_132.jpg
85.98357009887695	1.0	buttonpress		F_403.jpg
87.0830500125885	1.0	buttonpress		F_648.jpg
88.03345012664795	1.0	buttonpress		F_776.jpg
89.03439998626709	1.0	buttonpress		F_584.jpg
90.01772999763489	1.0	buttonpress		F_844.jpg
91.15120005607605	1.0	buttonpress		F_692.jpg
92.20235013961792	1.0	buttonpress		F_086.jpg
93.5191400051117	1.0	buttonpress		F_544.jpg
107.5640799999237	1.0	buttonpress		F_403.jpg
108.8078601360321	1.0	buttonpress		F_844.jpg
110.0086600780487	1.0	buttonpress		F_712.jpg
111.36399006843567	1.0	buttonpress		F_758.jpg
112.58092999458313	1.0	buttonpress		F_433.jpg
114.44665002822876	1.0	buttonpress		F_716.jpg
115.54706001281738	1.0	buttonpress		F_139.jpg
117.23001003265381	1.0	buttonpress		F_743.jpg
130.54513001441956	1.0	buttonpress		H_024.jpg
131.6809401512146	1.0	buttonpress		H_349.jpg
133.20081996917725	1.0	buttonpress		H_077.jpg
134.6681900024414	1.0	buttonpress		H_474.jpg
136.08470010757446	1.0	buttonpress		H_091.jpg
137.6351900100708	1.0	buttonpress		H_159.jpg
139.33665013313293	1.0	buttonpress		H_111.jpg
140.91409015655518	1.0	buttonpress		H_012.jpg
	1.0	buttonpress		H_111.jpg
148.92281007766724	1.0	buttonpress		H_027.jpg
150.16351008415222	1.0	buttonpress		H_091.jpg
151.547110080719	1.0	buttonpress		H_167.jpg
152.78008008003235	1.0	buttonpress		H_581.jpg
154.03064012527466	1.0	buttonpress		H_159.jpg
155.16348004341125	1.0	buttonpress		H_349.jpg
156.54703998565674	1.0	buttonpress		H_627.jpg
164.73065996170044	1.0	buttonpress		H_438.jpg
166.92768001556396	1.0	buttonpress		H_364.jpg
167.09747004508972	1.0	buttonpress		H_362.jpg
168.66349005699158	1.0	buttonpress		H_019.jpg
169.98117017745972	1.0	buttonpress		H_167.jpg
171.58177018165588	1.0	buttonpress		H_007.jpg
173.08175015449524	1.0	buttonpress		H_627.jpg
174.61570000648499	1.0	buttonpress		H_130.jpg
183.28562998771667	1.0	buttonpress		H_126.jpg
184.43678998947144	1.0	buttonpress		H_130.jpg
185.63654017448425	1.0	buttonpress		H_483.jpg
186.97029995918274	1.0	buttonpress		H_024.jpg
188.23040008544922	1.0	buttonpress		H_332.jpg
	1.0	buttonpress		H_019.jpg
	1.0	buttonpress		H_261.jpg
	1.0	buttonpress		H_502.jpg
204.8472499847412	1.0	buttonpress		F_618.jpg
205.89749002456665	1.0	buttonpress		F_754.jpg
206.9965901374817	1.0	buttonpress		F_129.jpg
207.87852001190186	1.0	buttonpress		F_598.jpg
208.96349000930786	1.0	buttonpress		F_128.jpg
210.28053998947144	1.0	buttonpress		F_582.jpg
211.74662017822266	1.0	buttonpress		F_774.jpg
213.91872000694275	1.0	buttonpress		F_743.jpg
223.5681300163269	1.0	buttonpress		F_798.jpg
225.2474000453949	1.0	buttonpress		F_086.jpg
226.40232014656067	1.0	buttonpress		F_544.jpg
227.3854501247406	1.0	buttonpress		F_754.jpg
228.46405005455017	1.0	buttonpress		F_111.jpg
229.71404004096985	1.0	buttonpress		F_584.jpg
231.4376301765442	1.0	buttonpress		F_128.jpg
232.5803701877594	1.0	buttonpress		F_774.jpg
241.62477016448975	1.0	buttonpress		H_581.jpg
243.38003015518188	1.0	buttonpress		H_443.jpg
244.93008017539978	1.0	buttonpress		H_332.jpg
246.61344003677368	1.0	buttonpress		H_027.jpg
248.1470000743866	1.0	buttonpress		H_532.jpg
	1.0	buttonpress		H_189.jpg
	1.0	buttonpress		H_006.jpg
253.39724016189575	1.0	buttonpress		H_038.jpg
259.1806700229645	1.0	buttonpress		H_443.jpg
260.7650601863861	1.0	buttonpress		H_038.jpg
262.14873003959656	1.0	buttonpress		H_136.jpg
263.6662700176239	1.0	buttonpress		H_012.jpg
264.8163299560547	1.0	buttonpress		H_362.jpg
266.16342997550964	1.0	buttonpress		H_189.jpg
267.6510601043701	1.0	buttonpress		H_170.jpg
269.6999101638794	1.0	buttonpress		H_077.jpg
277.0379800796509	1.0	buttonpress		F_716.jpg
278.9219000339508	1.0	buttonpress		F_798.jpg
280.78080010414124	1.0	buttonpress		F_760.jpg
282.3134500980377	1.0	buttonpress		F_110.jpg
283.6569299697876	1.0	buttonpress		F_779.jpg
284.83069014549255	1.0	buttonpress		F_590.jpg
286.3240900039673	1.0	buttonpress		F_111.jpg
287.50834012031555	1.0	buttonpress		F_433.jpg
	1.0	buttonpress		F_083.jpg
	1.0	buttonpress		F_582.jpg
298.51363015174866	1.0	buttonpress		F_618.jpg
300.16347002983093	1.0	buttonpress		F_776.jpg
302.0634500980377	1.0	buttonpress		F_598.jpg
303.83126997947693	1.0	buttonpress		F_760.jpg
305.38137006759644	1.0	buttonpress		F_412.jpg
306.9150800704956	1.0	buttonpress		F_695.jpg
	1.0	buttonpress		F_695.jpg
314.3845601081848	1.0	buttonpress		F_412.jpg
315.7355799674988	1.0	buttonpress		F_593.jpg
316.6693501472473	1.0	buttonpress		F_139.jpg
317.81404995918274	1.0	buttonpress		F_712.jpg
318.8535599708557	1.0	buttonpress		F_759.jpg
319.95395016670227	1.0	buttonpress		F_758.jpg
320.9542100429535	1.0	buttonpress		F_083.jpg
331.17418003082275	1.0	buttonpress		F_779.jpg
332.28003001213074	1.0	buttonpress		F_110.jpg
333.4300401210785	1.0	buttonpress		F_590.jpg
334.52569007873535	1.0	buttonpress		F_648.jpg
335.66381001472473	1.0	buttonpress		F_759.jpg
337.3638701438904	1.0	buttonpress		F_129.jpg
338.9467101097107	1.0	buttonpress		F_593.jpg
340.29415011405945	1.0	buttonpress		F_692.jpg
	1.0	buttonpress		H_364.jpg
351.6158301830292	1.0	buttonpress		H_007.jpg
352.7324900627136	1.0	buttonpress		H_167.jpg
353.98335003852844	1.0	buttonpress		H_130.jpg
355.25011014938354	1.0	buttonpress		H_438.jpg
356.5471601486206	1.0	buttonpress		H_019.jpg
357.7846200466156	1.0	buttonpress		H_362.jpg
359.38470005989075	1.0	buttonpress		H_627.jpg
367.2470600605011	1.0	buttonpress		H_126.jpg
368.51345014572144	1.0	buttonpress		H_332.jpg
370.0724000930786	1.0	buttonpress		H_261.jpg
371.9467601776123	1.0	buttonpress		H_024.jpg
373.680969953537	1.0	buttonpress		H_502.jpg
	1.0	buttonpress		H_130.jpg
376.33037996292114	1.0	buttonpress		H_019.jpg
378.0421099662781	1.0	buttonpress		H_483.jpg
385.39744997024536	1.0	buttonpress		F_590.jpg
387.32851004600525	1.0	buttonpress		F_110.jpg
389.1800401210785	1.0	buttonpress		F_760.jpg
390.62963008880615	1.0	buttonpress		F_779.jpg
391.61409997940063	1.0	buttonpress		F_433.jpg
393.3979799747467	1.0	buttonpress		F_798.jpg
394.78115010261536	1.0	buttonpress		F_716.jpg
396.56551003456116	1.0	buttonpress		F_111.jpg
402.89719009399414	1.0	buttonpress		F_403.jpg
404.1852300167084	1.0	buttonpress		F_139.jpg
	1.0	buttonpress		F_743.jpg
	1.0	buttonpress		F_433.jpg
409.9538300037384	1.0	buttonpress		F_716.jpg
411.10390996932983	1.0	buttonpress		F_758.jpg
412.1967601776123	1.0	buttonpress		F_844.jpg
413.28840017318726	1.0	buttonpress		F_712.jpg
420.64673018455505	1.0	buttonpress		H_189.jpg
422.17512011528015	1.0	buttonpress		H_038.jpg
423.82595014572144	1.0	buttonpress		H_581.jpg
425.18015003204346	1.0	buttonpress		H_006.jpg
427.45180010795593	1.0	buttonpress		H_027.jpg
427.5472400188446	1.0	buttonpress		H_332.jpg
428.7474400997162	1.0	buttonpress		H_443.jpg
431.02428007125854	1.0	buttonpress		H_532.jpg
	1.0	buttonpress		H_581.jpg
440.081650018692	1.0	buttonpress		H_349.jpg
441.3489501476288	1.0	buttonpress		H_159.jpg
442.49883008003235	1.0	buttonpress		H_111.jpg
443.8500201702118	1.0	buttonpress		H_627.jpg
	1.0	buttonpress		H_167.jpg
	1.0	buttonpress		H_027.jpg
449.6638000011444	1.0	buttonpress		H_091.jpg
455.5640699863434	1.0	buttonpress		H_170.jpg
456.63059997558594	1.0	buttonpress		H_132.jpg
457.7720100879669	1.0	buttonpress		H_126.jpg
	1.0	buttonpress		H_003.jpg
460.93088006973267	1.0	buttonpress		H_502.jpg
	1.0	buttonpress		H_136.jpg
	1.0	buttonpress		H_483.jpg
465.9580600261688	1.0	buttonpress		H_261.jpg
	1.0	buttonpress		H_362.jpg
475.9467601776123	1.0	buttonpress		H_012.jpg
477.12902998924255	1.0	buttonpress		H_136.jpg
478.6307599544525	1.0	buttonpress		H_189.jpg
	1.0	buttonpress		H_170.jpg
482.1141300201416	1.0	buttonpress		H_077.jpg
483.53138995170593	1.0	buttonpress		H_443.jpg
484.9655201435089	1.0	buttonpress		H_038.jpg
	1.0	buttonpress		F_403.jpg
	1.0	buttonpress		F_086.jpg
495.502690076828	1.0	buttonpress		F_844.jpg
496.6363101005554	1.0	buttonpress		F_544.jpg
497.87029004096985	1.0	buttonpress		F_776.jpg
	1.0	buttonpress		F_648.jpg
	1.0	buttonpress		F_692.jpg
	1.0	buttonpress		F_584.jpg
509.647390127182	1.0	buttonpress		F_582.jpg
511.474680185318	1.0	buttonpress		F_776.jpg
512.8470799922943	1.0	buttonpress		F_598.jpg
513.9968099594116	1.0	buttonpress		F_412.jpg
515.2095201015472	1.0	buttonpress		F_618.jpg
516.4472801685333	1.0	buttonpress		F_083.jpg
518.0134601593018	1.0	buttonpress		F_695.jpg
	1.0	buttonpress		F_760.jpg
	1.0	buttonpress		H_024.jpg
	1.0	buttonpress		H_474.jpg
533.1664800643921	1.0	buttonpress		H_349.jpg
534.7504501342773	1.0	buttonpress		H_091.jpg
536.2678899765015	1.0	buttonpress		H_012.jpg
	1.0	buttonpress		H_077.jpg
	1.0	buttonpress		H_159.jpg
	1.0	buttonpress		H_111.jpg
	1.0	buttonpress		H_474.jpg
548.9636101722717	1.0	buttonpress		H_003.jpg
550.680750131607	1.0	buttonpress		H_132.jpg
551.8738601207733	1.0	buttonpress		H_364.jpg
553.0467200279236	1.0	buttonpress		H_006.jpg
554.2746801376343	1.0	buttonpress		H_532.jpg
555.6138300895691	1.0	buttonpress		H_438.jpg
557.4307100772858	1.0	buttonpress		H_007.jpg
566.063570022583	1.0	buttonpress		F_618.jpg
567.0634100437164	1.0	buttonpress		F_743.jpg
567.9634699821472	1.0	buttonpress		F_598.jpg
569.2135400772095	1.0	buttonpress		F_774.jpg
	1.0	buttonpress		F_129.jpg
	1.0	buttonpress		F_128.jpg
	1.0	buttonpress		F_582.jpg
	1.0	buttonpress		F_754.jpg
585.9269201755524	1.0	buttonpress		F_798.jpg
586.0362601280212	1.0	buttonpress		F_128.jpg
587.3972601890564	1.0	buttonpress		F_754.jpg
588.6709401607513	1.0	buttonpress		F_544.jpg
589.7634801864624	1.0	buttonpress		F_086.jpg
590.7044999599457	1.0	buttonpress		F_111.jpg
591.7720100879669	1.0	buttonpress		F_774.jpg
593.2223100662231	1.0	buttonpress		F_584.jpg
