src_subject_id,session_id,run_id,param_counterbalance_ver,param_block_num,param_trial_num,param_cond_type_num,param_cond_type_string,param_normative_response,param_ques_type_string,param_image_num,param_image_filename,param_trigger_onset,param_start_biopac,event01_fixation,event01_fixation_dur,event01_blockquestion_onset,event01_block_isi_blacksreen,event01_blockquestion_dur,event02_image_onset,event02_image_dur,event03_response_onset,event03_response_key,event03_response_keyname,event03_RT,event04_shortquestion_onset,param_end_instruct_onset,param_experiment_duration,RAW_e1_fixation,RAW_e1_fixation_biopac,RAW_e1_blockquestion_onset,RAW_e1_blockquestion_onset_biopac,RAW_e1_block_isi_blacksreen,RAW_e2_image_onset,RAW_e2_image_onset_biopac,RAW_e3_response_onset,RAW_e4_shortquestion_onset,RAW_param_end_instruct_onset,accuracy
41,4,2,2,1,1,3,c3_HowFace,1,smiling?,115,F_695.jpg,1628536718.10211,1628536718.10448,0.0278642082214353,0.0361497402191162,0.0778827571868894,2.11197494506836,2.03409218788147,2.26202987670898,1.23379373550415,3.49727605819702,1,left,1.19458103179932,3.49582361221313,604.469940414429,607.229940414429,1628536720.88998,1628536720.89573,1628536720.94,1628536720.94208,1628536722.97409,1628536723.12414,1628536723.13506,1628536724.35939,1628536724.35794,1628537325.33205,1
41,4,2,2,1,2,3,c3_HowFace,2,smiling?,114,F_412.jpg,1628536718.10211,1628536718.10448,0.0278642082214353,0.0361497402191162,0.0778827571868894,2.11197494506836,0.3,3.81260942459106,1.13375520706177,4.95538591384888,3,right,1.12335109710693,4.94636463165283,604.469940414429,607.229940414429,1628536720.88998,1628536720.89573,1628536720.94,1628536720.94208,1628536722.97409,1628536724.67472,1628536724.67647,1628536725.8175,1628536725.80848,1628537325.33205,0
41,4,2,2,1,3,3,c3_HowFace,1,smiling?,117,F_593.jpg,1628536718.10211,1628536718.10448,0.0278642082214353,0.0361497402191162,0.0778827571868894,2.11197494506836,0.3,5.2631499671936,0.766952037811279,6.03191303253174,1,left,0.745771884918213,6.03010200500488,604.469940414429,607.229940414429,1628536720.88998,1628536720.89573,1628536720.94,1628536720.94208,1628536722.97409,1628536726.12526,1628536726.12718,1628536726.89403,1628536726.89222,1628537325.33205,1
41,4,2,2,1,4,3,c3_HowFace,1,smiling?,119,F_139.jpg,1628536718.10211,1628536718.10448,0.0278642082214353,0.0361497402191162,0.0778827571868894,2.11197494506836,0.3,6.34688710212708,0.933681726455688,7.28925990104675,1,left,0.925649881362915,7.28056882858276,604.469940414429,607.229940414429,1628536720.88998,1628536720.89573,1628536720.94,1628536720.94208,1628536722.97409,1628536727.209,1628536727.21118,1628536728.15137,1628536728.14268,1628537325.33205,1
41,4,2,2,1,5,3,c3_HowFace,2,smiling?,113,F_712.jpg,1628536718.10211,1628536718.10448,0.0278642082214353,0.0361497402191162,0.0778827571868894,2.11197494506836,0.3,7.59735368728638,0.766952514648438,8.37367199897766,3,right,0.745515108108521,8.36430620193481,604.469940414429,607.229940414429,1628536720.88998,1628536720.89573,1628536720.94,1628536720.94208,1628536722.97409,1628536728.45947,1628536728.46232,1628536729.23579,1628536729.22642,1628537325.33205,0
41,4,2,2,1,6,3,c3_HowFace,1,smiling?,118,F_759.jpg,1628536718.10211,1628536718.10448,0.0278642082214353,0.0361497402191162,0.0778827571868894,2.11197494506836,0.3,8.68109129905701,0.650241613388062,9.33930801391602,1,left,0.635290861129761,9.33133291244507,604.469940414429,607.229940414429,1628536720.88998,1628536720.89573,1628536720.94,1628536720.94208,1628536722.97409,1628536729.5432,1628536729.54534,1628536730.20142,1628536730.19345,1628537325.33205,1
41,4,2,2,1,7,3,c3_HowFace,2,smiling?,120,F_758.jpg,1628536718.10211,1628536718.10448,0.0278642082214353,0.0361497402191162,0.0778827571868894,2.11197494506836,0.3,9.64811824798584,0.750279903411865,10.3999509716034,3,right,0.730874061584473,10.3983981513977,604.469940414429,607.229940414429,1628536720.88998,1628536720.89573,1628536720.94,1628536720.94208,1628536722.97409,1628536730.51023,1628536730.51205,1628536731.26206,1628536731.26051,1628537325.33205,0
41,4,2,2,1,8,3,c3_HowFace,1,smiling?,116,F_083.jpg,1628536718.10211,1628536718.10448,0.0278642082214353,0.0361497402191162,0.0778827571868894,2.11197494506836,0.3,10.7151837253571,0.633569478988647,11.3505380058289,1,left,0.607702970504761,11.3487532043457,604.469940414429,607.229940414429,1628536720.88998,1628536720.89573,1628536720.94,1628536720.94208,1628536722.97409,1628536731.5773,1628536731.57881,1628536732.21265,1628536732.21087,1628537325.33205,1
41,4,2,2,2,1,1,c1_WhyFace,1,admiring?,4,F_779.jpg,1628536718.10211,1628536718.10448,11.465462436676,6.37560963630676,17.8511767292023,19.9519610309601,2.10078430175781,20.1020166778564,0.500186204910278,20.6054890060425,1,left,0.485383987426758,20.6022028827667,604.469940414429,607.229940414429,1628536732.32758,1628536732.33438,1628536738.71329,1628536738.71836,1628536740.81407,1628536740.96413,1628536740.96814,1628536741.4676,1628536741.46432,1628537325.33205,1
41,4,2,2,2,2,1,c1_WhyFace,2,admiring?,3,F_110.jpg,1628536718.10211,1628536718.10448,11.465462436676,6.37560963630676,17.8511767292023,19.9519610309601,0.3,20.9189879798889,0.616897106170654,21.5384790802002,3,right,0.597737073898315,21.5358850860596,604.469940414429,607.229940414429,1628536732.32758,1628536732.33438,1628536738.71329,1628536738.71836,1628536740.81407,1628536741.7811,1628536741.78445,1628536742.40059,1628536742.398,1628537325.33205,0
41,4,2,2,2,3,1,c1_WhyFace,1,admiring?,8,F_590.jpg,1628536718.10211,1628536718.10448,11.465462436676,6.37560963630676,17.8511767292023,19.9519610309601,0.3,21.852669467926,0.616895914077759,22.4721689128876,1,left,0.601486921310425,22.4695653820038,604.469940414429,607.229940414429,1628536732.32758,1628536732.33438,1628536738.71329,1628536738.71836,1628536740.81407,1628536742.71478,1628536742.7178,1628536743.33428,1628536743.33168,1628537325.33205,1
41,4,2,2,2,4,1,c1_WhyFace,1,admiring?,7,F_648.jpg,1628536718.10211,1628536718.10448,11.465462436676,6.37560963630676,17.8511767292023,19.9519610309601,0.3,22.7863511943817,0.650241851806641,23.4384689235687,1,left,0.63609790802002,23.4365930461884,604.469940414429,607.229940414429,1628536732.32758,1628536732.33438,1628536738.71329,1628536738.71836,1628536740.81407,1628536743.64846,1628536743.65117,1628536744.30058,1628536744.29871,1628537325.33205,1
41,4,2,2,2,5,1,c1_WhyFace,1,admiring?,5,F_759.jpg,1628536718.10211,1628536718.10448,11.465462436676,6.37560963630676,17.8511767292023,19.9519610309601,0.3,23.7533786201477,0.633569240570068,24.3889911079407,1,left,0.622613906860352,24.3869478607178,604.469940414429,607.229940414429,1628536732.32758,1628536732.33438,1628536738.71329,1628536738.71836,1628536740.81407,1628536744.61549,1628536744.6176,1628536745.2511,1628536745.24906,1628537325.33205,1
41,4,2,2,2,6,1,c1_WhyFace,2,admiring?,2,F_129.jpg,1628536718.10211,1628536718.10448,11.465462436676,6.37560963630676,17.8511767292023,19.9519610309601,0.3,24.70373295784,0.70026159286499,25.4055299663544,3,right,0.6906418800354,25.403994550705,604.469940414429,607.229940414429,1628536732.32758,1628536732.33438,1628536738.71329,1628536738.71836,1628536740.81407,1628536745.56585,1628536745.56777,1628536746.26764,1628536746.26611,1628537325.33205,0
41,4,2,2,2,7,1,c1_WhyFace,1,admiring?,1,F_593.jpg,1628536718.10211,1628536718.10448,11.465462436676,6.37560963630676,17.8511767292023,19.9519610309601,0.3,25.7207794094086,0.700260639190674,26.4219660663605,1,left,0.691274166107178,26.4210400485992,604.469940414429,607.229940414429,1628536732.32758,1628536732.33438,1628536738.71329,1628536738.71836,1628536740.81407,1628536746.58289,1628536746.58461,1628536747.28408,1628536747.28315,1628537325.33205,1
41,4,2,2,2,8,1,c1_WhyFace,2,admiring?,6,F_692.jpg,1628536718.10211,1628536718.10448,11.465462436676,6.37560963630676,17.8511767292023,19.9519610309601,0.3,26.7378246688843,1.03371858596802,27.7728080654144,3,right,1.02602505683899,27.7715432548523,604.469940414429,607.229940414429,1628536732.32758,1628536732.33438,1628536738.71329,1628536738.71836,1628536740.81407,1628536747.59994,1628536747.60134,1628536748.63492,1628536748.63366,1628537325.33205,0
41,4,2,2,3,1,2,c2_WhyHand,1,healthy?,23,H_364.jpg,1628536718.10211,1628536718.10448,27.8549077415466,9.04016017913818,36.9082841777802,39.009068479538,2.10078430175781,39.1591238880157,1.35050296783447,40.5225489044189,1,left,1.34143304824829,40.5096268558502,604.469940414429,607.229940414429,1628536748.71702,1628536748.7189,1628536757.7704,1628536757.77243,1628536759.87118,1628536760.02124,1628536760.02307,1628536761.38466,1628536761.37174,1628537325.33205,1
41,4,2,2,3,2,2,c2_WhyHand,2,healthy?,20,H_007.jpg,1628536718.10211,1628536718.10448,27.8549077415466,9.04016017913818,36.9082841777802,39.009068479538,0.3,40.8264117145538,1.70063447952271,42.5280671024323,3,right,1.68685388565063,42.5270461940765,604.469940414429,607.229940414429,1628536748.71702,1628536748.7189,1628536757.7704,1628536757.77243,1628536759.87118,1628536761.68852,1628536761.69029,1628536763.39018,1628536763.38916,1628537325.33205,0
41,4,2,2,3,3,2,c2_WhyHand,1,healthy?,19,H_167.jpg,1628536718.10211,1628536718.10448,27.8549077415466,9.04016017913818,36.9082841777802,39.009068479538,0.3,42.8438303375244,1.03371977806091,43.888472070694,1,left,1.02101898193359,43.8775501155853,604.469940414429,607.229940414429,1628536748.71702,1628536748.7189,1628536757.7704,1628536757.77243,1628536759.87118,1628536763.70594,1628536763.70762,1628536764.75059,1628536764.73966,1628537325.33205,1
41,4,2,2,3,4,2,c2_WhyHand,2,healthy?,22,H_130.jpg,1628536718.10211,1628536718.10448,27.8549077415466,9.04016017913818,36.9082841777802,39.009068479538,0.3,44.1943352127075,0.90033483505249,45.1057820224762,3,right,0.888118028640747,45.09467004776,604.469940414429,607.229940414429,1628536748.71702,1628536748.7189,1628536757.7704,1628536757.77243,1628536759.87118,1628536765.05645,1628536765.0582,1628536765.9679,1628536765.95678,1628537325.33205,0
41,4,2,2,3,5,2,c2_WhyHand,1,healthy?,18,H_438.jpg,1628536718.10211,1628536718.10448,27.8549077415466,9.04016017913818,36.9082841777802,39.009068479538,0.3,45.4114544296265,1.21712207794189,46.6384730243683,1,left,1.21004295349121,46.6285765075684,604.469940414429,607.229940414429,1628536748.71702,1628536748.7189,1628536757.7704,1628536757.77243,1628536759.87118,1628536766.27357,1628536766.27536,1628536767.50059,1628536767.49069,1628537325.33205,1
41,4,2,2,3,6,2,c2_WhyHand,2,healthy?,24,H_019.jpg,1628536718.10211,1628536718.10448,27.8549077415466,9.04016017913818,36.9082841777802,39.009068479538,0.3,46.9453608894348,0.983699798583984,47.9390931034088,3,right,0.967278003692627,47.9290606880188,604.469940414429,607.229940414429,1628536748.71702,1628536748.7189,1628536757.7704,1628536757.77243,1628536759.87118,1628536767.80747,1628536767.80948,1628536768.80121,1628536768.79117,1628537325.33205,0
41,4,2,2,3,7,2,c2_WhyHand,1,healthy?,17,H_362.jpg,1628536718.10211,1628536718.10448,27.8549077415466,9.04016017913818,36.9082841777802,39.009068479538,0.3,48.245845785141,0.866990327835083,49.113899936676,1,left,0.849406003952026,49.1128361129761,604.469940414429,607.229940414429,1628536748.71702,1628536748.7189,1628536757.7704,1628536757.77243,1628536759.87118,1628536769.10796,1628536769.10964,1628536769.97601,1628536769.97495,1628537325.33205,1
41,4,2,2,3,8,2,c2_WhyHand,1,healthy?,21,H_627.jpg,1628536718.10211,1628536718.10448,27.8549077415466,9.04016017913818,36.9082841777802,39.009068479538,0.3,49.4296209716797,0.88366174697876,50.3217699432373,1,left,0.874496936798096,50.3132827186584,604.469940414429,607.229940414429,1628536748.71702,1628536748.7189,1628536757.7704,1628536757.77243,1628536759.87118,1628536770.29173,1628536770.29311,1628536771.18388,1628536771.1754,1628537325.33205,1
41,4,2,2,4,1,4,c4_HowHand,1,pressing button?,82,H_126.jpg,1628536718.10211,1628536718.10448,50.4299929046631,5.42912101745605,55.8653542900085,57.9661369228363,2.10078263282776,58.1161930465698,0.633569955825806,58.7557010555267,1,left,0.6199049949646,58.7497630023956,604.469940414429,607.229940414429,1628536771.29211,1628536771.29447,1628536776.72747,1628536776.73501,1628536778.82825,1628536778.97831,1628536778.98464,1628536779.61781,1628536779.61188,1628537325.33205,1
41,4,2,2,4,2,4,c4_HowHand,1,pressing button?,86,H_332.jpg,1628536718.10211,1628536718.10448,50.4299929046631,5.42912101745605,55.8653542900085,57.9661369228363,0.3,59.0665480995178,0.65024209022522,59.7226180934906,1,left,0.635828018188477,59.716790189743,604.469940414429,607.229940414429,1628536771.29211,1628536771.29447,1628536776.72747,1628536776.73501,1628536778.82825,1628536779.92866,1628536779.93069,1628536780.58473,1628536780.5789,1628537325.33205,1
41,4,2,2,4,3,4,c4_HowHand,2,pressing button?,81,H_261.jpg,1628536718.10211,1628536718.10448,50.4299929046631,5.42912101745605,55.8653542900085,57.9661369228363,0.3,60.0335750484467,0.866989850997925,60.9057810211182,3,right,0.849087953567505,60.9005648994446,604.469940414429,607.229940414429,1628536771.29211,1628536771.29447,1628536776.72747,1628536776.73501,1628536778.82825,1628536780.89569,1628536780.89747,1628536781.76789,1628536781.76268,1628537325.33205,0
41,4,2,2,4,4,4,c4_HowHand,2,pressing button?,87,H_024.jpg,1628536718.10211,1628536718.10448,50.4299929046631,5.42912101745605,55.8653542900085,57.9661369228363,0.3,61.217349281311,1.00037264823914,62.2189159297943,3,right,0.975866079330444,62.2177219295502,604.469940414429,607.229940414429,1628536771.29211,1628536771.29447,1628536776.72747,1628536776.73501,1628536778.82825,1628536782.07946,1628536782.08443,1628536783.08103,1628536783.07983,1628537325.33205,0
41,4,2,2,4,5,4,c4_HowHand,1,pressing button?,83,H_502.jpg,1628536718.10211,1628536718.10448,50.4299929046631,5.42912101745605,55.8653542900085,57.9661369228363,0.3,62.5345084571838,0.783624887466431,63.3217580223084,1,left,0.767762899398804,63.3181333446503,604.469940414429,607.229940414429,1628536771.29211,1628536771.29447,1628536776.72747,1628536776.73501,1628536778.82825,1628536783.39662,1628536783.40141,1628536784.18387,1628536784.18025,1628537325.33205,1
41,4,2,2,4,6,4,c4_HowHand,2,pressing button?,85,H_130.jpg,1628536718.10211,1628536718.10448,50.4299929046631,5.42912101745605,55.8653542900085,57.9661369228363,0.3,63.6349182033539,0.800297498703003,64.4362718963623,3,right,0.775236845016479,64.4352157020569,604.469940414429,607.229940414429,1628536771.29211,1628536771.29447,1628536776.72747,1628536776.73501,1628536778.82825,1628536784.49703,1628536784.50121,1628536785.29838,1628536785.29733,1628537325.33205,0
41,4,2,2,4,7,4,c4_HowHand,1,pressing button?,88,H_019.jpg,1628536718.10211,1628536718.10448,50.4299929046631,5.42912101745605,55.8653542900085,57.9661369228363,0.3,64.7520010375977,0.666915416717529,65.4219169521332,1,left,0.654191017150879,65.4189164543152,604.469940414429,607.229940414429,1628536771.29211,1628536771.29447,1628536776.72747,1628536776.73501,1628536778.82825,1628536785.61411,1628536785.61761,1628536786.28403,1628536786.28103,1628537325.33205,1
41,4,2,2,4,8,4,c4_HowHand,1,pressing button?,84,H_483.jpg,1628536718.10211,1628536718.10448,50.4299929046631,5.42912101745605,55.8653542900085,57.9661369228363,0.3,65.7357008361816,0.666915893554688,66.4036400222778,1,left,0.643104076385498,66.4026167297363,604.469940414429,607.229940414429,1628536771.29211,1628536771.29447,1628536776.72747,1628536776.73501,1628536778.82825,1628536786.59781,1628536786.60105,1628536787.26575,1628536787.26473,1628537325.33205,1
41,4,2,2,5,1,3,c3_HowFace,1,looking to side?,72,F_590.jpg,1628536718.10211,1628536718.10448,66.4693078899383,7.18375515937805,73.6719944381714,75.7561046981811,2.08411026000977,75.9061605834961,0.700261831283569,76.6081008815765,1,left,0.678995847702026,76.6064224147797,604.469940414429,607.229940414429,1628536787.33142,1628536787.33466,1628536794.53411,1628536794.53725,1628536796.61822,1628536796.76827,1628536796.7697,1628536797.47021,1628536797.46854,1628537325.33205,1
41,4,2,2,5,2,3,c3_HowFace,1,looking to side?,69,F_110.jpg,1628536718.10211,1628536718.10448,66.4693078899383,7.18375515937805,73.6719944381714,75.7561046981811,0.3,76.9232067966461,0.833643913269043,77.7578420543671,3,right,0.822472095489502,77.7568507099152,604.469940414429,607.229940414429,1628536787.33142,1628536787.33466,1628536794.53411,1628536794.53725,1628536796.61822,1628536797.78532,1628536797.78727,1628536798.61996,1628536798.61896,1628537325.33205,0
41,4,2,2,5,3,3,c3_HowFace,1,looking to side?,68,F_760.jpg,1628536718.10211,1628536718.10448,66.4693078899383,7.18375515937805,73.6719944381714,75.7561046981811,0.3,78.073634853363,0.750280141830444,78.8252980613708,1,left,0.728585958480835,78.8239149951935,604.469940414429,607.229940414429,1628536787.33142,1628536787.33466,1628536794.53411,1628536794.53725,1628536796.61822,1628536798.93575,1628536798.93783,1628536799.68741,1628536799.68603,1628537325.33205,1
41,4,2,2,5,4,3,c3_HowFace,2,looking to side?,70,F_779.jpg,1628536718.10211,1628536718.10448,66.4693078899383,7.18375515937805,73.6719944381714,75.7561046981811,0.3,79.1407008075714,0.933680534362793,80.0884950065613,3,right,0.923922061920166,80.0743813419342,604.469940414429,607.229940414429,1628536787.33142,1628536787.33466,1628536794.53411,1628536794.53725,1628536796.61822,1628536800.00281,1628536800.00462,1628536800.95061,1628536800.93649,1628537325.33205,0
41,4,2,2,5,5,3,c3_HowFace,1,looking to side?,71,F_433.jpg,1628536718.10211,1628536718.10448,66.4693078899383,7.18375515937805,73.6719944381714,75.7561046981811,0.3,80.3911664390564,0.750282287597656,81.1551051044464,1,left,0.742296934127808,81.141448726654,604.469940414429,607.229940414429,1628536787.33142,1628536787.33466,1628536794.53411,1628536794.53725,1628536796.61822,1628536801.25328,1628536801.25484,1628536802.01722,1628536802.00356,1628537325.33205,1
41,4,2,2,5,6,3,c3_HowFace,2,looking to side?,65,F_798.jpg,1628536718.10211,1628536718.10448,66.4693078899383,7.18375515937805,73.6719944381714,75.7561046981811,0.3,81.4582314395904,0.766952276229858,82.226918926239,3,right,0.748586893081665,82.2251837158203,604.469940414429,607.229940414429,1628536787.33142,1628536787.33466,1628536794.53411,1628536794.53725,1628536796.61822,1628536802.32034,1628536802.32201,1628536803.08903,1628536803.0873,1628537325.33205,0
41,4,2,2,5,7,3,c3_HowFace,1,looking to side?,67,F_716.jpg,1628536718.10211,1628536718.10448,66.4693078899383,7.18375515937805,73.6719944381714,75.7561046981811,0.3,82.5419671440124,0.61689829826355,83.1605279350281,1,left,0.603268146514893,83.158865442276,604.469940414429,607.229940414429,1628536787.33142,1628536787.33466,1628536794.53411,1628536794.53725,1628536796.61822,1628536803.40408,1628536803.40564,1628536804.02264,1628536804.02098,1628537325.33205,1
41,4,2,2,5,8,3,c3_HowFace,2,looking to side?,66,F_111.jpg,1628536718.10211,1628536718.10448,66.4693078899383,7.18375515937805,73.6719944381714,75.7561046981811,0.3,83.4756495857239,1.2504665851593,84.7271349334717,3,right,1.23769593238831,84.7261161708832,604.469940414429,607.229940414429,1628536787.33142,1628536787.33466,1628536794.53411,1628536794.53725,1628536796.61822,1628536804.33776,1628536804.3396,1628536805.58925,1628536805.58823,1628537325.33205,0
41,4,2,2,6,1,1,c1_WhyFace,1,argument?,42,F_403.jpg,1628536718.10211,1628536718.10448,84.7928080463409,7.91014289855957,92.7124276065826,94.813212146759,2.10078454017639,94.9632677936554,0.68358850479126,95.6559669876099,1,left,0.666847944259644,95.6468562984467,604.469940414429,607.229940414429,1628536805.65492,1628536805.66784,1628536813.57454,1628536813.5847,1628536815.67533,1628536815.82538,1628536815.83477,1628536816.51808,1628536816.50897,1628537325.33205,1
41,4,2,2,6,2,1,c1_WhyFace,2,argument?,44,F_139.jpg,1628536718.10211,1628536718.10448,84.7928080463409,7.91014289855957,92.7124276065826,94.813212146759,0.3,95.9636409187317,0.633569002151489,96.5990528964996,3,right,0.611862897872925,96.5972099208832,604.469940414429,607.229940414429,1628536805.65492,1628536805.66784,1628536813.57454,1628536813.5847,1628536815.67533,1628536816.82575,1628536816.82761,1628536817.46117,1628536817.45932,1628537325.33205,0
41,4,2,2,6,3,1,c1_WhyFace,1,argument?,47,F_743.jpg,1628536718.10211,1628536718.10448,84.7928080463409,7.91014289855957,92.7124276065826,94.813212146759,0.3,96.9139945411682,0.716934204101562,97.632725944519,1,left,0.693686962127686,97.6309287452698,604.469940414429,607.229940414429,1628536805.65492,1628536805.66784,1628536813.57454,1628536813.5847,1628536815.67533,1628536817.77611,1628536817.77798,1628536818.49484,1628536818.49304,1628537325.33205,1
41,4,2,2,6,4,1,c1_WhyFace,2,argument?,45,F_433.jpg,1628536718.10211,1628536718.10448,84.7928080463409,7.91014289855957,92.7124276065826,94.813212146759,0.3,97.9477140808105,0.666914701461792,98.6157750988007,3,right,0.648862838745117,98.6146287822723,604.469940414429,607.229940414429,1628536805.65492,1628536805.66784,1628536813.57454,1628536813.5847,1628536815.67533,1628536818.80983,1628536818.81161,1628536819.47789,1628536819.47674,1628537325.33205,0
41,4,2,2,6,5,1,c1_WhyFace,1,argument?,43,F_716.jpg,1628536718.10211,1628536718.10448,84.7928080463409,7.91014289855957,92.7124276065826,94.813212146759,0.3,98.9314134025574,1.18377590179443,100.121911993027,1,left,1.17361092567444,100.115189304352,604.469940414429,607.229940414429,1628536805.65492,1628536805.66784,1628536813.57454,1628536813.5847,1628536815.67533,1628536819.79353,1628536819.79512,1628536820.98403,1628536820.9773,1628537325.33205,1
41,4,2,2,6,6,1,c1_WhyFace,1,argument?,48,F_758.jpg,1628536718.10211,1628536718.10448,84.7928080463409,7.91014289855957,92.7124276065826,94.813212146759,0.3,100.431973209381,0.917009353637695,101.355990877151,1,left,0.904099941253662,101.348982563019,604.469940414429,607.229940414429,1628536805.65492,1628536805.66784,1628536813.57454,1628536813.5847,1628536815.67533,1628536821.29409,1628536821.2957,1628536822.2181,1628536822.2111,1628537325.33205,1
41,4,2,2,6,7,1,c1_WhyFace,2,argument?,46,F_844.jpg,1628536718.10211,1628536718.10448,84.7928080463409,7.91014289855957,92.7124276065826,94.813212146759,0.3,101.665767183304,0.783626079559326,102.455921878815,3,right,0.768079042434692,102.449393262863,604.469940414429,607.229940414429,1628536805.65492,1628536805.66784,1628536813.57454,1628536813.5847,1628536815.67533,1628536822.52788,1628536822.52933,1628536823.31803,1628536823.31151,1628537325.33205,0
41,4,2,2,6,8,1,c1_WhyFace,1,argument?,41,F_712.jpg,1628536718.10211,1628536718.10448,84.7928080463409,7.91014289855957,92.7124276065826,94.813212146759,0.3,102.766177883148,0.716933250427246,103.489954938889,1,left,0.705131053924561,103.483111133575,604.469940414429,607.229940414429,1628536805.65492,1628536805.66784,1628536813.57454,1628536813.5847,1628536815.67533,1628536823.62829,1628536823.63007,1628536824.35207,1628536824.34522,1628537325.33205,1
41,4,2,2,7,1,2,c2_WhyHand,1,self-protection?,94,H_189.jpg,1628536718.10211,1628536718.10448,103.549803247452,11.6350946426392,115.204149713516,117.288259735107,2.08411002159119,117.438315620422,1.31715846061707,118.757380952835,1,left,1.27888798713684,118.755474081039,604.469940414429,607.229940414429,1628536824.41192,1628536824.41718,1628536836.06626,1628536836.06818,1628536838.15037,1628536838.30043,1628536838.31793,1628536839.61949,1628536839.61759,1628537325.33205,1
41,4,2,2,7,2,2,c2_WhyHand,1,self-protection?,93,H_038.jpg,1628536718.10211,1628536718.10448,103.549803247452,11.6350946426392,115.204149713516,117.288259735107,0.3,119.07225774765,1.06706523895264,120.140783061981,1,left,1.05281400680542,120.139322986603,604.469940414429,607.229940414429,1628536824.41192,1628536824.41718,1628536836.06626,1628536836.06818,1628536838.15037,1628536839.93437,1628536839.93598,1628536841.0029,1628536841.00144,1628537325.33205,1
41,4,2,2,7,3,2,c2_WhyHand,1,self-protection?,91,H_581.jpg,1628536718.10211,1628536718.10448,103.549803247452,11.6350946426392,115.204149713516,117.288259735107,0.3,120.456107368469,1.21712064743042,121.688704004288,3,right,1.20832514762878,121.6732280159,604.469940414429,607.229940414429,1628536824.41192,1628536824.41718,1628536836.06626,1628536836.06818,1628536838.15037,1628536841.31822,1628536841.31974,1628536842.55082,1628536842.53534,1628537325.33205,0
41,4,2,2,7,4,2,c2_WhyHand,2,self-protection?,90,H_006.jpg,1628536718.10211,1628536718.10448,103.549803247452,11.6350946426392,115.204149713516,117.288259735107,0.3,121.990012874603,1.65061521530151,123.641630878448,3,right,1.63738512992859,123.640628089905,604.469940414429,607.229940414429,1628536824.41192,1628536824.41718,1628536836.06626,1628536836.06818,1628536838.15037,1628536842.85213,1628536842.85347,1628536844.50374,1628536844.50274,1628537325.33205,0
41,4,2,2,7,5,2,c2_WhyHand,1,self-protection?,96,H_027.jpg,1628536718.10211,1628536718.10448,103.549803247452,11.6350946426392,115.204149713516,117.288259735107,0.3,123.957413187027,1.06706500053406,125.026125898361,1,left,1.04994821548462,125.024478187561,604.469940414429,607.229940414429,1628536824.41192,1628536824.41718,1628536836.06626,1628536836.06818,1628536838.15037,1628536844.81953,1628536844.82085,1628536845.88824,1628536845.88659,1628537325.33205,1
41,4,2,2,7,6,2,c2_WhyHand,2,self-protection?,95,H_332.jpg,1628536718.10211,1628536718.10448,103.549803247452,11.6350946426392,115.204149713516,117.288259735107,0.3,125.341262807846,1.08373689651489,126.426629056931,3,right,1.05957293510437,126.424999704361,604.469940414429,607.229940414429,1628536824.41192,1628536824.41718,1628536836.06626,1628536836.06818,1628536838.15037,1628536846.20338,1628536846.20503,1628536847.28874,1628536847.28711,1628537325.33205,0
41,4,2,2,7,7,2,c2_WhyHand,1,self-protection?,89,H_443.jpg,1628536718.10211,1628536718.10448,103.549803247452,11.6350946426392,115.204149713516,117.288259735107,0.3,126.74178527832,1.15042877197266,127.893352022171,1,left,1.13478302955627,127.892214050293,604.469940414429,607.229940414429,1628536824.41192,1628536824.41718,1628536836.06626,1628536836.06818,1628536838.15037,1628536847.6039,1628536847.60568,1628536848.75547,1628536848.75433,1628537325.33205,1
41,4,2,2,7,8,2,c2_WhyHand,2,self-protection?,92,H_532.jpg,1628536718.10211,1628536718.10448,103.549803247452,11.6350946426392,115.204149713516,117.288259735107,0.3,128.208998908997,1.31715798377991,129.527901878357,3,right,1.29656887054443,129.526156892776,604.469940414429,607.229940414429,1628536824.41192,1628536824.41718,1628536836.06626,1628536836.06818,1628536838.15037,1628536849.07111,1628536849.07274,1628536850.39001,1628536850.38827,1628537325.33205,0
41,4,2,2,8,1,4,c4_HowHand,1,both hands?,124,H_581.jpg,1628536718.10211,1628536718.10448,129.592848291397,3.43203067779541,133.044134845734,135.128246297836,2.08411145210266,135.278299798965,1.11708545684814,136.396464099884,1,left,1.08994293212891,136.395385255814,604.469940414429,607.229940414429,1628536850.45496,1628536850.46792,1628536853.90625,1628536853.90811,1628536855.99036,1628536856.14041,1628536856.15171,1628536857.25858,1628536857.2575,1628537325.33205,1
41,4,2,2,8,2,4,c4_HowHand,1,both hands?,127,H_349.jpg,1628536718.10211,1628536718.10448,129.592848291397,3.43203067779541,133.044134845734,135.128246297836,0.3,136.712170114517,0.866990566253662,137.588462104797,1,left,0.85149884223938,137.579160680771,604.469940414429,607.229940414429,1628536850.45496,1628536850.46792,1628536853.90625,1628536853.90811,1628536855.99036,1628536857.57428,1628536857.57628,1628536858.45058,1628536858.44127,1628537325.33205,1
41,4,2,2,8,3,4,c4_HowHand,2,both hands?,126,H_159.jpg,1628536718.10211,1628536718.10448,129.592848291397,3.43203067779541,133.044134845734,135.128246297836,0.3,137.8959445858,0.800297737121582,138.705104103088,3,right,0.785293102264404,138.696242322922,604.469940414429,607.229940414429,1628536850.45496,1628536850.46792,1628536853.90625,1628536853.90811,1628536855.99036,1628536858.75806,1628536858.75975,1628536859.56722,1628536859.55836,1628537325.33205,0
41,4,2,2,8,4,4,c4_HowHand,1,both hands?,122,H_111.jpg,1628536718.10211,1628536718.10448,129.592848291397,3.43203067779541,133.044134845734,135.128246297836,0.3,139.013027420044,1.08373785018921,140.105776062012,1,left,1.06796097755432,140.096765270233,604.469940414429,607.229940414429,1628536850.45496,1628536850.46792,1628536853.90625,1628536853.90811,1628536855.99036,1628536859.87514,1628536859.87675,1628536860.96789,1628536860.95888,1628537325.33205,1
41,4,2,2,8,5,4,c4_HowHand,2,both hands?,125,H_627.jpg,1628536718.10211,1628536718.10448,129.592848291397,3.43203067779541,133.044134845734,135.128246297836,0.3,140.413550367355,0.983700752258301,141.39887594223,3,right,0.961278915405273,141.397251119614,604.469940414429,607.229940414429,1628536850.45496,1628536850.46792,1628536853.90625,1628536853.90811,1628536855.99036,1628536861.27566,1628536861.2772,1628536862.26099,1628536862.25936,1628537325.33205,0
41,4,2,2,8,6,4,c4_HowHand,1,both hands?,123,H_167.jpg,1628536718.10211,1628536718.10448,129.592848291397,3.43203067779541,133.044134845734,135.128246297836,0.3,141.714035263062,1.28381156921387,143.00588010788,1,left,1.27011299133301,142.997846832275,604.469940414429,607.229940414429,1628536850.45496,1628536850.46792,1628536853.90625,1628536853.90811,1628536855.99036,1628536862.57615,1628536862.57776,1628536863.86799,1628536863.85996,1628537325.33205,1
41,4,2,2,8,7,4,c4_HowHand,1,both hands?,128,H_027.jpg,1628536718.10211,1628536718.10448,129.592848291397,3.43203067779541,133.044134845734,135.128246297836,0.3,143.314631929398,1.08373761177063,144.399468889236,1,left,1.06535792350769,144.398369541168,604.469940414429,607.229940414429,1628536850.45496,1628536850.46792,1628536853.90625,1628536853.90811,1628536855.99036,1628536864.17674,1628536864.17865,1628536865.26158,1628536865.26048,1628537325.33205,1
41,4,2,2,8,8,4,c4_HowHand,2,both hands?,121,H_091.jpg,1628536718.10211,1628536718.10448,129.592848291397,3.43203067779541,133.044134845734,135.128246297836,0.3,144.715154876709,0.866990089416504,145.588962068558,3,right,0.852691888809204,145.582144966125,604.469940414429,607.229940414429,1628536850.45496,1628536850.46792,1628536853.90625,1628536853.90811,1628536855.99036,1628536865.57727,1628536865.57902,1628536866.45108,1628536866.44426,1628537325.33205,0
41,4,2,2,9,1,2,c2_WhyHand,1,competing?,15,H_170.jpg,1628536718.10211,1628536718.10448,145.648835887909,5.16612315177917,150.834102621079,152.918213357925,2.08411073684692,153.068269720078,0.733606338500977,153.805149068832,1,left,0.715458869934082,153.801876058579,604.469940414429,607.229940414429,1628536866.51095,1628536866.51763,1628536871.69622,1628536871.69863,1628536873.78033,1628536873.93038,1628536873.93473,1628536874.66726,1628536874.66399,1628537325.33205,1
41,4,2,2,9,2,2,c2_WhyHand,1,competing?,14,H_132.jpg,1628536718.10211,1628536718.10448,145.648835887909,5.16612315177917,150.834102621079,152.918213357925,0.3,154.118661394119,0.850316047668457,154.972156991959,1,left,0.834326982498169,154.968977441788,604.469940414429,607.229940414429,1628536866.51095,1628536866.51763,1628536871.69622,1628536871.69863,1628536873.78033,1628536874.98077,1628536874.9845,1628536875.83427,1628536875.83109,1628537325.33205,1
41,4,2,2,9,3,2,c2_WhyHand,2,competing?,10,H_126.jpg,1628536718.10211,1628536718.10448,145.648835887909,5.16612315177917,150.834102621079,152.918213357925,0.3,155.285763492584,0.716933488845825,156.005767097473,3,right,0.699952840805054,156.00269698143,604.469940414429,607.229940414429,1628536866.51095,1628536866.51763,1628536871.69622,1628536871.69863,1628536873.78033,1628536876.14788,1628536876.15089,1628536876.86788,1628536876.86481,1628537325.33205,0
41,4,2,2,9,4,2,c2_WhyHand,1,competing?,13,H_003.jpg,1628536718.10211,1628536718.10448,145.648835887909,5.16612315177917,150.834102621079,152.918213357925,0.3,156.319482078552,0.866989850997925,157.188842048645,1,left,0.857379198074341,157.18647192955,604.469940414429,607.229940414429,1628536866.51095,1628536866.51763,1628536871.69622,1628536871.69863,1628536873.78033,1628536877.1816,1628536877.18472,1628536878.05096,1628536878.04858,1628537325.33205,1
41,4,2,2,9,5,2,c2_WhyHand,2,competing?,11,H_502.jpg,1628536718.10211,1628536718.10448,145.648835887909,5.16612315177917,150.834102621079,152.918213357925,0.3,157.50325750351,0.733605146408081,158.238922109604,3,right,0.715384006500244,158.236862649918,604.469940414429,607.229940414429,1628536866.51095,1628536866.51763,1628536871.69622,1628536871.69863,1628536873.78033,1628536878.36537,1628536878.36802,1628536879.10104,1628536879.09898,1628537325.33205,0
41,4,2,2,9,6,2,c2_WhyHand,1,competing?,16,H_136.jpg,1628536718.10211,1628536718.10448,145.648835887909,5.16612315177917,150.834102621079,152.918213357925,0.3,158.553648700714,1.13375544548035,159.688492050171,1,left,1.1125659942627,159.687404146194,604.469940414429,607.229940414429,1628536866.51095,1628536866.51763,1628536871.69622,1628536871.69863,1628536873.78033,1628536879.41576,1628536879.4176,1628536880.55061,1628536880.54952,1628537325.33205,1
41,4,2,2,9,7,2,c2_WhyHand,2,competing?,12,H_483.jpg,1628536718.10211,1628536718.10448,145.648835887909,5.16612315177917,150.834102621079,152.918213357925,0.3,160.004189004898,1.00037312507629,161.005604019165,3,right,0.984498023986816,161.004562129974,604.469940414429,607.229940414429,1628536866.51095,1628536866.51763,1628536871.69622,1628536871.69863,1628536873.78033,1628536880.8663,1628536880.86804,1628536881.86772,1628536881.86668,1628537325.33205,0
41,4,2,2,9,8,2,c2_WhyHand,1,competing?,9,H_261.jpg,1628536718.10211,1628536718.10448,145.648835887909,5.16612315177917,150.834102621079,152.918213357925,0.3,161.321347227097,0.866989850997925,162.189388980865,1,left,0.858532190322876,162.188337078094,604.469940414429,607.229940414429,1628536866.51095,1628536866.51763,1628536871.69622,1628536871.69863,1628536873.78033,1628536882.18346,1628536882.18496,1628536883.0515,1628536883.05045,1628537325.33205,1
41,4,2,2,10,1,4,c4_HowHand,1,lifting?,49,H_362.jpg,1628536718.10211,1628536718.10448,162.271702280045,6.4332537651062,168.72410820961,170.80821846962,2.08411026000977,170.958274354935,0.683588266372681,171.643265953064,1,left,0.650638103485107,171.641862621307,604.469940414429,607.229940414429,1628536883.13382,1628536883.13546,1628536889.58622,1628536889.58809,1628536891.67033,1628536891.82039,1628536891.83489,1628536892.50538,1628536892.50398,1628537325.33205,1
41,4,2,2,10,2,4,c4_HowHand,2,lifting?,55,H_012.jpg,1628536718.10211,1628536718.10448,162.271702280045,6.4332537651062,168.72410820961,170.80821846962,0.3,171.958646764755,0.850317239761353,172.810014953613,3,right,0.82890796661377,172.808964004517,604.469940414429,607.229940414429,1628536883.13382,1628536883.13546,1628536889.58622,1628536889.58809,1628536891.67033,1628536892.82076,1628536892.82264,1628536893.67213,1628536893.67108,1628537325.33205,0
41,4,2,2,10,3,4,c4_HowHand,1,lifting?,56,H_136.jpg,1628536718.10211,1628536718.10448,162.271702280045,6.4332537651062,168.72410820961,170.80821846962,0.3,173.125749101639,1.217120885849,174.34395693779,1,left,1.20083999633789,174.342869987488,604.469940414429,607.229940414429,1628536883.13382,1628536883.13546,1628536889.58622,1628536889.58809,1628536891.67033,1628536893.98786,1628536893.98963,1628536895.20607,1628536895.20498,1628537325.33205,1
41,4,2,2,10,4,4,c4_HowHand,1,lifting?,52,H_189.jpg,1628536718.10211,1628536718.10448,162.271702280045,6.4332537651062,168.72410820961,170.80821846962,0.3,174.659654369354,1.11708354949951,175.788969984055,3,right,1.10508322715759,175.776737918854,604.469940414429,607.229940414429,1628536883.13382,1628536883.13546,1628536889.58622,1628536889.58809,1628536891.67033,1628536895.52177,1628536895.52375,1628536896.65108,1628536896.63885,1628537325.33205,0
41,4,2,2,10,5,4,c4_HowHand,1,lifting?,54,H_170.jpg,1628536718.10211,1628536718.10448,162.271702280045,6.4332537651062,168.72410820961,170.80821846962,0.3,176.093523254395,0.816970586776733,176.91194890976,1,left,0.800787925720215,176.910493841171,604.469940414429,607.229940414429,1628536883.13382,1628536883.13546,1628536889.58622,1628536889.58809,1628536891.67033,1628536896.95564,1628536896.9574,1628536897.77406,1628536897.77261,1628537325.33205,1
41,4,2,2,10,6,4,c4_HowHand,2,lifting?,53,H_077.jpg,1628536718.10211,1628536718.10448,162.271702280045,6.4332537651062,168.72410820961,170.80821846962,0.3,177.227279176712,1.15042924880981,178.38914393425,3,right,1.13864588737488,178.377708425522,604.469940414429,607.229940414429,1628536883.13382,1628536883.13546,1628536889.58622,1628536889.58809,1628536891.67033,1628536898.08939,1628536898.0907,1628536899.25126,1628536899.23982,1628537325.33205,0
41,4,2,2,10,7,4,c4_HowHand,1,lifting?,50,H_443.jpg,1628536718.10211,1628536718.10448,162.271702280045,6.4332537651062,168.72410820961,170.80821846962,0.3,178.694492807388,0.883663415908813,179.58848690033,1,left,0.874490976333618,179.578156223297,604.469940414429,607.229940414429,1628536883.13382,1628536883.13546,1628536889.58622,1628536889.58809,1628536891.67033,1628536899.55661,1628536899.55814,1628536900.4506,1628536900.44027,1628537325.33205,1
41,4,2,2,10,8,4,c4_HowHand,2,lifting?,51,H_038.jpg,1628536718.10211,1628536718.10448,162.271702280045,6.4332537651062,168.72410820961,170.80821846962,0.3,179.894940843582,0.900335788726807,180.805546989441,3,right,0.884756088256836,180.795276632309,604.469940414429,607.229940414429,1628536883.13382,1628536883.13546,1628536889.58622,1628536889.58809,1628536891.67033,1628536900.75705,1628536900.75871,1628536901.66766,1628536901.65739,1628537325.33205,0
41,4,2,2,11,1,3,c3_HowFace,1,open mouth?,73,F_403.jpg,1628536718.10211,1628536718.10448,180.878641357422,5.89625668525696,186.780841817856,188.881625165939,2.1007833480835,189.031680574417,0.533533573150635,189.571825971603,1,left,0.511924028396606,189.565214147568,604.469940414429,607.229940414429,1628536901.74075,1628536901.74211,1628536907.64295,1628536907.65171,1628536909.74374,1628536909.89379,1628536909.90154,1628536910.43394,1628536910.42733,1628537325.33205,1
41,4,2,2,11,2,3,c3_HowFace,1,open mouth?,75,F_086.jpg,1628536718.10211,1628536718.10448,180.878641357422,5.89625668525696,186.780841817856,188.881625165939,0.3,189.881998529434,0.516858339309692,190.400026073456,1,left,0.495051860809326,190.398856868744,604.469940414429,607.229940414429,1628536901.74075,1628536901.74211,1628536907.64295,1628536907.65171,1628536909.74374,1628536910.74411,1628536910.74587,1628536911.26214,1628536911.26097,1628537325.33205,1
41,4,2,2,11,3,3,c3_HowFace,1,open mouth?,80,F_844.jpg,1628536718.10211,1628536718.10448,180.878641357422,5.89625668525696,186.780841817856,188.881625165939,0.3,190.715641727448,0.500187635421753,191.22192691803,1,left,0.488550186157227,191.215829362869,604.469940414429,607.229940414429,1628536901.74075,1628536901.74211,1628536907.64295,1628536907.65171,1628536909.74374,1628536911.57775,1628536911.57944,1628536912.08404,1628536912.07794,1628537325.33205,1
41,4,2,2,11,4,3,c3_HowFace,2,open mouth?,76,F_544.jpg,1628536718.10211,1628536718.10448,180.878641357422,5.89625668525696,186.780841817856,188.881625165939,0.3,191.532614221573,0.716934204101562,192.255503883362,3,right,0.701597929000854,192.249548425674,604.469940414429,607.229940414429,1628536901.74075,1628536901.74211,1628536907.64295,1628536907.65171,1628536909.74374,1628536912.39473,1628536912.39662,1628536913.11762,1628536913.11166,1628537325.33205,0
41,4,2,2,11,5,3,c3_HowFace,1,open mouth?,74,F_776.jpg,1628536718.10211,1628536718.10448,180.878641357422,5.89625668525696,186.780841817856,188.881625165939,0.3,192.566333045959,0.633569240570068,193.20522808075,1,left,0.622408866882324,193.19990228653,604.469940414429,607.229940414429,1628536901.74075,1628536901.74211,1628536907.64295,1628536907.65171,1628536909.74374,1628536913.42845,1628536913.43035,1628536914.06734,1628536914.06202,1628537325.33205,1
41,4,2,2,11,6,3,c3_HowFace,2,open mouth?,79,F_648.jpg,1628536718.10211,1628536718.10448,180.878641357422,5.89625668525696,186.780841817856,188.881625165939,0.3,193.516687145233,0.633569478988647,194.151386966705,3,right,0.612694025039673,194.150256624222,604.469940414429,607.229940414429,1628536901.74075,1628536901.74211,1628536907.64295,1628536907.65171,1628536909.74374,1628536914.3788,1628536914.38035,1628536915.0135,1628536915.01237,1628537325.33205,0
41,4,2,2,11,7,3,c3_HowFace,1,open mouth?,78,F_692.jpg,1628536718.10211,1628536718.10448,180.878641357422,5.89625668525696,186.780841817856,188.881625165939,0.3,194.467041244507,0.533533096313477,195.006012907028,1,left,0.523689031600952,195.00057434082,604.469940414429,607.229940414429,1628536901.74075,1628536901.74211,1628536907.64295,1628536907.65171,1628536909.74374,1628536915.32915,1628536915.33073,1628536915.86813,1628536915.86269,1628537325.33205,1
41,4,2,2,11,8,3,c3_HowFace,2,open mouth?,77,F_584.jpg,1628536718.10211,1628536718.10448,180.878641357422,5.89625668525696,186.780841817856,188.881625165939,0.3,195.317358007431,0.800298690795898,196.122374048233,3,right,0.789261817932129,196.117656698227,604.469940414429,607.229940414429,1628536901.74075,1628536901.74211,1628536907.64295,1628536907.65171,1628536909.74374,1628536916.17947,1628536916.18117,1628536916.98449,1628536916.97977,1628537325.33205,0
41,4,2,2,12,1,1,c1_WhyFace,1,proud?,97,F_582.jpg,1628536718.10211,1628536718.10448,196.201020708084,8.09109020233154,204.304043045044,206.404827108383,2.10078406333923,206.554883470535,0.716934204101562,207.273329963684,1,left,0.705192089080811,207.271817674637,604.469940414429,607.229940414429,1628536917.06313,1628536917.06778,1628536925.16616,1628536925.16841,1628536927.26694,1628536927.417,1628536927.41846,1628536928.13544,1628536928.13393,1628537325.33205,1
41,4,2,2,12,2,1,c1_WhyFace,2,proud?,100,F_776.jpg,1628536718.10211,1628536718.10448,196.201020708084,8.09109020233154,204.304043045044,206.404827108383,0.3,207.588601818085,1.05039119720459,208.640000095367,3,right,1.03891086578369,208.638993015289,604.469940414429,607.229940414429,1628536917.06313,1628536917.06778,1628536925.16616,1628536925.16841,1628536927.26694,1628536928.45071,1628536928.45234,1628536929.50211,1628536929.50111,1628537325.33205,0
41,4,2,2,12,3,1,c1_WhyFace,1,proud?,104,F_598.jpg,1628536718.10211,1628536718.10448,196.201020708084,8.09109020233154,204.304043045044,206.404827108383,0.3,208.955777635574,0.716933965682983,209.674307098389,1,left,0.705731153488159,209.672711601257,604.469940414429,607.229940414429,1628536917.06313,1628536917.06778,1628536925.16616,1628536925.16841,1628536927.26694,1628536929.81789,1628536929.81963,1628536930.53642,1628536930.53482,1628537325.33205,1
41,4,2,2,12,4,1,c1_WhyFace,2,proud?,98,F_412.jpg,1628536718.10211,1628536718.10448,196.201020708084,8.09109020233154,204.304043045044,206.404827108383,0.3,209.98949669838,0.933681726455688,210.924652090073,3,right,0.924000024795532,210.923178424835,604.469940414429,607.229940414429,1628536917.06313,1628536917.06778,1628536925.16616,1628536925.16841,1628536927.26694,1628536930.85161,1628536930.85291,1628536931.78677,1628536931.78529,1628537325.33205,0
41,4,2,2,12,5,1,c1_WhyFace,1,proud?,103,F_618.jpg,1628536718.10211,1628536718.10448,196.201020708084,8.09109020233154,204.304043045044,206.404827108383,0.3,211.239962806702,0.733607292175293,211.97533987999,1,left,0.716523885726929,211.973570098877,604.469940414429,607.229940414429,1628536917.06313,1628536917.06778,1628536925.16616,1628536925.16841,1628536927.26694,1628536932.10208,1628536932.10338,1628536932.83745,1628536932.83568,1628537325.33205,1
41,4,2,2,12,6,1,c1_WhyFace,1,proud?,101,F_083.jpg,1628536718.10211,1628536718.10448,196.201020708084,8.09109020233154,204.304043045044,206.404827108383,0.3,212.290354242325,0.683589220046997,212.975728979111,1,left,0.66182804107666,212.973943462372,604.469940414429,607.229940414429,1628536917.06313,1628536917.06778,1628536925.16616,1628536925.16841,1628536927.26694,1628536933.15247,1628536933.15403,1628536933.83784,1628536933.83606,1628537325.33205,1
41,4,2,2,12,7,1,c1_WhyFace,1,proud?,99,F_695.jpg,1628536718.10211,1628536718.10448,196.201020708084,8.09109020233154,204.304043045044,206.404827108383,0.3,213.290728082657,0.733607292175293,214.025392999649,1,left,0.712181091308594,214.024335374832,604.469940414429,607.229940414429,1628536917.06313,1628536917.06778,1628536925.16616,1628536925.16841,1628536927.26694,1628536934.15284,1628536934.15448,1628536934.88751,1628536934.88645,1628537325.33205,1
41,4,2,2,12,8,1,c1_WhyFace,2,proud?,102,F_760.jpg,1628536718.10211,1628536718.10448,196.201020708084,8.09109020233154,204.304043045044,206.404827108383,0.3,214.341120233536,0.750278949737549,215.105727901459,3,right,0.743100881576538,215.091399183273,604.469940414429,607.229940414429,1628536917.06313,1628536917.06778,1628536925.16616,1628536925.16841,1628536927.26694,1628536935.20323,1628536935.2049,1628536935.96784,1628536935.95351,1628537325.33205,0
41,4,2,2,13,1,2,c2_WhyHand,1,helping?,39,H_024.jpg,1628536718.10211,1628536718.10448,215.174764385223,7.33722949028015,222.527506818771,224.628289213181,2.10078239440918,224.77834438324,1.18377566337585,225.964031925201,1,left,1.16629910469055,225.962120046616,604.469940414429,607.229940414429,1628536936.03688,1628536936.03793,1628536943.38962,1628536943.39172,1628536945.4904,1628536945.64046,1628536945.64205,1628536946.82614,1628536946.82423,1628537325.33205,1
41,4,2,2,13,2,2,c2_WhyHand,1,helping?,37,H_474.jpg,1628536718.10211,1628536718.10448,215.174764385223,7.33722949028015,222.527506818771,224.628289213181,0.3,226.278905143738,1.00037240982056,227.280333986282,1,left,0.983411073684692,227.279277553558,604.469940414429,607.229940414429,1628536936.03688,1628536936.03793,1628536943.38962,1628536943.39172,1628536945.4904,1628536947.14102,1628536947.14286,1628536948.14245,1628536948.14139,1628537325.33205,1
41,4,2,2,13,3,2,c2_WhyHand,1,helping?,36,H_349.jpg,1628536718.10211,1628536718.10448,215.174764385223,7.33722949028015,222.527506818771,224.628289213181,0.3,227.596063365936,0.650241851806641,228.24816988945,1,left,0.634757995605469,228.246305217743,604.469940414429,607.229940414429,1628536936.03688,1628536936.03793,1628536943.38962,1628536943.39172,1628536945.4904,1628536948.45818,1628536948.45974,1628536949.11028,1628536949.10842,1628537325.33205,1
41,4,2,2,13,4,2,c2_WhyHand,2,helping?,33,H_091.jpg,1628536718.10211,1628536718.10448,215.174764385223,7.33722949028015,222.527506818771,224.628289213181,0.3,228.563089838028,0.93368124961853,229.505212059021,3,right,0.923285007476807,229.496771087646,604.469940414429,607.229940414429,1628536936.03688,1628536936.03793,1628536943.38962,1628536943.39172,1628536945.4904,1628536949.4252,1628536949.42711,1628536950.36733,1628536950.35888,1628537325.33205,0
41,4,2,2,13,5,2,c2_WhyHand,2,helping?,40,H_012.jpg,1628536718.10211,1628536718.10448,215.174764385223,7.33722949028015,222.527506818771,224.628289213181,0.3,229.81355594635,0.850316762924194,230.672525873184,3,right,0.844008922576904,230.663872709274,604.469940414429,607.229940414429,1628536936.03688,1628536936.03793,1628536943.38962,1628536943.39172,1628536945.4904,1628536950.67567,1628536950.67709,1628536951.53464,1628536951.52599,1628537325.33205,0
41,4,2,2,13,6,2,c2_WhyHand,1,helping?,38,H_077.jpg,1628536718.10211,1628536718.10448,215.174764385223,7.33722949028015,222.527506818771,224.628289213181,0.3,230.980658044815,1.05039191246033,232.0386369133,1,left,1.04223203659058,232.031049957275,604.469940414429,607.229940414429,1628536936.03688,1628536936.03793,1628536943.38962,1628536943.39172,1628536945.4904,1628536951.84277,1628536951.8444,1628536952.90075,1628536952.89316,1628537325.33205,1
41,4,2,2,13,7,2,c2_WhyHand,2,helping?,35,H_159.jpg,1628536718.10211,1628536718.10448,215.174764385223,7.33722949028015,222.527506818771,224.628289213181,0.3,232.347835054398,1.00037288665771,233.349236001968,3,right,0.98015308380127,233.348207941055,604.469940414429,607.229940414429,1628536936.03688,1628536936.03793,1628536943.38962,1628536943.39172,1628536945.4904,1628536953.20995,1628536953.21164,1628536954.21135,1628536954.21032,1628537325.33205,0
41,4,2,2,13,8,2,c2_WhyHand,1,helping?,34,H_111.jpg,1628536718.10211,1628536718.10448,215.174764385223,7.33722949028015,222.527506818771,224.628289213181,0.3,233.664991607666,0.883662700653076,234.555241098404,1,left,0.869158983230591,234.548654308319,604.469940414429,607.229940414429,1628536936.03688,1628536936.03793,1628536943.38962,1628536943.39172,1628536945.4904,1628536954.5271,1628536954.52864,1628536955.41735,1628536955.41077,1628537325.33205,1
41,4,2,2,14,1,4,c4_HowHand,1,reaching?,109,H_474.jpg,1628536718.10211,1628536718.10448,234.632020225525,5.4098846912384,240.050706853867,242.151491155624,2.10078430175781,242.301546325684,0.816971778869629,243.122458925247,1,left,0.795406103134155,243.118518104553,604.469940414429,607.229940414429,1628536955.49413,1628536955.49598,1628536960.91282,1628536960.91803,1628536963.0136,1628536963.16366,1628536963.1682,1628536963.98457,1628536963.98063,1628537325.33205,1
41,4,2,2,14,2,4,c4_HowHand,1,reaching?,111,H_003.jpg,1628536718.10211,1628536718.10448,234.632020225525,5.4098846912384,240.050706853867,242.151491155624,0.3,243.435302724838,0.683588266372681,244.12209104538,1,left,0.663968086242676,244.118890991211,604.469940414429,607.229940414429,1628536955.49413,1628536955.49598,1628536960.91282,1628536960.91803,1628536963.0136,1628536964.29742,1628536964.30128,1628536964.9842,1628536964.981,1628537325.33205,1
41,4,2,2,14,3,4,c4_HowHand,2,reaching?,112,H_132.jpg,1628536718.10211,1628536718.10448,234.632020225525,5.4098846912384,240.050706853867,242.151491155624,0.3,244.435675849915,0.83364462852478,245.272365083694,3,right,0.814265966415405,245.269320478439,604.469940414429,607.229940414429,1628536955.49413,1628536955.49598,1628536960.91282,1628536960.91803,1628536963.0136,1628536965.29779,1628536965.3012,1628536966.13448,1628536966.13143,1628537325.33205,0
41,4,2,2,14,4,4,c4_HowHand,1,reaching?,110,H_364.jpg,1628536718.10211,1628536718.10448,234.632020225525,5.4098846912384,240.050706853867,242.151491155624,0.3,245.586105337143,0.816970348358154,246.405858030319,1,left,0.802175998687744,246.403075685501,604.469940414429,607.229940414429,1628536955.49413,1628536955.49598,1628536960.91282,1628536960.91803,1628536963.0136,1628536966.44822,1628536966.45094,1628536967.26797,1628536967.26519,1628537325.33205,1
41,4,2,2,14,5,4,c4_HowHand,1,reaching?,106,H_006.jpg,1628536718.10211,1628536718.10448,234.632020225525,5.4098846912384,240.050706853867,242.151491155624,0.3,246.719860544205,1.08373808860779,247.805038919449,1,left,1.07553195953369,247.803598632813,604.469940414429,607.229940414429,1628536955.49413,1628536955.49598,1628536960.91282,1628536960.91803,1628536963.0136,1628536967.58197,1628536967.58437,1628536968.66715,1628536968.66571,1628537325.33205,1
41,4,2,2,14,6,4,c4_HowHand,2,reaching?,108,H_532.jpg,1628536718.10211,1628536718.10448,234.632020225525,5.4098846912384,240.050706853867,242.151491155624,0.3,248.12038277626,1.05039262771606,249.172039022446,3,right,1.04101300239563,249.170775403976,604.469940414429,607.229940414429,1628536955.49413,1628536955.49598,1628536960.91282,1628536960.91803,1628536963.0136,1628536968.9825,1628536968.98463,1628536970.03415,1628536970.03289,1628537325.33205,0
41,4,2,2,14,7,4,c4_HowHand,2,reaching?,105,H_438.jpg,1628536718.10211,1628536718.10448,234.632020225525,5.4098846912384,240.050706853867,242.151491155624,0.3,249.487559309006,1.33383083343506,250.822370996475,3,right,1.32569980621338,250.821390142441,604.469940414429,607.229940414429,1628536955.49413,1628536955.49598,1628536960.91282,1628536960.91803,1628536963.0136,1628536970.34967,1628536970.35149,1628536971.68448,1628536971.6835,1628537325.33205,0
41,4,2,2,14,8,4,c4_HowHand,1,reaching?,107,H_007.jpg,1628536718.10211,1628536718.10448,234.632020225525,5.4098846912384,240.050706853867,242.151491155624,0.3,251.138175477982,0.783625602722168,251.923590888977,1,left,0.762006998062134,251.921801080704,604.469940414429,607.229940414429,1628536955.49413,1628536955.49598,1628536960.91282,1628536960.91803,1628536963.0136,1628536972.00029,1628536972.00194,1628536972.7857,1628536972.78391,1628537325.33205,1
41,4,2,2,15,1,3,c3_HowFace,1,looking at camera?,60,F_618.jpg,1628536718.10211,1628536718.10448,251.98849319458,6.84341478347778,258.841047992706,260.94183134079,2.1007833480835,261.091886749268,0.883663654327393,261.989155044556,1,left,0.874857902526855,261.975550403595,604.469940414429,607.229940414429,1628536972.85061,1628536972.85205,1628536979.70316,1628536979.70461,1628536981.80394,1628536981.954,1628536981.95576,1628536982.85127,1628536982.83766,1628537325.33205,1
41,4,2,2,15,2,3,c3_HowFace,2,looking at camera?,63,F_743.jpg,1628536718.10211,1628536718.10448,251.98849319458,6.84341478347778,258.841047992706,260.94183134079,0.3,262.29233502388,0.650242328643799,262.944381942749,3,right,0.629379987716675,262.942577352524,604.469940414429,607.229940414429,1628536972.85061,1628536972.85205,1628536979.70316,1628536979.70461,1628536981.80394,1628536983.15445,1628536983.15604,1628536983.80649,1628536983.80469,1628537325.33205,0
41,4,2,2,15,3,3,c3_HowFace,1,looking at camera?,62,F_598.jpg,1628536718.10211,1628536718.10448,251.98849319458,6.84341478347778,258.841047992706,260.94183134079,0.3,263.259362211227,0.583550930023193,263.844711055756,1,left,0.563841819763184,263.842913141251,604.469940414429,607.229940414429,1628536972.85061,1628536972.85205,1628536979.70316,1628536979.70461,1628536981.80394,1628536984.12148,1628536984.12366,1628536984.70682,1628536984.70503,1628537325.33205,1
41,4,2,2,15,4,3,c3_HowFace,1,looking at camera?,61,F_774.jpg,1628536718.10211,1628536718.10448,251.98849319458,6.84341478347778,258.841047992706,260.94183134079,0.3,264.159698238373,0.716933965682983,264.877684106827,1,left,0.70188307762146,264.876632204056,604.469940414429,607.229940414429,1628536972.85061,1628536972.85205,1628536979.70316,1628536979.70461,1628536981.80394,1628536985.02181,1628536985.02329,1628536985.7398,1628536985.73875,1628537325.33205,1
41,4,2,2,15,5,3,c3_HowFace,1,looking at camera?,59,F_129.jpg,1628536718.10211,1628536718.10448,251.98849319458,6.84341478347778,258.841047992706,260.94183134079,0.3,265.193416824341,0.616897106170654,265.811599960327,1,left,0.600010871887207,265.810313930511,604.469940414429,607.229940414429,1628536972.85061,1628536972.85205,1628536979.70316,1628536979.70461,1628536981.80394,1628536986.05553,1628536986.05726,1628536986.67371,1628536986.67243,1628537325.33205,1
41,4,2,2,15,6,3,c3_HowFace,1,looking at camera?,64,F_128.jpg,1628536718.10211,1628536718.10448,251.98849319458,6.84341478347778,258.841047992706,260.94183134079,0.3,266.127097835541,0.633570194244385,266.761787881851,1,left,0.617857933044434,266.760668029785,604.469940414429,607.229940414429,1628536972.85061,1628536972.85205,1628536979.70316,1628536979.70461,1628536981.80394,1628536986.98921,1628536986.99087,1628536987.6239,1628536987.62278,1628537325.33205,1
41,4,2,2,15,7,3,c3_HowFace,2,looking at camera?,57,F_582.jpg,1628536718.10211,1628536718.10448,251.98849319458,6.84341478347778,258.841047992706,260.94183134079,0.3,267.077453126907,0.933680772781372,268.012249937058,3,right,0.917618989944458,268.011133899689,604.469940414429,607.229940414429,1628536972.85061,1628536972.85205,1628536979.70316,1628536979.70461,1628536981.80394,1628536987.93957,1628536987.94122,1628536988.87436,1628536988.87325,1628537325.33205,0
41,4,2,2,15,8,3,c3_HowFace,2,looking at camera?,58,F_754.jpg,1628536718.10211,1628536718.10448,251.98849319458,6.84341478347778,258.841047992706,260.94183134079,0.3,268.32791923523,0.750279903411865,269.079224100113,3,right,0.733199119567871,269.078199138641,604.469940414429,607.229940414429,1628536972.85061,1628536972.85205,1628536979.70316,1628536979.70461,1628536981.80394,1628536989.19003,1628536989.19173,1628536989.94134,1628536989.94031,1628537325.33205,0
41,4,2,2,16,1,1,c1_WhyFace,1,self-doubt?,25,F_798.jpg,1628536718.10211,1628536718.10448,269.161563148499,11.150358915329,280.332395782471,282.416506280899,2.08411049842834,282.566561927795,1.25046634674072,283.822691907883,1,left,1.23463201522827,283.817028274536,604.469940414429,607.229940414429,1628536990.02368,1628536990.02526,1628537001.19451,1628537001.19644,1628537003.27862,1628537003.42867,1628537003.43509,1628537004.6848,1628537004.67914,1628537325.33205,1
41,4,2,2,16,2,1,c1_WhyFace,2,self-doubt?,32,F_128.jpg,1628536718.10211,1628536718.10448,269.161563148499,11.150358915329,280.332395782471,282.416506280899,0.3,284.133812894821,0.950354814529419,285.089051952362,3,right,0.940831899642944,285.084167709351,604.469940414429,607.229940414429,1628536990.02368,1628536990.02526,1628537001.19451,1628537001.19644,1628537003.27862,1628537004.99593,1628537004.99766,1628537005.95116,1628537005.94628,1628537325.33205,0
41,4,2,2,16,3,1,c1_WhyFace,1,self-doubt?,28,F_754.jpg,1628536718.10211,1628536718.10448,269.161563148499,11.150358915329,280.332395782471,282.416506280899,0.3,285.400952091217,0.833645343780518,286.238368024826,1,left,0.823526859283447,286.234597434998,604.469940414429,607.229940414429,1628536990.02368,1628536990.02526,1628537001.19451,1628537001.19644,1628537003.27862,1628537006.26307,1628537006.26801,1628537007.10048,1628537007.09671,1628537325.33205,1
41,4,2,2,16,4,1,c1_WhyFace,1,self-doubt?,29,F_544.jpg,1628536718.10211,1628536718.10448,269.161563148499,11.150358915329,280.332395782471,282.416506280899,0.3,286.551381816864,0.750279426574707,287.305572023392,1,left,0.7375168800354,287.301661243439,604.469940414429,607.229940414429,1628536990.02368,1628536990.02526,1628537001.19451,1628537001.19644,1628537003.27862,1628537007.41349,1628537007.41827,1628537008.16769,1628537008.16377,1628537325.33205,1
41,4,2,2,16,5,1,c1_WhyFace,2,self-doubt?,27,F_086.jpg,1628536718.10211,1628536718.10448,269.161563148499,11.150358915329,280.332395782471,282.416506280899,0.3,287.618445863724,1.45054173469543,289.07195400238,3,right,1.43107008934021,289.068987598419,604.469940414429,607.229940414429,1628536990.02368,1628536990.02526,1628537001.19451,1628537001.19644,1628537003.27862,1628537008.48056,1628537008.48453,1628537009.93407,1628537009.9311,1628537325.33205,0
41,4,2,2,16,6,1,c1_WhyFace,1,self-doubt?,26,F_111.jpg,1628536718.10211,1628536718.10448,269.161563148499,11.150358915329,280.332395782471,282.416506280899,0.3,289.385772218704,1.0337188243866,290.421715965271,1,left,1.02411198616028,290.419491043091,604.469940414429,607.229940414429,1628536990.02368,1628536990.02526,1628537001.19451,1628537001.19644,1628537003.27862,1628537010.24789,1628537010.25123,1628537011.28383,1628537011.2816,1628537325.33205,1
41,4,2,2,16,7,1,c1_WhyFace,2,self-doubt?,31,F_774.jpg,1628536718.10211,1628536718.10448,269.161563148499,11.150358915329,280.332395782471,282.416506280899,0.3,290.736275186539,0.766953468322754,291.505183925629,3,right,0.747380971908569,291.503228654861,604.469940414429,607.229940414429,1628536990.02368,1628536990.02526,1628537001.19451,1628537001.19644,1628537003.27862,1628537011.59839,1628537011.60122,1628537012.3673,1628537012.36534,1628537325.33205,0
41,4,2,2,16,8,1,c1_WhyFace,1,self-doubt?,30,F_584.jpg,1628536718.10211,1628536718.10448,269.161563148499,11.150358915329,280.332395782471,282.416506280899,0.3,291.820012559891,1.55057859420776,293.372443904877,3,right,1.52785491943359,293.370591154099,604.469940414429,607.229940414429,1628536990.02368,1628536990.02526,1628537001.19451,1628537001.19644,1628537003.27862,1628537012.68213,1628537012.68465,1628537014.23456,1628537014.2327,1628537325.33205,0
41,4,2,2,17,1,4,c4_HowHand,1,reaching?,106,H_006.jpg,1628536718.10211,1628536718.10448,293.437283029556,4.76459503173828,298.20572804451,300.306511392593,2.1007833480835,300.45656703949,0.616896629333496,301.088484039307,1,left,0.594319820404053,301.073463668823,604.469940414429,607.229940414429,1628537014.2994,1628537014.30043,1628537019.06784,1628537019.0845,1628537021.16862,1628537021.31868,1628537021.33487,1628537021.9506,1628537021.93558,1628537325.33205,1
41,4,2,2,17,2,4,c4_HowHand,2,reaching?,105,H_438.jpg,1628536718.10211,1628536718.10448,293.437283029556,4.76459503173828,298.20572804451,300.306511392593,0.3,301.390249481201,0.917007446289062,302.308635940552,3,right,0.897865056991577,302.30725692749,604.469940414429,607.229940414429,1628537014.2994,1628537014.30043,1628537019.06784,1628537019.0845,1628537021.16862,1628537022.25236,1628537022.25391,1628537023.17075,1628537023.16937,1628537325.33205,0
41,4,2,2,17,3,4,c4_HowHand,1,reaching?,111,H_003.jpg,1628536718.10211,1628536718.10448,293.437283029556,4.76459503173828,298.20572804451,300.306511392593,0.3,302.624042024612,0.583550691604614,303.221942892075,1,left,0.573166131973267,303.207592716217,604.469940414429,607.229940414429,1628537014.2994,1628537014.30043,1628537019.06784,1628537019.0845,1628537021.16862,1628537023.48616,1628537023.48774,1628537024.08406,1628537024.06971,1628537325.33205,1
41,4,2,2,17,4,4,c4_HowHand,1,reaching?,109,H_474.jpg,1628536718.10211,1628536718.10448,293.437283029556,4.76459503173828,298.20572804451,300.306511392593,0.3,303.524378051758,0.633569717407227,304.159388055801,1,left,0.615815877914429,304.157947769165,604.469940414429,607.229940414429,1628537014.2994,1628537014.30043,1628537019.06784,1628537019.0845,1628537021.16862,1628537024.38649,1628537024.38872,1628537025.0215,1628537025.02006,1628537325.33205,1
41,4,2,2,17,5,4,c4_HowHand,2,reaching?,108,H_532.jpg,1628536718.10211,1628536718.10448,293.437283029556,4.76459503173828,298.20572804451,300.306511392593,0.3,304.47473238945,0.650241136550903,305.126379957199,3,right,0.638943195343018,305.124973526001,604.469940414429,607.229940414429,1628537014.2994,1628537014.30043,1628537019.06784,1628537019.0845,1628537021.16862,1628537025.33685,1628537025.33866,1628537025.98849,1628537025.98709,1628537325.33205,0
41,4,2,2,17,6,4,c4_HowHand,1,reaching?,110,H_364.jpg,1628536718.10211,1628536718.10448,293.437283029556,4.76459503173828,298.20572804451,300.306511392593,0.3,305.441759576797,0.633569002151489,306.07700299263,1,left,0.617861986160278,306.075328578949,604.469940414429,607.229940414429,1628537014.2994,1628537014.30043,1628537019.06784,1628537019.0845,1628537021.16862,1628537026.30387,1628537026.30563,1628537026.93912,1628537026.93744,1628537325.33205,1
41,4,2,2,17,7,4,c4_HowHand,1,reaching?,107,H_007.jpg,1628536718.10211,1628536718.10448,293.437283029556,4.76459503173828,298.20572804451,300.306511392593,0.3,306.392113676071,0.516859769821167,306.910017004013,1,left,0.503159046173096,306.908973445892,604.469940414429,607.229940414429,1628537014.2994,1628537014.30043,1628537019.06784,1628537019.0845,1628537021.16862,1628537027.25423,1628537027.25549,1628537027.77213,1628537027.77109,1628537325.33205,1
41,4,2,2,17,8,4,c4_HowHand,2,reaching?,112,H_132.jpg,1628536718.10211,1628536718.10448,293.437283029556,4.76459503173828,298.20572804451,300.306511392593,0.3,307.225758066177,0.883662939071655,308.110830059052,3,right,0.869405031204224,308.109421005249,604.469940414429,607.229940414429,1628537014.2994,1628537014.30043,1628537019.06784,1628537019.0845,1628537021.16862,1628537028.08787,1628537028.08946,1628537028.97294,1628537028.97153,1628537325.33205,0
41,4,2,2,18,1,2,c2_WhyHand,1,healthy?,18,H_438.jpg,1628536718.10211,1628536718.10448,308.192785968781,12.4911229610443,320.697449674606,322.798232545853,2.10078287124634,322.94828795433,1.7173068523407,NaN,0,NA,0,324.665594806671,604.469940414429,607.229940414429,1628537029.0549,1628537029.05667,1628537041.55956,1628537041.56788,1628537043.66035,1628537043.8104,1628537043.81236,NaN,1628537045.52771,1628537325.33205,0
41,4,2,2,18,2,2,c2_WhyHand,2,healthy?,20,H_007.jpg,1628536718.10211,1628536718.10448,308.192785968781,12.4911229610443,320.697449674606,322.798232545853,0.3,324.982380142212,1.01704597473145,326.005733957291,3,right,0.998105049133301,325.999426116943,604.469940414429,607.229940414429,1628537029.0549,1628537029.05667,1628537041.55956,1628537041.56788,1628537043.66035,1628537045.84449,1628537045.84635,1628537046.86785,1628537046.86154,1628537325.33205,0
41,4,2,2,18,3,2,c2_WhyHand,1,healthy?,23,H_364.jpg,1628536718.10211,1628536718.10448,308.192785968781,12.4911229610443,320.697449674606,322.798232545853,0.3,326.31621216774,1.30048370361328,327.62193488121,1,left,1.28997397422791,327.616695871353,604.469940414429,607.229940414429,1628537029.0549,1628537029.05667,1628537041.55956,1628537041.56788,1628537043.66035,1628537047.17833,1628537047.18,1628537048.48405,1628537048.47881,1628537325.33205,1
41,4,2,2,18,4,2,c2_WhyHand,2,healthy?,24,H_019.jpg,1628536718.10211,1628536718.10448,308.192785968781,12.4911229610443,320.697449674606,322.798232545853,0.3,327.933480014801,0.833645343780518,328.77217792511,3,right,0.82491397857666,328.767125358582,604.469940414429,607.229940414429,1628537029.0549,1628537029.05667,1628537041.55956,1628537041.56788,1628537043.66035,1628537048.79559,1628537048.79739,1628537049.63429,1628537049.62924,1628537325.33205,0
41,4,2,2,18,5,2,c2_WhyHand,1,healthy?,19,H_167.jpg,1628536718.10211,1628536718.10448,308.192785968781,12.4911229610443,320.697449674606,322.798232545853,0.3,329.083910217285,0.700260400772095,329.78522895813,1,left,0.680305957794189,329.784170618057,604.469940414429,607.229940414429,1628537029.0549,1628537029.05667,1628537041.55956,1628537041.56788,1628537043.66035,1628537049.94602,1628537049.94761,1628537050.64734,1628537050.64628,1628537325.33205,1
41,4,2,2,18,6,2,c2_WhyHand,2,healthy?,22,H_130.jpg,1628536718.10211,1628536718.10448,308.192785968781,12.4911229610443,320.697449674606,322.798232545853,0.3,330.100956668854,1.2337920665741,331.338443031311,3,right,1.22290897369385,331.334748735428,604.469940414429,607.229940414429,1628537029.0549,1628537029.05667,1628537041.55956,1628537041.56788,1628537043.66035,1628537050.96307,1628537050.9678,1628537052.20056,1628537052.19686,1628537325.33205,0
41,4,2,2,18,7,2,c2_WhyHand,1,healthy?,21,H_627.jpg,1628536718.10211,1628536718.10448,308.192785968781,12.4911229610443,320.697449674606,322.798232545853,0.3,331.65153383255,0.866990327835083,332.522545089722,1,left,0.84476113319397,332.518524160385,604.469940414429,607.229940414429,1628537029.0549,1628537029.05667,1628537041.55956,1628537041.56788,1628537043.66035,1628537052.51365,1628537052.51802,1628537053.38466,1628537053.38064,1628537325.33205,1
41,4,2,2,18,8,2,c2_WhyHand,1,healthy?,17,H_362.jpg,1628536718.10211,1628536718.10448,308.192785968781,12.4911229610443,320.697449674606,322.798232545853,0.3,332.835308542252,0.850316762924194,333.688533058167,1,left,0.836529970169067,333.685625305176,604.469940414429,607.229940414429,1628537029.0549,1628537029.05667,1628537041.55956,1628537041.56788,1628537043.66035,1628537053.69742,1628537053.70149,1628537054.55065,1628537054.54774,1628537325.33205,1
41,4,2,2,19,1,1,c1_WhyFace,1,proud?,101,F_083.jpg,1628536718.10211,1628536718.10448,333.768989315033,4.98500776290894,338.770854701996,340.871638765335,2.10078406333923,341.021695127487,0.616895914077759,341.655781021118,1,left,0.609184980392456,341.638591041565,604.469940414429,607.229940414429,1628537054.6311,1628537054.63466,1628537059.63297,1628537059.63492,1628537061.73375,1628537061.88381,1628537061.88567,1628537062.51789,1628537062.5007,1628537325.33205,1
41,4,2,2,19,2,1,c1_WhyFace,2,proud?,98,F_412.jpg,1628536718.10211,1628536718.10448,333.768989315033,4.98500776290894,338.770854701996,340.871638765335,0.3,341.955376138687,0.666915893554688,342.623380889893,3,right,0.653063058853149,342.622292032242,604.469940414429,607.229940414429,1628537054.6311,1628537054.63466,1628537059.63297,1628537059.63492,1628537061.73375,1628537062.81749,1628537062.819,1628537063.48549,1628537063.48441,1628537325.33205,0
41,4,2,2,19,3,1,c1_WhyFace,1,proud?,99,F_695.jpg,1628536718.10211,1628536718.10448,333.768989315033,4.98500776290894,338.770854701996,340.871638765335,0.3,342.939075937271,0.750279664993286,343.690753927231,1,left,0.740037202835083,343.689355602264,604.469940414429,607.229940414429,1628537054.6311,1628537054.63466,1628537059.63297,1628537059.63492,1628537061.73375,1628537063.80119,1628537063.80299,1628537064.55287,1628537064.55147,1628537325.33205,1
41,4,2,2,19,4,1,c1_WhyFace,1,proud?,104,F_598.jpg,1628536718.10211,1628536718.10448,333.768989315033,4.98500776290894,338.770854701996,340.871638765335,0.3,344.006140937805,0.600224494934082,344.608082046509,1,left,0.57723593711853,344.606365432739,604.469940414429,607.229940414429,1628537054.6311,1628537054.63466,1628537059.63297,1628537059.63492,1628537061.73375,1628537064.86825,1628537064.87005,1628537065.4702,1628537065.46848,1628537325.33205,1
41,4,2,2,19,5,1,c1_WhyFace,1,proud?,103,F_618.jpg,1628536718.10211,1628536718.10448,333.768989315033,4.98500776290894,338.770854701996,340.871638765335,0.3,344.923150291443,0.716933727264404,345.641115894318,1,left,0.695739984512329,345.640084018707,604.469940414429,607.229940414429,1628537054.6311,1628537054.63466,1628537059.63297,1628537059.63492,1628537061.73375,1628537065.78526,1628537065.78702,1628537066.50323,1628537066.5022,1628537325.33205,1
41,4,2,2,19,6,1,c1_WhyFace,1,proud?,97,F_582.jpg,1628536718.10211,1628536718.10448,333.768989315033,4.98500776290894,338.770854701996,340.871638765335,0.3,345.956868877411,0.650242328643799,346.608047952652,1,left,0.639410018920898,346.607111206055,604.469940414429,607.229940414429,1628537054.6311,1628537054.63466,1628537059.63297,1628537059.63492,1628537061.73375,1628537066.81898,1628537066.82034,1628537067.47016,1628537067.46922,1628537325.33205,1
41,4,2,2,19,7,1,c1_WhyFace,2,proud?,102,F_760.jpg,1628536718.10211,1628536718.10448,333.768989315033,4.98500776290894,338.770854701996,340.871638765335,0.3,346.92389582634,0.583550930023193,347.509221067429,3,right,0.570919036865234,347.507446756363,604.469940414429,607.229940414429,1628537054.6311,1628537054.63466,1628537059.63297,1628537059.63492,1628537061.73375,1628537067.78601,1628537067.78764,1628537068.37133,1628537068.36956,1628537325.33205,0
41,4,2,2,19,8,1,c1_WhyFace,2,proud?,100,F_776.jpg,1628536718.10211,1628536718.10448,333.768989315033,4.98500776290894,338.770854701996,340.871638765335,0.3,347.824232330322,0.983700037002563,348.822273960114,3,right,0.976400852203369,348.807932367325,604.469940414429,607.229940414429,1628537054.6311,1628537054.63466,1628537059.63297,1628537059.63492,1628537061.73375,1628537068.68635,1628537068.6883,1628537069.68439,1628537069.67005,1628537325.33205,0
41,4,2,2,20,1,3,c3_HowFace,1,smiling?,115,F_695.jpg,1628536718.10211,1628536718.10448,348.891295900345,11.3426420688629,360.245530357361,362.346314182282,2.10078382492065,362.496370067596,0.516858577728271,363.022259941101,1,left,0.50949501991272,363.013228645325,604.469940414429,607.229940414429,1628537069.75341,1628537069.75435,1628537081.10764,1628537081.11805,1628537083.20843,1628537083.35848,1628537083.36046,1628537083.88437,1628537083.87534,1628537325.33205,1
41,4,2,2,20,2,3,c3_HowFace,2,smiling?,114,F_412.jpg,1628536718.10211,1628536718.10448,348.891295900345,11.3426420688629,360.245530357361,362.346314182282,0.3,363.330013742447,0.716933965682983,364.048887004852,3,right,0.698008060455322,364.04694770813,604.469940414429,607.229940414429,1628537069.75341,1628537069.75435,1628537081.10764,1628537081.11805,1628537083.20843,1628537084.19213,1628537084.19376,1628537084.911,1628537084.90906,1628537325.33205,0
41,4,2,2,20,3,3,c3_HowFace,1,smiling?,116,F_083.jpg,1628536718.10211,1628536718.10448,348.891295900345,11.3426420688629,360.245530357361,362.346314182282,0.3,364.363732805252,0.516859531402588,364.882325878143,1,left,0.495346069335938,364.880592336655,604.469940414429,607.229940414429,1628537069.75341,1628537069.75435,1628537081.10764,1628537081.11805,1628537083.20843,1628537085.22585,1628537085.22745,1628537085.74444,1628537085.74271,1628537325.33205,1
41,4,2,2,20,4,3,c3_HowFace,1,smiling?,117,F_593.jpg,1628536718.10211,1628536718.10448,348.891295900345,11.3426420688629,360.245530357361,362.346314182282,0.3,365.197377433777,0.533532381057739,365.739159097672,1,left,0.517528057098389,365.730909814835,604.469940414429,607.229940414429,1628537069.75341,1628537069.75435,1628537081.10764,1628537081.11805,1628537083.20843,1628537086.05949,1628537086.06124,1628537086.60127,1628537086.59302,1628537325.33205,1
41,4,2,2,20,5,3,c3_HowFace,2,smiling?,113,F_712.jpg,1628536718.10211,1628536718.10448,348.891295900345,11.3426420688629,360.245530357361,362.346314182282,0.3,366.047694673538,0.733606338500977,366.789145936966,3,right,0.719273090362549,366.781301012039,604.469940414429,607.229940414429,1628537069.75341,1628537069.75435,1628537081.10764,1628537081.11805,1628537083.20843,1628537086.90981,1628537086.9117,1628537087.65126,1628537087.64341,1628537325.33205,0
41,4,2,2,20,6,3,c3_HowFace,1,smiling?,119,F_139.jpg,1628536718.10211,1628536718.10448,348.891295900345,11.3426420688629,360.245530357361,362.346314182282,0.3,367.098085632324,0.550205945968628,367.655093898773,1,left,0.543132066726685,367.648291578293,604.469940414429,607.229940414429,1628537069.75341,1628537069.75435,1628537081.10764,1628537081.11805,1628537083.20843,1628537087.9602,1628537087.96207,1628537088.51721,1628537088.5104,1628537325.33205,1
41,4,2,2,20,7,3,c3_HowFace,1,smiling?,118,F_759.jpg,1628536718.10211,1628536718.10448,348.891295900345,11.3426420688629,360.245530357361,362.346314182282,0.3,367.965076675415,0.533531188964844,368.505753984451,1,left,0.521764039993286,368.49860786438,604.469940414429,607.229940414429,1628537069.75341,1628537069.75435,1628537081.10764,1628537081.11805,1628537083.20843,1628537088.82719,1628537088.82896,1628537089.36787,1628537089.36072,1628537325.33205,1
41,4,2,2,20,8,3,c3_HowFace,2,smiling?,120,F_758.jpg,1628536718.10211,1628536718.10448,348.891295900345,11.3426420688629,360.245530357361,362.346314182282,0.3,368.815392961502,0.61689567565918,369.438581933975,3,right,0.606189966201782,369.432288637161,604.469940414429,607.229940414429,1628537069.75341,1628537069.75435,1628537081.10764,1628537081.11805,1628537083.20843,1628537089.67751,1628537089.67907,1628537090.30069,1628537090.2944,1628537325.33205,0
41,4,2,2,21,1,4,c4_HowHand,1,both hands?,123,H_167.jpg,1628536718.10211,1628536718.10448,369.515653600693,9.82625532150269,379.352655878067,381.453438749313,2.10078287124634,381.603494873047,0.633570432662964,382.238500108719,1,left,0.611342906951904,382.23706530571,604.469940414429,607.229940414429,1628537090.37777,1628537090.38465,1628537100.21477,1628537100.21854,1628537102.31555,1628537102.46561,1628537102.46829,1628537103.10061,1628537103.09918,1628537325.33205,1
41,4,2,2,21,2,4,c4_HowHand,2,both hands?,126,H_159.jpg,1628536718.10211,1628536718.10448,369.515653600693,9.82625532150269,379.352655878067,381.453438749313,0.3,382.553849925995,0.633569002151489,383.188533058167,3,right,0.623847961425781,383.187418928146,604.469940414429,607.229940414429,1628537090.37777,1628537090.38465,1628537100.21477,1628537100.21854,1628537102.31555,1628537103.41596,1628537103.4182,1628537104.05065,1628537104.04953,1628537325.33205,0
41,4,2,2,21,3,4,c4_HowHand,1,both hands?,128,H_027.jpg,1628536718.10211,1628536718.10448,369.515653600693,9.82625532150269,379.352655878067,381.453438749313,0.3,383.504203548431,0.583551406860352,384.088778009415,1,left,0.576722860336304,384.087754955292,604.469940414429,607.229940414429,1628537090.37777,1628537090.38465,1628537100.21477,1628537100.21854,1628537102.31555,1628537104.36632,1628537104.36778,1628537104.95089,1628537104.94987,1628537325.33205,1
41,4,2,2,21,4,4,c4_HowHand,1,both hands?,124,H_581.jpg,1628536718.10211,1628536718.10448,369.515653600693,9.82625532150269,379.352655878067,381.453438749313,0.3,384.404539813995,0.766953229904175,385.173211088181,1,left,0.747470855712891,385.1714930439,604.469940414429,607.229940414429,1628537090.37777,1628537090.38465,1628537100.21477,1628537100.21854,1628537102.31555,1628537105.26665,1628537105.26801,1628537106.03532,1628537106.03361,1628537325.33205,1
41,4,2,2,21,5,4,c4_HowHand,2,both hands?,121,H_091.jpg,1628536718.10211,1628536718.10448,369.515653600693,9.82625532150269,379.352655878067,381.453438749313,0.3,385.48827837944,1.10040855407715,386.590212097168,3,right,1.09108901023865,386.588686933517,604.469940414429,607.229940414429,1628537090.37777,1628537090.38465,1628537100.21477,1628537100.21854,1628537102.31555,1628537106.35039,1628537106.35201,1628537107.45233,1628537107.4508,1628537325.33205,0
41,4,2,2,21,6,4,c4_HowHand,1,both hands?,122,H_111.jpg,1628536718.10211,1628536718.10448,369.515653600693,9.82625532150269,379.352655878067,381.453438749313,0.3,386.905473461151,0.850315570831299,387.757534017563,1,left,0.838783025741577,387.755789031982,604.469940414429,607.229940414429,1628537090.37777,1628537090.38465,1628537100.21477,1628537100.21854,1628537102.31555,1628537107.76759,1628537107.76916,1628537108.61965,1628537108.6179,1628537325.33205,1
41,4,2,2,21,7,4,c4_HowHand,2,both hands?,125,H_627.jpg,1628536718.10211,1628536718.10448,369.515653600693,9.82625532150269,379.352655878067,381.453438749313,0.3,388.072573652267,0.850317478179932,388.924743881226,3,right,0.829968929290771,388.922891130447,604.469940414429,607.229940414429,1628537090.37777,1628537090.38465,1628537100.21477,1628537100.21854,1628537102.31555,1628537108.93469,1628537108.93617,1628537109.78686,1628537109.785,1628537325.33205,0
41,4,2,2,21,8,4,c4_HowHand,1,both hands?,127,H_349.jpg,1628536718.10211,1628536718.10448,369.515653600693,9.82625532150269,379.352655878067,381.453438749313,0.3,389.239677419662,0.550204038619995,389.791548957825,1,left,0.528472900390625,389.789881458282,604.469940414429,607.229940414429,1628537090.37777,1628537090.38465,1628537100.21477,1628537100.21854,1628537102.31555,1628537110.10179,1628537110.10332,1628537110.65366,1628537110.65199,1628537325.33205,1
41,4,2,2,22,1,2,c2_WhyHand,1,helping?,34,H_111.jpg,1628536718.10211,1628536718.10448,389.873245944977,6.9987211227417,396.875856866837,398.976641407013,2.10078454017639,399.126697292328,0.616896629333496,399.755243053436,1,left,0.595888137817383,399.743593921661,604.469940414429,607.229940414429,1628537110.73536,1628537110.73694,1628537117.73797,1628537117.75165,1628537119.83875,1628537119.98881,1628537120.00118,1628537120.61736,1628537120.60571,1628537325.33205,1
41,4,2,2,22,2,2,c2_WhyHand,1,helping?,38,H_077.jpg,1628536718.10211,1628536718.10448,389.873245944977,6.9987211227417,396.875856866837,398.976641407013,0.3,400.060377826691,0.750280857086182,400.822302093506,1,left,0.741678953170776,400.810658683777,604.469940414429,607.229940414429,1628537110.73536,1628537110.73694,1628537117.73797,1628537117.75165,1628537119.83875,1628537120.92249,1628537120.9244,1628537121.68442,1628537121.67277,1628537325.33205,1
41,4,2,2,22,3,2,c2_WhyHand,2,helping?,35,H_159.jpg,1628536718.10211,1628536718.10448,389.873245944977,6.9987211227417,396.875856866837,398.976641407013,0.3,401.127443065643,0.750279664993286,401.879024019241,3,right,0.734458923339844,401.877722730637,604.469940414429,607.229940414429,1628537110.73536,1628537110.73694,1628537117.73797,1628537117.75165,1628537119.83875,1628537121.98956,1628537121.99121,1628537122.74114,1628537122.73984,1628537325.33205,0
41,4,2,2,22,4,2,c2_WhyHand,1,helping?,37,H_474.jpg,1628536718.10211,1628536718.10448,389.873245944977,6.9987211227417,396.875856866837,398.976641407013,0.3,402.19450758934,0.683588027954102,402.879178991318,1,left,0.663547992706299,402.878095617294,604.469940414429,607.229940414429,1628537110.73536,1628537110.73694,1628537117.73797,1628537117.75165,1628537119.83875,1628537123.05662,1628537123.05865,1628537123.74129,1628537123.74021,1628537325.33205,1
41,4,2,2,22,5,2,c2_WhyHand,2,helping?,40,H_012.jpg,1628536718.10211,1628536718.10448,389.873245944977,6.9987211227417,396.875856866837,398.976641407013,0.3,403.194879999161,0.816972255706787,404.012947072983,3,right,0.796511173248291,404.011852254868,604.469940414429,607.229940414429,1628537110.73536,1628537110.73694,1628537117.73797,1628537117.75165,1628537119.83875,1628537124.05699,1628537124.05884,1628537124.87506,1628537124.87397,1628537325.33205,0
41,4,2,2,22,6,2,c2_WhyHand,1,helping?,39,H_024.jpg,1628536718.10211,1628536718.10448,389.873245944977,6.9987211227417,396.875856866837,398.976641407013,0.3,404.328636636734,1.11708307266235,405.455878009796,1,left,1.10417294502258,405.445719709396,604.469940414429,607.229940414429,1628537110.73536,1628537110.73694,1628537117.73797,1628537117.75165,1628537119.83875,1628537125.19075,1628537125.19246,1628537126.31799,1628537126.30783,1628537325.33205,1
41,4,2,2,22,7,2,c2_WhyHand,2,helping?,33,H_091.jpg,1628536718.10211,1628536718.10448,389.873245944977,6.9987211227417,396.875856866837,398.976641407013,0.3,405.762505044937,0.883662939071655,406.655882110596,3,right,0.874263048171997,406.646167984009,604.469940414429,607.229940414429,1628537110.73536,1628537110.73694,1628537117.73797,1628537117.75165,1628537119.83875,1628537126.62462,1628537126.626,1628537127.518,1628537127.50828,1628537325.33205,0
41,4,2,2,22,8,2,c2_WhyHand,1,helping?,36,H_349.jpg,1628536718.10211,1628536718.10448,389.873245944977,6.9987211227417,396.875856866837,398.976641407013,0.3,406.962952127457,0.650242328643799,407.614590873718,1,left,0.628658056259155,407.6131944561,604.469940414429,607.229940414429,1628537110.73536,1628537110.73694,1628537117.73797,1628537117.75165,1628537119.83875,1628537127.82507,1628537127.82676,1628537128.4767,1628537128.47531,1628537325.33205,1
41,4,2,2,23,1,1,c1_WhyFace,1,self-doubt?,28,F_754.jpg,1628536718.10211,1628536718.10448,407.696558942795,6.70534205436707,414.415731897354,416.516515483856,2.10078358650208,416.666571369171,0.750278472900391,417.421797027588,3,right,0.737524032592773,417.416849842072,604.469940414429,607.229940414429,1628537128.55867,1628537128.56035,1628537135.27784,1628537135.28478,1628537137.37863,1628537137.52868,1628537137.53501,1628537138.28391,1628537138.27896,1628537325.33205,0
41,4,2,2,23,2,1,c1_WhyFace,2,self-doubt?,32,F_128.jpg,1628536718.10211,1628536718.10448,407.696558942795,6.70534205436707,414.415731897354,416.516515483856,0.3,417.733636369705,1.11708235740662,418.855694046021,3,right,1.10457110404968,418.850718727112,604.469940414429,607.229940414429,1628537128.55867,1628537128.56035,1628537135.27784,1628537135.28478,1628537137.37863,1628537138.59575,1628537138.59767,1628537139.71781,1628537139.71283,1628537325.33205,0
41,4,2,2,23,3,1,c1_WhyFace,1,self-doubt?,29,F_544.jpg,1628536718.10211,1628536718.10448,407.696558942795,6.70534205436707,414.415731897354,416.516515483856,0.3,419.167503824234,0.733607053756714,419.905781974792,1,left,0.714560031890869,419.901110877991,604.469940414429,607.229940414429,1628537128.55867,1628537128.56035,1628537135.27784,1628537135.28478,1628537137.37863,1628537140.02962,1628537140.0343,1628537140.76789,1628537140.76322,1628537325.33205,1
41,4,2,2,23,4,1,c1_WhyFace,2,self-doubt?,27,F_086.jpg,1628536718.10211,1628536718.10448,407.696558942795,6.70534205436707,414.415731897354,416.516515483856,0.3,420.21789478302,0.933682441711426,421.155853023529,3,right,0.919733047485352,421.151577224731,604.469940414429,607.229940414429,1628537128.55867,1628537128.56035,1628537135.27784,1628537135.28478,1628537137.37863,1628537141.08001,1628537141.08474,1628537142.01797,1628537142.01369,1628537325.33205,0
41,4,2,2,23,5,1,c1_WhyFace,1,self-doubt?,25,F_798.jpg,1628536718.10211,1628536718.10448,407.696558942795,6.70534205436707,414.415731897354,416.516515483856,0.3,421.468362083435,0.683587312698364,422.155690898895,1,left,0.660090923309326,422.151949396133,604.469940414429,607.229940414429,1628537128.55867,1628537128.56035,1628537135.27784,1628537135.28478,1628537137.37863,1628537142.33048,1628537142.33487,1628537143.0178,1628537143.01406,1628537325.33205,1
41,4,2,2,23,6,1,c1_WhyFace,1,self-doubt?,30,F_584.jpg,1628536718.10211,1628536718.10448,407.696558942795,6.70534205436707,414.415731897354,416.516515483856,0.3,422.468734970093,0.816970825195312,423.289189090729,3,right,0.799860954284668,423.285705795288,604.469940414429,607.229940414429,1628537128.55867,1628537128.56035,1628537135.27784,1628537135.28478,1628537137.37863,1628537143.33085,1628537143.33481,1628537144.1513,1628537144.14782,1628537325.33205,0
41,4,2,2,23,7,1,c1_WhyFace,1,self-doubt?,26,F_111.jpg,1628536718.10211,1628536718.10448,407.696558942795,6.70534205436707,414.415731897354,416.516515483856,0.3,423.602491607666,0.883661985397339,424.488512029648,1,left,0.86997389793396,424.486153593063,604.469940414429,607.229940414429,1628537128.55867,1628537128.56035,1628537135.27784,1628537135.28478,1628537137.37863,1628537144.4646,1628537144.46799,1628537145.35063,1628537145.34827,1628537325.33205,1
41,4,2,2,23,8,1,c1_WhyFace,2,self-doubt?,31,F_774.jpg,1628536718.10211,1628536718.10448,407.696558942795,6.70534205436707,414.415731897354,416.516515483856,0.3,424.802939167023,0.750278949737549,425.555749883652,3,right,0.735028028488159,425.55321811676,604.469940414429,607.229940414429,1628537128.55867,1628537128.56035,1628537135.27784,1628537135.28478,1628537137.37863,1628537145.66505,1628537145.66793,1628537146.41786,1628537146.41533,1628537325.33205,0
41,4,2,2,24,1,3,c3_HowFace,1,looking to side?,71,F_433.jpg,1628536718.10211,1628536718.10448,425.653256406784,7.538738489151,433.206071844101,435.306856145859,2.10078430175781,435.456912031174,0.9170081615448,436.375593891144,1,left,0.905213117599487,436.373920192719,604.469940414429,607.229940414429,1628537146.51537,1628537146.51791,1628537154.06818,1628537154.07007,1628537156.16897,1628537156.31903,1628537156.32071,1628537157.23771,1628537157.23603,1628537325.33205,1
41,4,2,2,24,2,3,c3_HowFace,2,looking to side?,70,F_779.jpg,1628536718.10211,1628536718.10448,425.653256406784,7.538738489151,433.206071844101,435.306856145859,0.3,436.690705051422,1.11708354949951,437.809355010986,3,right,1.10504293441772,437.807788600922,604.469940414429,607.229940414429,1628537146.51537,1628537146.51791,1628537154.06818,1628537154.07007,1628537156.16897,1628537157.55282,1628537157.55476,1628537158.67147,1628537158.6699,1628537325.33205,0
41,4,2,2,24,3,3,c3_HowFace,1,looking to side?,68,F_760.jpg,1628536718.10211,1628536718.10448,425.653256406784,7.538738489151,433.206071844101,435.306856145859,0.3,438.124573221207,1.08373832702637,439.209389915466,1,left,1.06501603126526,439.208311548233,604.469940414429,607.229940414429,1628537146.51537,1628537146.51791,1628537154.06818,1628537154.07007,1628537156.16897,1628537158.98669,1628537158.98835,1628537160.0715,1628537160.07042,1628537325.33205,1
41,4,2,2,24,4,3,c3_HowFace,2,looking to side?,66,F_111.jpg,1628536718.10211,1628536718.10448,425.653256406784,7.538738489151,433.206071844101,435.306856145859,0.3,439.525096168518,0.93368124961853,440.472328891754,3,right,0.922060012817383,440.458777418137,604.469940414429,607.229940414429,1628537146.51537,1628537146.51791,1628537154.06818,1628537154.07007,1628537156.16897,1628537160.38721,1628537160.38877,1628537161.33444,1628537161.32089,1628537325.33205,0
41,4,2,2,24,5,3,c3_HowFace,2,looking to side?,65,F_798.jpg,1628536718.10211,1628536718.10448,425.653256406784,7.538738489151,433.206071844101,435.306856145859,0.3,440.775561800003,0.917008399963379,441.705203046799,1,left,0.909252166748047,441.692570199966,604.469940414429,607.229940414429,1628537146.51537,1628537146.51791,1628537154.06818,1628537154.07007,1628537156.16897,1628537161.63767,1628537161.63952,1628537162.56732,1628537162.55468,1628537325.33205,0
41,4,2,2,24,6,3,c3_HowFace,1,looking to side?,67,F_716.jpg,1628536718.10211,1628536718.10448,425.653256406784,7.538738489151,433.206071844101,435.306856145859,0.3,442.009356012344,0.933681011199951,442.944861879349,1,left,0.913700819015503,442.943037023544,604.469940414429,607.229940414429,1628537146.51537,1628537146.51791,1628537154.06818,1628537154.07007,1628537156.16897,1628537162.87147,1628537162.87333,1628537163.80697,1628537163.80515,1628537325.33205,1
41,4,2,2,24,7,3,c3_HowFace,1,looking to side?,72,F_590.jpg,1628536718.10211,1628536718.10448,425.653256406784,7.538738489151,433.206071844101,435.306856145859,0.3,443.259822120667,0.833643436431885,444.105859031677,1,left,0.82148814201355,444.093465557098,604.469940414429,607.229940414429,1628537146.51537,1628537146.51791,1628537154.06818,1628537154.07007,1628537156.16897,1628537164.12194,1628537164.12378,1628537164.96797,1628537164.95558,1628537325.33205,1
41,4,2,2,24,8,3,c3_HowFace,1,looking to side?,69,F_110.jpg,1628536718.10211,1628536718.10448,425.653256406784,7.538738489151,433.206071844101,435.306856145859,0.3,444.410250654221,0.850317716598511,445.272543897629,3,right,0.843899965286255,445.260568370819,604.469940414429,607.229940414429,1628537146.51537,1628537146.51791,1628537154.06818,1628537154.07007,1628537156.16897,1628537165.27236,1628537165.27365,1628537166.13466,1628537166.12268,1628537325.33205,0
41,4,2,2,25,1,1,c1_WhyFace,1,argument?,43,F_716.jpg,1628536718.10211,1628536718.10448,445.360604515076,5.70635843276978,451.07940410614,453.180187931061,2.10078382492065,453.330243339539,0.95035457611084,454.288542022705,1,left,0.937855958938599,454.280597915649,604.469940414429,607.229940414429,1628537166.22272,1628537166.23452,1628537171.94152,1628537171.94343,1628537174.0423,1628537174.19236,1628537174.19423,1628537175.15066,1628537175.14271,1628537325.33205,1
41,4,2,2,25,2,1,c1_WhyFace,2,argument?,44,F_139.jpg,1628536718.10211,1628536718.10448,445.360604515076,5.70635843276978,451.07940410614,453.180187931061,0.3,454.597383728027,0.683587074279785,455.288718929291,3,right,0.673555850982666,455.280970802307,604.469940414429,607.229940414429,1628537166.22272,1628537166.23452,1628537171.94152,1628537171.94343,1628537174.0423,1628537175.4595,1628537175.46111,1628537176.15083,1628537176.14308,1628537325.33205,0
41,4,2,2,25,3,1,c1_WhyFace,1,argument?,47,F_743.jpg,1628536718.10211,1628536718.10448,445.360604515076,5.70635843276978,451.07940410614,453.180187931061,0.3,455.597756137848,0.866990566253662,456.465769996643,1,left,0.849877834320068,456.464746704102,604.469940414429,607.229940414429,1628537166.22272,1628537166.23452,1628537171.94152,1628537171.94343,1628537174.0423,1628537176.45987,1628537176.46113,1628537177.32788,1628537177.32686,1628537325.33205,1
41,4,2,2,25,4,1,c1_WhyFace,1,argument?,42,F_403.jpg,1628536718.10211,1628536718.10448,445.360604515076,5.70635843276978,451.07940410614,453.180187931061,0.3,456.781530370712,0.733608245849609,457.516597976685,1,left,0.713265180587769,457.515138616562,604.469940414429,607.229940414429,1628537166.22272,1628537166.23452,1628537171.94152,1628537171.94343,1628537174.0423,1628537177.64364,1628537177.64538,1628537178.37871,1628537178.37725,1628537325.33205,1
41,4,2,2,25,5,1,c1_WhyFace,1,argument?,48,F_758.jpg,1628536718.10211,1628536718.10448,445.360604515076,5.70635843276978,451.07940410614,453.180187931061,0.3,457.831921806335,0.900336027145386,458.73378991127,1,left,0.877593040466309,458.732257833481,604.469940414429,607.229940414429,1628537166.22272,1628537166.23452,1628537171.94152,1628537171.94343,1628537174.0423,1628537178.69403,1628537178.69547,1628537179.5959,1628537179.59437,1628537325.33205,1
41,4,2,2,25,6,1,c1_WhyFace,2,argument?,46,F_844.jpg,1628536718.10211,1628536718.10448,445.360604515076,5.70635843276978,451.07940410614,453.180187931061,0.3,459.04904340744,0.566877841949463,459.621951093674,3,right,0.555546045303345,459.61592124939,604.469940414429,607.229940414429,1628537166.22272,1628537166.23452,1628537171.94152,1628537171.94343,1628537174.0423,1628537179.91116,1628537179.91323,1628537180.48406,1628537180.47803,1628537325.33205,0
41,4,2,2,25,7,1,c1_WhyFace,1,argument?,41,F_712.jpg,1628536718.10211,1628536718.10448,445.360604515076,5.70635843276978,451.07940410614,453.180187931061,0.3,459.932706823349,1.13375473022461,461.07287191391,1,left,1.11313414573669,461.066461553574,604.469940414429,607.229940414429,1628537166.22272,1628537166.23452,1628537171.94152,1628537171.94343,1628537174.0423,1628537180.79482,1628537180.79668,1628537181.93498,1628537181.92857,1628537325.33205,1
41,4,2,2,25,8,1,c1_WhyFace,2,argument?,45,F_433.jpg,1628536718.10211,1628536718.10448,445.360604515076,5.70635843276978,451.07940410614,453.180187931061,0.3,461.383247127533,0.0166726112365723,461.405513038635,3,right,0.000216007232666016,461.39991973877,604.469940414429,607.229940414429,1628537166.22272,1628537166.23452,1628537171.94152,1628537171.94343,1628537174.0423,1628537182.24536,1628537182.24742,1628537182.26763,1628537182.26203,1628537325.33205,0
41,4,2,2,26,1,3,c3_HowFace,1,open mouth?,80,F_844.jpg,1628536718.10211,1628536718.10448,461.483283987045,8.69160604476929,470.186530103683,472.28731297493,2.10078287124634,472.437368383408,0.483514547348022,472.922750940323,1,left,0.466930866241455,472.920882930756,604.469940414429,607.229940414429,1628537182.3454,1628537182.35127,1628537191.04864,1628537191.05143,1628537193.14943,1628537193.29948,1628537193.30117,1628537193.78486,1628537193.783,1628537325.33205,1
41,4,2,2,26,2,3,c3_HowFace,1,open mouth?,78,F_692.jpg,1628536718.10211,1628536718.10448,461.483283987045,8.69160604476929,470.186530103683,472.28731297493,0.3,473.237667789459,0.50018572807312,473.738969078064,1,left,0.489099025726318,473.737853517532,604.469940414429,607.229940414429,1628537182.3454,1628537182.35127,1628537191.04864,1628537191.05143,1628537193.14943,1628537194.09978,1628537194.10129,1628537194.60108,1628537194.59997,1628537325.33205,1
41,4,2,2,26,3,3,c3_HowFace,2,open mouth?,77,F_584.jpg,1628536718.10211,1628536718.10448,461.483283987045,8.69160604476929,470.186530103683,472.28731297493,0.3,474.054638853073,0.500186920166016,474.555999031067,3,right,0.488703012466431,474.554825773239,604.469940414429,607.229940414429,1628537182.3454,1628537182.35127,1628537191.04864,1628537191.05143,1628537193.14943,1628537194.91675,1628537194.91841,1628537195.41811,1628537195.41694,1628537325.33205,0
41,4,2,2,26,4,3,c3_HowFace,1,open mouth?,75,F_086.jpg,1628536718.10211,1628536718.10448,461.483283987045,8.69160604476929,470.186530103683,472.28731297493,0.3,474.87161110878,0.616896390914917,475.490194072723,1,left,0.602067947387695,475.488507499695,604.469940414429,607.229940414429,1628537182.3454,1628537182.35127,1628537191.04864,1628537191.05143,1628537193.14943,1628537195.73372,1628537195.73496,1628537196.35231,1628537196.35062,1628537325.33205,1
41,4,2,2,26,5,3,c3_HowFace,1,open mouth?,73,F_403.jpg,1628536718.10211,1628536718.10448,461.483283987045,8.69160604476929,470.186530103683,472.28731297493,0.3,475.805291881561,0.616897106170654,476.423943986893,1,left,0.594379186630249,476.422188987732,604.469940414429,607.229940414429,1628537182.3454,1628537182.35127,1628537191.04864,1628537191.05143,1628537193.14943,1628537196.6674,1628537196.66902,1628537197.28606,1628537197.2843,1628537325.33205,1
41,4,2,2,26,6,3,c3_HowFace,2,open mouth?,76,F_544.jpg,1628536718.10211,1628536718.10448,461.483283987045,8.69160604476929,470.186530103683,472.28731297493,0.3,476.738973369598,0.58355188369751,477.324357976913,3,right,0.561478137969971,477.322525253296,604.469940414429,607.229940414429,1628537182.3454,1628537182.35127,1628537191.04864,1628537191.05143,1628537193.14943,1628537197.60109,1628537197.60245,1628537198.18647,1628537198.18464,1628537325.33205,0
41,4,2,2,26,7,3,c3_HowFace,2,open mouth?,79,F_648.jpg,1628536718.10211,1628536718.10448,461.483283987045,8.69160604476929,470.186530103683,472.28731297493,0.3,477.639308919907,0.583550691604614,478.22396897316,3,right,0.567899942398071,478.222859611511,604.469940414429,607.229940414429,1628537182.3454,1628537182.35127,1628537191.04864,1628537191.05143,1628537193.14943,1628537198.50142,1628537198.50317,1628537199.08608,1628537199.08497,1628537325.33205,0
41,4,2,2,26,8,3,c3_HowFace,1,open mouth?,74,F_776.jpg,1628536718.10211,1628536718.10448,461.483283987045,8.69160604476929,470.186530103683,472.28731297493,0.3,478.539645185471,0.566878318786621,479.121824016571,1,left,0.558925151824951,479.106523504257,604.469940414429,607.229940414429,1628537182.3454,1628537182.35127,1628537191.04864,1628537191.05143,1628537193.14943,1628537199.40176,1628537199.40329,1628537199.98394,1628537199.96864,1628537325.33205,1
41,4,2,2,27,1,4,c4_HowHand,1,lifting?,54,H_170.jpg,1628536718.10211,1628536718.10448,479.20656036377,9.93232560157776,489.1435987854,491.24438284874,2.10078406333923,491.394438972473,0.533532381057739,491.938565006256,1,left,0.513856172561646,491.927971353531,604.469940414429,607.229940414429,1628537200.06867,1628537200.07037,1628537210.00571,1628537210.01816,1628537212.1065,1628537212.25655,1628537212.268,1628537212.80068,1628537212.79008,1628537325.33205,1
41,4,2,2,27,2,4,c4_HowHand,2,lifting?,53,H_077.jpg,1628536718.10211,1628536718.10448,479.20656036377,9.93232560157776,489.1435987854,491.24438284874,0.3,492.244755973816,1.0337188243866,493.288867940903,3,right,1.02537083625793,493.278474798203,604.469940414429,607.229940414429,1628537200.06867,1628537200.07037,1628537210.00571,1628537210.01816,1628537212.1065,1628537213.10687,1628537213.10871,1628537214.15098,1628537214.14059,1628537325.33205,0
41,4,2,2,27,3,4,c4_HowHand,1,lifting?,52,H_189.jpg,1628536718.10211,1628536718.10448,479.20656036377,9.93232560157776,489.1435987854,491.24438284874,0.3,493.595259418488,0.68358850479126,494.288930883408,1,left,0.671263933181763,494.278847923279,604.469940414429,607.229940414429,1628537200.06867,1628537200.07037,1628537210.00571,1628537210.01816,1628537212.1065,1628537214.45737,1628537214.45906,1628537215.15104,1628537215.14096,1628537325.33205,1
41,4,2,2,27,4,4,c4_HowHand,1,lifting?,49,H_362.jpg,1628536718.10211,1628536718.10448,479.20656036377,9.93232560157776,489.1435987854,491.24438284874,0.3,494.595632543564,0.650242567062378,495.247833003998,1,left,0.63100790977478,495.245875110626,604.469940414429,607.229940414429,1628537200.06867,1628537200.07037,1628537210.00571,1628537210.01816,1628537212.1065,1628537215.45775,1628537215.45977,1628537216.10995,1628537216.10799,1628537325.33205,1
41,4,2,2,27,5,4,c4_HowHand,2,lifting?,55,H_012.jpg,1628536718.10211,1628536718.10448,479.20656036377,9.93232560157776,489.1435987854,491.24438284874,0.3,495.562659492493,0.80029821395874,496.364097108841,3,right,0.779566049575806,496.362957706451,604.469940414429,607.229940414429,1628537200.06867,1628537200.07037,1628537210.00571,1628537210.01816,1628537212.1065,1628537216.42477,1628537216.42669,1628537217.22621,1628537217.22507,1628537325.33205,0
41,4,2,2,27,6,4,c4_HowHand,1,lifting?,50,H_443.jpg,1628536718.10211,1628536718.10448,479.20656036377,9.93232560157776,489.1435987854,491.24438284874,0.3,496.679743041992,0.600224256515503,497.289109935761,1,left,0.589395999908447,497.279967298508,604.469940414429,607.229940414429,1628537200.06867,1628537200.07037,1628537210.00571,1628537210.01816,1628537212.1065,1628537217.54186,1628537217.5434,1628537218.15122,1628537218.14208,1628537325.33205,1
41,4,2,2,27,7,4,c4_HowHand,1,lifting?,56,H_136.jpg,1628536718.10211,1628536718.10448,479.20656036377,9.93232560157776,489.1435987854,491.24438284874,0.3,497.596752157211,0.816971063613892,498.421960105896,1,left,0.809842109680176,498.413723220825,604.469940414429,607.229940414429,1628537200.06867,1628537200.07037,1628537210.00571,1628537210.01816,1628537212.1065,1628537218.45887,1628537218.46053,1628537219.28407,1628537219.27584,1628537325.33205,1
41,4,2,2,27,8,4,c4_HowHand,2,lifting?,51,H_038.jpg,1628536718.10211,1628536718.10448,479.20656036377,9.93232560157776,489.1435987854,491.24438284874,0.3,498.730508079529,1.01704597473145,499.74932598114,3,right,1.00006699562073,499.74755405426,604.469940414429,607.229940414429,1628537200.06867,1628537200.07037,1628537210.00571,1628537210.01816,1628537212.1065,1628537219.59262,1628537219.59426,1628537220.61144,1628537220.60967,1628537325.33205,0
