onset	duration	trial_type	pmod_accuracy	image_fname
8.173419952392578	1.0503900051116943	dummy		obj088drawer.png
10.257529973983765	1.01705002784729	dummy		obj112fountain.png
12.308300018310547	1.0170400142669678	dummy		obj169lips.png
14.342390060424805	1.0337200164794922	study		obj321unicorn.png
16.393150091171265	1.0337200164794922	study		obj082doctor.png
18.443919897079468	1.0337200164794922	study		obj207pants.png
20.494679927825928	1.01705002784729	study		obj299tent.png
22.54544997215271	1.0170400142669678	study		obj130hammock.png
24.59621000289917	1.01705002784729	study		obj178mask.png
26.646980047225952	1.0170400142669678	study		obj255sailor.png
28.697740077972412	1.01705002784729	study		obj161lamp.png
30.73182988166809	1.01705002784729	study		obj347zebra.png
32.76592993736267	1.0170400142669678	study		obj116genie.png
34.80001997947693	1.0170400142669678	study		obj065clown.png
36.83411002159119	1.01705002784729	study		obj125guitar.png
38.868200063705444	1.01705002784729	study		obj044cake.png
40.9022901058197	1.017049789428711	study		obj332well.png
42.93637990951538	1.01705002784729	study		obj017barbecue.png
44.97047996520996	1.0170400142669678	study		obj319typewriter.png
47.00457000732422	1.01705002784729	study		obj221pinecone.png
49.03866004943848	1.01705002784729	study		obj192nail.png
51.072750091552734	1.017049789428711	study		obj077deer.png
53.10683989524841	1.01705002784729	study		obj338whistle.png
55.14093995094299	1.0170400142669678	dummy		obj210peacock.png
57.17502999305725	1.0337200164794922	dummy		obj259scarf.png
59.22579002380371	1.0337200164794922	dummy		obj285squirrel.png
308.85222005844116	1.0170400142669678	dummy		obj023belt.png
310.8863101005554	1.017049789428711	dummy		obj025binoculars.png
312.9203999042511	1.01705002784729	dummy		obj212pear.png
314.95448994636536	1.01705002784729	study		obj027blimp.png
316.9885799884796	1.01705002784729	study		obj238rain.png
319.0226800441742	1.0170400142669678	study		obj291swing.png
321.05677008628845	1.017049789428711	study		obj243robot.png
323.09085988998413	1.01705002784729	study		obj033bottle.png
325.1249499320984	1.01705002784729	study		obj067comb.png
327.15903997421265	1.01705002784729	study		obj230priest.png
329.1931400299072	1.0337200164794922	study		obj280sofa.png
331.2439000606537	1.0337200164794922	study		obj115funnel.png
333.29467010498047	1.0170397758483887	study		obj209paperclip.png
335.34542989730835	1.01705002784729	study		obj227plug.png
337.3795199394226	1.01705002784729	study		obj071cowboy.png
339.4302899837494	1.0170400142669678	study		obj276snail.png
341.48105001449585	1.01705002784729	study		obj059chicken.png
343.5151400566101	1.01705002784729	study		obj142hook.png
345.5492401123047	1.0170397758483887	study		obj173lock.png
347.58332991600037	1.01705002784729	study		obj196nose.png
349.6174199581146	1.01705002784729	study		obj226plate.png
351.6515100002289	1.01705002784729	study		obj236raccoon.png
353.68560004234314	1.01705002784729	study		obj200orange.png
355.7197000980377	1.0170400142669678	dummy		obj267shower.png
357.7537899017334	1.0170400142669678	dummy		obj300thermos.png
359.78787994384766	1.01705002784729	dummy		obj315trumpet.png
189.27429008483887	1.3456900119781494	test	1	obj221pinecone.png
191.85858988761902	0.7347300052642822	test	1	obj127hair.png
194.40953993797302	0.7790601253509521	test	1	obj095envelope.png
197.0938699245453	1.0254499912261963	test	1	obj342wing.png
199.8282299041748	1.1407701969146729	test	1	obj244rock.png
202.76265001296997	0.8692700862884521	test	1	obj130hammock.png
205.7637701034546	0.7782998085021973	test	1	obj006apple.png
208.63151001930237	0.8726799488067627	test	1	obj252ruler.png
211.36585998535156	0.7915298938751221	test	1	obj224pitchfork.png
214.31696009635925	1.0044097900390625	test	1	obj161lamp.png
217.1013400554657	0.7243499755859375	test	1	obj094elephant.png
219.70231008529663	0.8464899063110352	test	1	obj207pants.png
222.35329008102417	0.7825000286102295	test	1	obj202package.png
225.22102999687195	0.723059892654419	test	1	obj338whistle.png
227.9053599834442	0.9460101127624512	test	1	obj347zebra.png
230.50634002685547	0.7400100231170654	test	1	obj255sailor.png
233.5241301059723	0.7519299983978271	test	1	obj157knife.png
236.55858993530273	0.7901101112365723	test	1	obj332well.png
239.17622995376587	1.63493013381958	test	1	obj337whip.png
241.96060991287231	0.7282099723815918	test	1	obj065clown.png
244.89503002166748	0.7730698585510254	test	1	obj030bone.png
247.54602003097534	0.8218300342559814	test	1	obj178mask.png
250.48044991493225	0.6289401054382324	test	1	obj044cake.png
253.3648600578308	0.7865400314331055	test	1	obj321unicorn.png
256.265939950943	0.6274199485778809	test	1	obj125guitar.png
258.8835799694061	0.9433000087738037	test	1	obj319typewriter.png
261.8180100917816	0.9424200057983398	test	1	obj035box.png
264.35228991508484	0.8182101249694824	test	1	obj192nail.png
267.2367000579834	1.3961398601531982	test	1	obj002acorn.png
270.1877999305725	1.046410083770752	test	1	obj246rockingchair.png
272.9221498966217	1.3438701629638672	test	1	obj326violin.png
275.48977994918823	0.7290301322937012	test	1	obj017barbecue.png
278.32417011260986	1.0799498558044434	test	1	obj273sled.png
281.1919000148773	0.6222400665283203	test	1	obj299tent.png
284.02628993988037	0.7026901245117188	test	1	obj116genie.png
286.94405007362366	0.8081400394439697	test	1	obj077deer.png
289.67840003967285	0.902519941329956	test	1	obj138helmet.png
292.62949991226196	0.9926199913024902	test	1	obj001accordion.png
295.34717988967896	1.0152699947357178	test	1	obj043cage.png
298.1482300758362	0.7238500118255615	test	1	obj082doctor.png
489.91973996162415	0.9293200969696045	test	0	obj236raccoon.png
492.90419006347656	0.7482099533081055	test	1	obj283spider.png
495.6718900203705	0.8987400531768799	test	1	obj058chest.png
498.2228400707245	0.8581099510192871	test	1	obj345wrench.png
500.8404800891876	0.7206599712371826	test	1	obj122glove.png
503.6582000255585	0.8608400821685791	test	1	obj282spatula.png
506.5092599391937	0.805570125579834	test	1	obj027blimp.png
509.06020998954773	0.7458100318908691	test	1	obj243robot.png
511.8779299259186	0.8188400268554688	test	1	obj059chicken.png
514.4788999557495	0.692039966583252	test	1	obj200orange.png
517.3132898807526	0.9055700302124023	test	1	obj181microphone.png
520.0976600646973	1.145589828491211	test	1	obj195net.png
523.132129907608	0.9525799751281738	test	1	obj107flower.png
525.9998600482941	0.994879961013794	test	1	obj226plate.png
528.9676399230957	1.052690029144287	test	1	obj242road.png
531.9854300022125	0.9367198944091797	test	1	obj276snail.png
534.5697300434113	0.7884500026702881	test	1	obj115funnel.png
537.3874399662018	0.9643499851226807	test	1	obj323vacuum.png
539.9384000301361	0.798569917678833	test	1	obj227plug.png
542.5060200691223	0.9082798957824707	test	1	obj196nose.png
545.140340089798	0.9923198223114014	test	1	obj329walrus.png
548.1247799396515	0.8722400665283203	test	1	obj230priest.png
550.7424199581146	1.301759958267212	test	1	obj033bottle.png
553.3433899879456	0.6869099140167236	test	1	obj204palmtree.png
556.277820110321	1.2061498165130615	test	1	obj335wheelbarrow.png
559.1122100353241	1.2033500671386719	test	1	obj173lock.png
561.9632799625397	0.7194900512695312	test	1	obj297telescope.png
564.9477200508118	0.7916100025177002	test	1	obj209paperclip.png
567.5820400714874	1.0358898639678955	test	1	obj261scorpion.png
570.5998299121857	0.8454799652099609	test	1	obj066dime.png
573.1674499511719	0.6628601551055908	test	0	obj280sofa.png
575.9184799194336	1.2913100719451904	test	0	obj142hook.png
578.5694699287415	0.9486401081085205	test	1	obj274slide.png
581.5372400283813	0.7074198722839355	test	1	obj190mousetrap.png
584.3716299533844	0.8954000473022461	test	1	obj238rain.png
587.3894200325012	0.5245299339294434	test	1	obj067comb.png
590.1237800121307	1.126349925994873	test	0	obj055chair.png
592.9915099143982	0.7012200355529785	test	1	obj071cowboy.png
595.9092700481415	0.7614500522613525	test	1	obj291swing.png
598.7936799526215	1.574350118637085	test	1	obj318tweezers.png
71.51371002197266	25.0	math		
99.59084987640381	25.0	math		
127.66797995567322	25.0	math		
155.72845005989075	25.0	math		
371.99242997169495	25.0	math		
400.0529000759125	25.0	math		
428.1133599281311	25.0	math		
456.1738200187683	25.0	math		
