src_subject_id,session_id,run_id,param_counterbalance_ver,param_block_num,param_trial_num,param_cond_type_num,param_cond_type_string,param_normative_response,param_ques_type_string,param_image_num,param_image_filename,param_trigger_onset,param_start_biopac,event01_fixation,event01_fixation_dur,event01_blockquestion_onset,event01_block_isi_blacksreen,event01_blockquestion_dur,event02_image_onset,event02_image_dur,event03_response_onset,event03_response_key,event03_response_keyname,event03_RT,event04_shortquestion_onset,param_end_instruct_onset,param_experiment_duration,RAW_e1_fixation,RAW_e1_fixation_biopac,RAW_e1_blockquestion_onset,RAW_e1_blockquestion_onset_biopac,RAW_e1_block_isi_blacksreen,RAW_e2_image_onset,RAW_e2_image_onset_biopac,RAW_e3_response_onset,RAW_e4_shortquestion_onset,RAW_param_end_instruct_onset,accuracy
128,4,2,1,1,1,4,c4_HowHand,1,reaching?,106,H_006.jpg,1654034120.69332,1654034120.69471,0.01889609336853,0.0232689380645752,0.0522420310974119,2.11967944145203,2.06743741035461,2.26973484992981,1.2838122844696,3.55601500511169,1,left,1.25526094436646,3.55354713439941,604.47764538765,607.23764538765,1654034123.47221,1654034123.47677,1654034123.50556,1654034123.50687,1654034125.573,1654034125.72305,1654034125.72494,1654034127.00933,1654034127.00687,1654034727.93096,1
128,4,2,1,1,2,4,c4_HowHand,2,reaching?,105,H_438.jpg,1654034120.69332,1654034120.69471,0.01889609336853,0.0232689380645752,0.0522420310974119,2.11967944145203,0.3,3.87033151626587,1.46721434593201,5.33961819648743,3,right,1.44710779190063,5.33754586219788,604.47764538765,607.23764538765,1654034123.47221,1654034123.47677,1654034123.50556,1654034123.50687,1654034125.573,1654034127.32365,1654034127.32544,1654034128.79294,1654034128.79086,1654034727.93096,0
128,4,2,1,1,3,4,c4_HowHand,1,reaching?,111,H_003.jpg,1654034120.69332,1654034120.69471,0.01889609336853,0.0232689380645752,0.0522420310974119,2.11967944145203,0.3,5.65433048248291,1.35050439834595,7.00727819442749,1,left,1.32884097099304,7.00483488082886,604.47764538765,607.23764538765,1654034123.47221,1654034123.47677,1654034123.50556,1654034123.50687,1654034125.573,1654034129.10765,1654034129.10947,1654034130.4606,1654034130.45815,1654034727.93096,1
128,4,2,1,1,4,4,c4_HowHand,1,reaching?,109,H_474.jpg,1654034120.69332,1654034120.69471,0.01889609336853,0.0232689380645752,0.0522420310974119,2.11967944145203,0.3,7.32161783218384,1.58392524719238,8.90765904426575,1,left,1.57031893730164,8.90554307937622,604.47764538765,607.23764538765,1654034123.47221,1654034123.47677,1654034123.50556,1654034123.50687,1654034125.573,1654034130.77494,1654034130.77698,1654034132.36098,1654034132.35886,1654034727.93096,1
128,4,2,1,1,5,4,c4_HowHand,2,reaching?,108,H_532.jpg,1654034120.69332,1654034120.69471,0.01889609336853,0.0232689380645752,0.0522420310974119,2.11967944145203,0.3,9.22232793807983,0.917009115219116,10.1435332202911,3,right,0.894612789154053,10.139337053299,604.47764538765,607.23764538765,1654034123.47221,1654034123.47677,1654034123.50556,1654034123.50687,1654034125.573,1654034132.67565,1654034132.67845,1654034133.59685,1654034133.59265,1654034727.93096,0
128,4,2,1,1,6,4,c4_HowHand,1,reaching?,110,H_364.jpg,1654034120.69332,1654034120.69471,0.01889609336853,0.0232689380645752,0.0522420310974119,2.11967944145203,0.3,10.4561214351654,1.13375544548035,11.6029260063171,1,left,1.12279295921326,11.5898768806458,604.47764538765,607.23764538765,1654034123.47221,1654034123.47677,1654034123.50556,1654034123.50687,1654034125.573,1654034133.90944,1654034133.91117,1654034135.05624,1654034135.04319,1654034727.93096,1
128,4,2,1,1,7,4,c4_HowHand,1,reaching?,107,H_007.jpg,1654034120.69332,1654034120.69471,0.01889609336853,0.0232689380645752,0.0522420310974119,2.11967944145203,0.3,11.9066615009308,0.683589458465576,12.5913610363007,1,left,0.662727117538452,12.5902509593964,604.47764538765,607.23764538765,1654034123.47221,1654034123.47677,1654034123.50556,1654034123.50687,1654034125.573,1654034135.35998,1654034135.36161,1654034136.04468,1654034136.04357,1654034727.93096,1
128,4,2,1,1,8,4,c4_HowHand,2,reaching?,112,H_132.jpg,1654034120.69332,1654034120.69471,0.01889609336853,0.0232689380645752,0.0522420310974119,2.11967944145203,0.3,12.9070360565186,0.950353622436523,13.8591492080688,3,right,0.93488883972168,13.8573896789551,604.47764538765,607.23764538765,1654034123.47221,1654034123.47677,1654034123.50556,1654034123.50687,1654034125.573,1654034136.36035,1654034136.36189,1654034137.31247,1654034137.31071,1654034727.93096,0
128,4,2,1,2,1,2,c2_WhyHand,1,healthy?,18,H_438.jpg,1654034120.69332,1654034120.69471,13.9907739067078,4.97461128234863,18.9759645366669,21.0767490768433,2.10078454017639,21.2268052005768,0.850316524505615,22.0795330905914,1,left,0.831537961959839,22.0771217250824,604.47764538765,607.23764538765,1654034137.44409,1654034137.44574,1654034142.42928,1654034142.44073,1654034144.53007,1654034144.68012,1654034144.68213,1654034145.53285,1654034145.53044,1654034727.93096,1
128,4,2,1,2,2,2,c2_WhyHand,2,healthy?,20,H_007.jpg,1654034120.69332,1654034120.69471,13.9907739067078,4.97461128234863,18.9759645366669,21.0767490768433,0.3,22.3939068222046,1.48388671875,23.8861131572723,1,left,1.47541499137878,23.8777935409546,604.47764538765,607.23764538765,1654034137.44409,1654034137.44574,1654034142.42928,1654034142.44073,1654034144.53007,1654034145.84722,1654034145.84929,1654034147.33943,1654034147.33111,1654034727.93096,0
128,4,2,1,2,3,2,c2_WhyHand,1,healthy?,23,H_364.jpg,1654034120.69332,1654034120.69471,13.9907739067078,4.97461128234863,18.9759645366669,21.0767490768433,0.3,24.1945776844025,0.0166733264923096,24.2200300598145,1,left,0.000267982482910156,24.2112510108948,604.47764538765,607.23764538765,1654034137.44409,1654034137.44574,1654034142.42928,1654034142.44073,1654034144.53007,1654034147.6479,1654034147.64942,1654034147.67335,1654034147.66457,1654034727.93096,1
128,4,2,1,2,4,2,c2_WhyHand,2,healthy?,24,H_019.jpg,1654034120.69332,1654034120.69471,13.9907739067078,4.97461128234863,18.9759645366669,21.0767490768433,0.3,24.5280356311798,1.18377494812012,25.7132000827789,3,right,1.16576409339905,25.7118105792999,604.47764538765,607.23764538765,1654034137.44409,1654034137.44574,1654034142.42928,1654034142.44073,1654034144.53007,1654034147.98135,1654034147.98347,1654034149.16652,1654034149.16513,1654034727.93096,0
128,4,2,1,2,5,2,c2_WhyHand,1,healthy?,19,H_167.jpg,1654034120.69332,1654034120.69471,13.9907739067078,4.97461128234863,18.9759645366669,21.0767490768433,0.3,26.0285947227478,0.750280141830444,26.7862510585785,1,left,0.736945867538452,26.7788748645782,604.47764538765,607.23764538765,1654034137.44409,1654034137.44574,1654034142.42928,1654034142.44073,1654034144.53007,1654034149.48191,1654034149.48375,1654034150.23957,1654034150.23219,1654034727.93096,1
128,4,2,1,2,6,2,c2_WhyHand,2,healthy?,22,H_130.jpg,1654034120.69332,1654034120.69471,13.9907739067078,4.97461128234863,18.9759645366669,21.0767490768433,0.3,27.0956599617004,0.933682203292847,28.0362670326233,3,right,0.922205924987793,28.0293421649933,604.47764538765,607.23764538765,1654034137.44409,1654034137.44574,1654034142.42928,1654034142.44073,1654034144.53007,1654034150.54898,1654034150.55049,1654034151.48958,1654034151.48266,1654034727.93096,0
128,4,2,1,2,7,2,c2_WhyHand,1,healthy?,21,H_627.jpg,1654034120.69332,1654034120.69471,13.9907739067078,4.97461128234863,18.9759645366669,21.0767490768433,0.3,28.346125831604,0.783626556396484,29.1316840553284,1,left,0.76228404045105,29.1297523880005,604.47764538765,607.23764538765,1654034137.44409,1654034137.44574,1654034142.42928,1654034142.44073,1654034144.53007,1654034151.79944,1654034151.80118,1654034152.585,1654034152.58307,1654034727.93096,1
128,4,2,1,2,8,2,c2_WhyHand,1,healthy?,17,H_362.jpg,1654034120.69332,1654034120.69471,13.9907739067078,4.97461128234863,18.9759645366669,21.0767490768433,0.3,29.4465372467041,0.833643913269043,30.2863030338287,1,left,0.815072059631348,30.2801811599731,604.47764538765,607.23764538765,1654034137.44409,1654034137.44574,1654034142.42928,1654034142.44073,1654034144.53007,1654034152.89986,1654034152.90196,1654034153.73962,1654034153.7335,1654034727.93096,1
128,4,2,1,3,1,1,c1_WhyFace,1,proud?,101,F_083.jpg,1654034120.69332,1654034120.69471,30.3635449314117,11.0835211277008,41.451012840271,43.5517964267731,2.10078358650208,43.7018532657623,1.08373641967773,44.7865211868286,1,left,1.07399797439575,44.7855896854401,604.47764538765,607.23764538765,1654034153.81686,1654034153.82329,1654034164.90433,1654034164.90693,1654034167.00511,1654034167.15517,1654034167.15694,1654034168.23984,1654034168.23891,1654034727.93096,1
128,4,2,1,3,2,1,c1_WhyFace,2,proud?,98,F_412.jpg,1654034120.69332,1654034120.69471,30.3635449314117,11.0835211277008,41.451012840271,43.5517964267731,0.3,45.1023750209808,0.666914463043213,45.7708110713959,3,right,0.655719995498657,45.769289484024,604.47764538765,607.23764538765,1654034153.81686,1654034153.82329,1654034164.90433,1654034164.90693,1654034167.00511,1654034168.55569,1654034168.55754,1654034169.22413,1654034169.22261,1654034727.93096,0
128,4,2,1,3,3,1,c1_WhyFace,1,proud?,99,F_695.jpg,1654034120.69332,1654034120.69471,30.3635449314117,11.0835211277008,41.451012840271,43.5517964267731,0.3,46.0860750579834,0.733607053756714,46.8206241035461,1,left,0.723664045333862,46.8196821117401,604.47764538765,607.23764538765,1654034153.81686,1654034153.82329,1654034164.90433,1654034164.90693,1654034167.00511,1654034169.53939,1654034169.541,1654034170.27394,1654034170.273,1654034727.93096,1
128,4,2,1,3,4,1,c1_WhyFace,1,proud?,104,F_598.jpg,1654034120.69332,1654034120.69471,30.3635449314117,11.0835211277008,41.451012840271,43.5517964267731,0.3,47.1364669704437,0.65024209022522,47.7877690696716,1,left,0.630490064620972,47.7867090606689,604.47764538765,607.23764538765,1654034153.81686,1654034153.82329,1654034164.90433,1654034164.90693,1654034167.00511,1654034170.58978,1654034170.59162,1654034171.24109,1654034171.24003,1654034727.93096,1
128,4,2,1,3,5,1,c1_WhyFace,1,proud?,103,F_618.jpg,1654034120.69332,1654034120.69471,30.3635449314117,11.0835211277008,41.451012840271,43.5517964267731,0.3,48.103495349884,0.666914701461792,48.772210111618,1,left,0.648849010467529,48.7704100513458,604.47764538765,607.23764538765,1654034153.81686,1654034153.82329,1654034164.90433,1654034164.90693,1654034167.00511,1654034171.55681,1654034171.55847,1654034172.22553,1654034172.22373,1654034727.93096,1
128,4,2,1,3,6,1,c1_WhyFace,1,proud?,97,F_582.jpg,1654034120.69332,1654034120.69471,30.3635449314117,11.0835211277008,41.451012840271,43.5517964267731,0.3,49.0871941947937,0.683588743209839,49.7723221683502,1,left,0.666222095489502,49.7707829380035,604.47764538765,607.23764538765,1654034153.81686,1654034153.82329,1654034164.90433,1654034164.90693,1654034167.00511,1654034172.54051,1654034172.54217,1654034173.22564,1654034173.2241,1654034727.93096,1
128,4,2,1,3,7,1,c1_WhyFace,2,proud?,102,F_760.jpg,1654034120.69332,1654034120.69471,30.3635449314117,11.0835211277008,41.451012840271,43.5517964267731,0.3,50.0875685119629,0.683587551116943,50.7722391986847,3,right,0.663863182067871,50.7711560630798,604.47764538765,607.23764538765,1654034153.81686,1654034153.82329,1654034164.90433,1654034164.90693,1654034167.00511,1654034173.54089,1654034173.54279,1654034174.22556,1654034174.22447,1654034727.93096,0
128,4,2,1,3,8,1,c1_WhyFace,2,proud?,100,F_776.jpg,1654034120.69332,1654034120.69471,30.3635449314117,11.0835211277008,41.451012840271,43.5517964267731,0.3,51.0879413986206,0.766951322555542,51.8566141033173,3,right,0.749231100082397,51.8548927211761,604.47764538765,607.23764538765,1654034153.81686,1654034153.82329,1654034164.90433,1654034164.90693,1654034167.00511,1654034174.54126,1654034174.54279,1654034175.30993,1654034175.30821,1654034727.93096,0
128,4,2,1,4,1,3,c3_HowFace,1,smiling?,115,F_695.jpg,1654034120.69332,1654034120.69471,51.9382579231262,7.38390326499939,59.3410172367096,61.425129404068,2.0841121673584,61.5751845741272,0.650242567062378,62.2368960285187,1,left,0.630702018737793,62.2254271411896,604.47764538765,607.23764538765,1654034175.39158,1654034175.40653,1654034182.79434,1654034182.79673,1654034184.87845,1654034185.0285,1654034185.04034,1654034185.69021,1654034185.67875,1654034727.93096,1
128,4,2,1,4,2,3,c3_HowFace,2,smiling?,114,F_412.jpg,1654034120.69332,1654034120.69471,51.9382579231262,7.38390326499939,59.3410172367096,61.425129404068,0.3,62.542211523056,0.566878080368042,63.1101350688934,3,right,0.547493934631348,63.1090896034241,604.47764538765,607.23764538765,1654034175.39158,1654034175.40653,1654034182.79434,1654034182.79673,1654034184.87845,1654034185.99553,1654034185.99727,1654034186.56345,1654034186.56241,1654034727.93096,0
128,4,2,1,4,3,3,c3_HowFace,1,smiling?,116,F_083.jpg,1654034120.69332,1654034120.69471,51.9382579231262,7.38390326499939,59.3410172367096,61.425129404068,0.3,63.4258742237091,0.58355188369751,64.0198130512237,1,left,0.57035493850708,64.0094261074066,604.47764538765,607.23764538765,1654034175.39158,1654034175.40653,1654034182.79434,1654034182.79673,1654034184.87845,1654034186.87919,1654034186.88088,1654034187.47313,1654034187.46274,1654034727.93096,1
128,4,2,1,4,4,3,c3_HowFace,1,smiling?,117,F_593.jpg,1654034120.69332,1654034120.69471,51.9382579231262,7.38390326499939,59.3410172367096,61.425129404068,0.3,64.3262109661102,0.683588027954102,65.0115220451355,1,left,0.666202068328857,65.0097989940643,604.47764538765,607.23764538765,1654034175.39158,1654034175.40653,1654034182.79434,1654034182.79673,1654034184.87845,1654034187.77953,1654034187.78126,1654034188.46484,1654034188.46312,1654034727.93096,1
128,4,2,1,4,5,3,c3_HowFace,2,smiling?,113,F_712.jpg,1654034120.69332,1654034120.69471,51.9382579231262,7.38390326499939,59.3410172367096,61.425129404068,0.3,65.3265840911865,0.600223541259766,65.9368441009521,3,right,0.59047794342041,65.9268076324463,604.47764538765,607.23764538765,1654034175.39158,1654034175.40653,1654034182.79434,1654034182.79673,1654034184.87845,1654034188.7799,1654034188.78154,1654034189.39016,1654034189.38013,1654034727.93096,0
128,4,2,1,4,6,3,c3_HowFace,1,smiling?,119,F_139.jpg,1654034120.69332,1654034120.69471,51.9382579231262,7.38390326499939,59.3410172367096,61.425129404068,0.3,66.2435922527313,0.58355188369751,66.8287551307678,1,left,0.564169883728027,66.8271441364288,604.47764538765,607.23764538765,1654034175.39158,1654034175.40653,1654034182.79434,1654034182.79673,1654034184.87845,1654034189.69691,1654034189.69832,1654034190.28207,1654034190.28046,1654034727.93096,1
128,4,2,1,4,7,3,c3_HowFace,1,smiling?,118,F_759.jpg,1654034120.69332,1654034120.69471,51.9382579231262,7.38390326499939,59.3410172367096,61.425129404068,0.3,67.1439280414581,0.550204753875732,67.7033560180664,1,left,0.54294490814209,67.6941327953339,604.47764538765,607.23764538765,1654034175.39158,1654034175.40653,1654034182.79434,1654034182.79673,1654034184.87845,1654034190.59725,1654034190.59937,1654034191.15667,1654034191.14745,1654034727.93096,1
128,4,2,1,4,8,3,c3_HowFace,2,smiling?,120,F_758.jpg,1654034120.69332,1654034120.69471,51.9382579231262,7.38390326499939,59.3410172367096,61.425129404068,0.3,68.0109183692932,0.600223302841187,68.6198182010651,3,right,0.592727899551392,68.6111416721344,604.47764538765,607.23764538765,1654034175.39158,1654034175.40653,1654034182.79434,1654034182.79673,1654034184.87845,1654034191.46424,1654034191.46594,1654034192.07314,1654034192.06446,1654034727.93096,0
128,4,2,1,5,1,4,c4_HowHand,1,both hands?,123,H_167.jpg,1654034120.69332,1654034120.69471,68.6778345012665,9.75310254096985,78.4481439495087,80.5489265823364,2.10078263282776,80.6989827060699,1.00037384033203,81.703495016098,1,left,0.9859299659729,81.699356546402,604.47764538765,607.23764538765,1654034192.13115,1654034192.14131,1654034201.90146,1654034201.90866,1654034204.00224,1654034204.1523,1654034204.15459,1654034205.15681,1654034205.15267,1654034727.93096,1
128,4,2,1,5,2,4,c4_HowHand,2,both hands?,126,H_159.jpg,1654034120.69332,1654034120.69471,68.6778345012665,9.75310254096985,78.4481439495087,80.5489265823364,0.3,82.0161409282684,0.716933727264404,82.7367980384827,3,right,0.696352005004883,82.7330746555328,604.47764538765,607.23764538765,1654034192.13115,1654034192.14131,1654034201.90146,1654034201.90866,1654034204.00224,1654034205.46946,1654034205.4734,1654034206.19012,1654034206.18639,1654034727.93096,0
128,4,2,1,5,3,4,c4_HowHand,1,both hands?,128,H_027.jpg,1654034120.69332,1654034120.69471,68.6778345012665,9.75310254096985,78.4481439495087,80.5489265823364,0.3,83.0498595142364,0.750279903411865,83.8034341239929,1,left,0.725939989089966,83.8001394176483,604.47764538765,607.23764538765,1654034192.13115,1654034192.14131,1654034201.90146,1654034201.90866,1654034204.00224,1654034206.50318,1654034206.50825,1654034207.25675,1654034207.25346,1654034727.93096,1
128,4,2,1,5,4,4,c4_HowHand,1,both hands?,124,H_581.jpg,1654034120.69332,1654034120.69471,68.6778345012665,9.75310254096985,78.4481439495087,80.5489265823364,0.3,84.1169252300262,0.833643913269043,84.9527501964569,1,left,0.819166898727417,84.9505691432953,604.47764538765,607.23764538765,1654034192.13115,1654034192.14131,1654034201.90146,1654034201.90866,1654034204.00224,1654034207.57024,1654034207.57336,1654034208.40607,1654034208.40389,1654034727.93096,1
128,4,2,1,5,5,4,c4_HowHand,2,both hands?,121,H_091.jpg,1654034120.69332,1654034120.69471,68.6778345012665,9.75310254096985,78.4481439495087,80.5489265823364,0.3,85.2673540019989,0.766951560974121,86.0362381839752,3,right,0.750614881515503,86.034305562973,604.47764538765,607.23764538765,1654034192.13115,1654034192.14131,1654034201.90146,1654034201.90866,1654034204.00224,1654034208.72067,1654034208.72352,1654034209.48956,1654034209.48762,1654034727.93096,0
128,4,2,1,5,6,4,c4_HowHand,1,both hands?,122,H_111.jpg,1654034120.69332,1654034120.69471,68.6778345012665,9.75310254096985,78.4481439495087,80.5489265823364,0.3,86.3510911369324,0.766952991485596,87.1196031475067,1,left,0.743677139282227,87.118044128418,604.47764538765,607.23764538765,1654034192.13115,1654034192.14131,1654034201.90146,1654034201.90866,1654034204.00224,1654034209.80441,1654034209.80652,1654034210.57292,1654034210.57136,1654034727.93096,1
128,4,2,1,5,7,4,c4_HowHand,2,both hands?,125,H_627.jpg,1654034120.69332,1654034120.69471,68.6778345012665,9.75310254096985,78.4481439495087,80.5489265823364,0.3,87.4348285102844,0.700261354446411,88.1367580795288,3,right,0.691399097442627,88.1350898647308,604.47764538765,607.23764538765,1654034192.13115,1654034192.14131,1654034201.90146,1654034201.90866,1654034204.00224,1654034210.88815,1654034210.88996,1654034211.59008,1654034211.58841,1654034727.93096,0
128,4,2,1,5,8,4,c4_HowHand,1,both hands?,127,H_349.jpg,1654034120.69332,1654034120.69471,68.6778345012665,9.75310254096985,78.4481439495087,80.5489265823364,0.3,88.4518740081787,0.633569240570068,89.0871040725708,1,left,0.611678123474121,89.0854432487488,604.47764538765,607.23764538765,1654034192.13115,1654034192.14131,1654034201.90146,1654034201.90866,1654034204.00224,1654034211.90519,1654034211.90649,1654034212.54042,1654034212.53876,1654034727.93096,1
128,4,2,1,6,1,2,c2_WhyHand,1,helping?,34,H_111.jpg,1654034120.69332,1654034120.69471,89.1521358394623,6.79486918449402,95.9546716117859,98.0554559135437,2.10078430175781,98.2055122756958,0.716932773590088,98.9234599971771,1,left,0.7048180103302,98.9224450492859,604.47764538765,607.23764538765,1654034212.60545,1654034212.6069,1654034219.40799,1654034219.40981,1654034221.50877,1654034221.65883,1654034221.66077,1654034222.37678,1654034222.37576,1654034727.93096,1
128,4,2,1,6,2,2,c2_WhyHand,1,helping?,38,H_077.jpg,1654034120.69332,1654034120.69471,89.1521358394623,6.79486918449402,95.9546716117859,98.0554559135437,0.3,99.2392308616638,0.600223064422607,99.8528880977631,1,left,0.590906858444214,99.8394539260864,604.47764538765,607.23764538765,1654034212.60545,1654034212.6069,1654034219.40799,1654034219.40981,1654034221.50877,1654034222.69255,1654034222.69427,1654034223.30621,1654034223.29277,1654034727.93096,1
128,4,2,1,6,3,2,c2_WhyHand,2,helping?,35,H_159.jpg,1654034120.69332,1654034120.69471,89.1521358394623,6.79486918449402,95.9546716117859,98.0554559135437,0.3,100.156239023209,0.816972255706787,100.974288215637,3,right,0.804759979248047,100.973211278915,604.47764538765,607.23764538765,1654034212.60545,1654034212.6069,1654034219.40799,1654034219.40981,1654034221.50877,1654034223.60956,1654034223.61149,1654034224.42761,1654034224.42653,1654034727.93096,0
128,4,2,1,6,4,2,c2_WhyHand,1,helping?,37,H_474.jpg,1654034120.69332,1654034120.69471,89.1521358394623,6.79486918449402,95.9546716117859,98.0554559135437,0.3,101.289995660782,0.600223779678345,101.891689052582,1,left,0.579983949661255,101.89021944046,604.47764538765,607.23764538765,1654034212.60545,1654034212.6069,1654034219.40799,1654034219.40981,1654034221.50877,1654034224.74331,1654034224.74478,1654034225.34501,1654034225.34354,1654034727.93096,1
128,4,2,1,6,5,2,c2_WhyHand,2,helping?,40,H_012.jpg,1654034120.69332,1654034120.69471,89.1521358394623,6.79486918449402,95.9546716117859,98.0554559135437,0.3,102.207004537582,0.750278949737549,102.958327045441,3,right,0.729560852050781,102.95728348732,604.47764538765,607.23764538765,1654034212.60545,1654034212.6069,1654034219.40799,1654034219.40981,1654034221.50877,1654034225.66032,1654034225.66194,1654034226.41164,1654034226.4106,1654034727.93096,0
128,4,2,1,6,6,2,c2_WhyHand,1,helping?,39,H_024.jpg,1654034120.69332,1654034120.69471,89.1521358394623,6.79486918449402,95.9546716117859,98.0554559135437,0.3,103.274068346024,0.983699560165405,104.259231081009,3,right,0.969199895858765,104.257767906189,604.47764538765,607.23764538765,1654034212.60545,1654034212.6069,1654034219.40799,1654034219.40981,1654034221.50877,1654034226.72739,1654034226.72892,1654034227.71255,1654034227.71109,1654034727.93096,0
128,4,2,1,6,7,2,c2_WhyHand,2,helping?,33,H_091.jpg,1654034120.69332,1654034120.69471,89.1521358394623,6.79486918449402,95.9546716117859,98.0554559135437,0.3,104.574553718567,0.683588266372681,105.259952058792,3,right,0.665226936340332,105.25814198494,604.47764538765,607.23764538765,1654034212.60545,1654034212.6069,1654034219.40799,1654034219.40981,1654034221.50877,1654034228.02787,1654034228.02971,1654034228.71327,1654034228.71146,1654034727.93096,0
128,4,2,1,6,8,2,c2_WhyHand,1,helping?,36,H_349.jpg,1654034120.69332,1654034120.69471,89.1521358394623,6.79486918449402,95.9546716117859,98.0554559135437,0.3,105.574927082062,0.650241613388062,106.226240148544,1,left,0.631082057952881,106.22516869545,604.47764538765,607.23764538765,1654034212.60545,1654034212.6069,1654034219.40799,1654034219.40981,1654034221.50877,1654034229.02824,1654034229.02954,1654034229.67956,1654034229.67849,1654034727.93096,1
128,4,2,1,7,1,1,c1_WhyFace,1,self-doubt?,28,F_754.jpg,1654034120.69332,1654034120.69471,106.291861286163,8.70902276039124,115.011779537201,117.112562646866,2.10078310966492,117.262618770599,1.00037288665771,118.270103206635,1,left,0.979925155639648,118.262991657257,604.47764538765,607.23764538765,1654034229.74518,1654034229.74674,1654034238.4651,1654034238.47354,1654034240.56588,1654034240.71594,1654034240.72416,1654034241.72342,1654034241.71631,1654034727.93096,1
128,4,2,1,7,2,1,c1_WhyFace,2,self-doubt?,32,F_128.jpg,1654034120.69332,1654034120.69471,106.291861286163,8.70902276039124,115.011779537201,117.112562646866,0.3,118.579776992798,0.850315093994141,119.432020177841,1,left,0.830825805664062,119.430092086792,604.47764538765,607.23764538765,1654034229.74518,1654034229.74674,1654034238.4651,1654034238.47354,1654034240.56588,1654034242.03309,1654034242.03495,1654034242.88534,1654034242.88341,1654034727.93096,0
128,4,2,1,7,3,1,c1_WhyFace,1,self-doubt?,29,F_544.jpg,1654034120.69332,1654034120.69471,106.291861286163,8.70902276039124,115.011779537201,117.112562646866,0.3,119.74687789917,0.850317239761353,120.603408088684,1,left,0.837677955627441,120.597195138931,604.47764538765,607.23764538765,1654034229.74518,1654034229.74674,1654034238.4651,1654034238.47354,1654034240.56588,1654034243.2002,1654034243.20193,1654034244.05673,1654034244.05051,1654034727.93096,1
128,4,2,1,7,4,1,c1_WhyFace,2,self-doubt?,27,F_086.jpg,1654034120.69332,1654034120.69471,106.291861286163,8.70902276039124,115.011779537201,117.112562646866,0.3,120.913979759216,0.683588743209839,121.598671188354,3,right,0.661350965499878,121.597568502426,604.47764538765,607.23764538765,1654034229.74518,1654034229.74674,1654034238.4651,1654034238.47354,1654034240.56588,1654034244.3673,1654034244.36888,1654034245.05199,1654034245.05089,1654034727.93096,0
128,4,2,1,7,5,1,c1_WhyFace,1,self-doubt?,25,F_798.jpg,1654034120.69332,1654034120.69471,106.291861286163,8.70902276039124,115.011779537201,117.112562646866,0.3,121.91435336113,0.666914939880371,122.586800088882,1,left,0.648886919021606,122.58126830101,604.47764538765,607.23764538765,1654034229.74518,1654034229.74674,1654034238.4651,1654034238.47354,1654034240.56588,1654034245.36767,1654034245.36929,1654034246.04012,1654034246.03459,1654034727.93096,1
128,4,2,1,7,6,1,c1_WhyFace,1,self-doubt?,30,F_584.jpg,1654034120.69332,1654034120.69471,106.291861286163,8.70902276039124,115.011779537201,117.112562646866,0.3,122.898052444458,0.866991281509399,123.769937028885,1,left,0.852426052093506,123.765043725967,604.47764538765,607.23764538765,1654034229.74518,1654034229.74674,1654034238.4651,1654034238.47354,1654034240.56588,1654034246.35137,1654034246.35274,1654034247.22325,1654034247.21836,1654034727.93096,1
128,4,2,1,7,7,1,c1_WhyFace,1,self-doubt?,26,F_111.jpg,1654034120.69332,1654034120.69471,106.291861286163,8.70902276039124,115.011779537201,117.112562646866,0.3,124.081827392578,0.716935873031616,124.799848070145,1,left,0.690969944000244,124.79876326561,604.47764538765,607.23764538765,1654034229.74518,1654034229.74674,1654034238.4651,1654034238.47354,1654034240.56588,1654034247.53515,1654034247.5397,1654034248.25317,1654034248.25208,1654034727.93096,1
128,4,2,1,7,8,1,c1_WhyFace,2,self-doubt?,31,F_774.jpg,1654034120.69332,1654034120.69471,106.291861286163,8.70902276039124,115.011779537201,117.112562646866,0.3,125.115546455383,0.750281095504761,125.869894018173,3,right,0.735312938690186,125.865827550888,604.47764538765,607.23764538765,1654034229.74518,1654034229.74674,1654034238.4651,1654034238.47354,1654034240.56588,1654034248.56886,1654034248.5735,1654034249.32321,1654034249.31915,1654034727.93096,0
128,4,2,1,8,1,3,c3_HowFace,1,looking to side?,71,F_433.jpg,1654034120.69332,1654034120.69471,125.965864171982,6.82510590553284,132.801746358871,134.902529706955,2.1007833480835,135.052586069107,0.716933965682983,135.770675172806,1,left,0.698498964309692,135.76952003479,604.47764538765,607.23764538765,1654034249.41918,1654034249.42077,1654034256.25506,1654034256.25694,1654034258.35585,1654034258.5059,1654034258.50788,1654034259.22399,1654034259.22284,1654034727.93096,1
128,4,2,1,8,2,3,c3_HowFace,2,looking to side?,70,F_779.jpg,1654034120.69332,1654034120.69471,125.965864171982,6.82510590553284,132.801746358871,134.902529706955,0.3,136.086305370331,0.983699798583984,137.071616163254,3,right,0.965317010879517,137.070005168915,604.47764538765,607.23764538765,1654034249.41918,1654034249.42077,1654034256.25506,1654034256.25694,1654034258.35585,1654034259.53962,1654034259.54114,1654034260.52493,1654034260.52332,1654034727.93096,0
128,4,2,1,8,3,3,c3_HowFace,1,looking to side?,68,F_760.jpg,1654034120.69332,1654034120.69471,125.965864171982,6.82510590553284,132.801746358871,134.902529706955,0.3,137.386790504456,0.700260162353516,138.088013162613,1,left,0.690571069717407,138.087050666809,604.47764538765,607.23764538765,1654034249.41918,1654034249.42077,1654034256.25506,1654034256.25694,1654034258.35585,1654034260.84011,1654034260.84138,1654034261.54133,1654034261.54037,1654034727.93096,1
128,4,2,1,8,4,3,c3_HowFace,2,looking to side?,66,F_111.jpg,1654034120.69332,1654034120.69471,125.965864171982,6.82510590553284,132.801746358871,134.902529706955,0.3,138.403836956024,0.783623933792114,139.203306188583,3,right,0.777328968048096,139.187460889816,604.47764538765,607.23764538765,1654034249.41918,1654034249.42077,1654034256.25506,1654034256.25694,1654034258.35585,1654034261.85715,1654034261.85858,1654034262.65662,1654034262.64078,1654034727.93096,0
128,4,2,1,8,5,3,c3_HowFace,2,looking to side?,65,F_798.jpg,1654034120.69332,1654034120.69471,125.965864171982,6.82510590553284,132.801746358871,134.902529706955,0.3,139.504246940613,0.733606576919556,140.239597072601,3,right,0.72131609916687,140.237853517532,604.47764538765,607.23764538765,1654034249.41918,1654034249.42077,1654034256.25506,1654034256.25694,1654034258.35585,1654034262.95756,1654034262.95934,1654034263.69291,1654034263.69117,1654034727.93096,0
128,4,2,1,8,6,3,c3_HowFace,1,looking to side?,67,F_716.jpg,1654034120.69332,1654034120.69471,125.965864171982,6.82510590553284,132.801746358871,134.902529706955,0.3,140.554637899399,0.583551406860352,141.139195194244,1,left,0.572887897491455,141.138189306259,604.47764538765,607.23764538765,1654034249.41918,1654034249.42077,1654034256.25506,1654034256.25694,1654034258.35585,1654034264.00796,1654034264.00967,1654034264.59251,1654034264.59151,1654034727.93096,1
128,4,2,1,8,7,3,c3_HowFace,1,looking to side?,72,F_590.jpg,1654034120.69332,1654034120.69471,125.965864171982,6.82510590553284,132.801746358871,134.902529706955,0.3,141.454973926544,0.600224018096924,142.070077171326,1,left,0.590429067611694,142.055197944641,604.47764538765,607.23764538765,1654034249.41918,1654034249.42077,1654034256.25506,1654034256.25694,1654034258.35585,1654034264.90829,1654034264.90984,1654034265.5234,1654034265.50852,1654034727.93096,1
128,4,2,1,8,8,3,c3_HowFace,1,looking to side?,69,F_110.jpg,1654034120.69332,1654034120.69471,125.965864171982,6.82510590553284,132.801746358871,134.902529706955,0.3,142.371982803345,0.866989850997925,143.240555038452,1,left,0.847616910934448,143.238972654343,604.47764538765,607.23764538765,1654034249.41918,1654034249.42077,1654034256.25506,1654034256.25694,1654034258.35585,1654034265.8253,1654034265.82718,1654034266.69387,1654034266.69229,1654034727.93096,1
128,4,2,1,9,1,1,c1_WhyFace,1,argument?,43,F_716.jpg,1654034120.69332,1654034120.69471,143.305664768219,7.01526427268982,150.324948062897,152.425732126236,2.10078406333923,152.575787773132,0.950354099273682,153.527250041962,1,left,0.92297101020813,153.526141872406,604.47764538765,607.23764538765,1654034266.75898,1654034266.76052,1654034273.77827,1654034273.78999,1654034275.87905,1654034276.02911,1654034276.0408,1654034276.98057,1654034276.97946,1654034727.93096,1
128,4,2,1,9,2,1,c1_WhyFace,2,argument?,44,F_139.jpg,1654034120.69332,1654034120.69471,143.305664768219,7.01526427268982,150.324948062897,152.425732126236,0.3,153.842926969528,0.650243282318115,154.503018131256,3,right,0.640279054641724,154.493170251846,604.47764538765,607.23764538765,1654034266.75898,1654034266.76052,1654034273.77827,1654034273.78999,1654034275.87905,1654034277.29624,1654034277.29802,1654034277.95634,1654034277.94649,1654034727.93096,0
128,4,2,1,9,3,1,c1_WhyFace,1,argument?,47,F_743.jpg,1654034120.69332,1654034120.69471,143.305664768219,7.01526427268982,150.324948062897,152.425732126236,0.3,154.809953203201,0.616897583007812,155.427875032425,1,left,0.596503019332886,155.426850786209,604.47764538765,607.23764538765,1654034266.75898,1654034266.76052,1654034273.77827,1654034273.78999,1654034275.87905,1654034278.26327,1654034278.26489,1654034278.88119,1654034278.88017,1654034727.93096,1
128,4,2,1,9,4,1,c1_WhyFace,1,argument?,42,F_403.jpg,1654034120.69332,1654034120.69471,143.305664768219,7.01526427268982,150.324948062897,152.425732126236,0.3,155.743635644913,0.800298452377319,156.545785179138,1,left,0.779218196868896,156.54393409729,604.47764538765,607.23764538765,1654034266.75898,1654034266.76052,1654034273.77827,1654034273.78999,1654034275.87905,1654034279.19695,1654034279.19857,1654034279.9991,1654034279.99725,1654034727.93096,1
128,4,2,1,9,5,1,c1_WhyFace,1,argument?,48,F_758.jpg,1654034120.69332,1654034120.69471,143.305664768219,7.01526427268982,150.324948062897,152.425732126236,0.3,156.860718955994,0.917008638381958,157.778916110992,1,left,0.895661115646362,157.777727594376,604.47764538765,607.23764538765,1654034266.75898,1654034266.76052,1654034273.77827,1654034273.78999,1654034275.87905,1654034280.31404,1654034280.31542,1654034281.23223,1654034281.23105,1654034727.93096,1
128,4,2,1,9,6,1,c1_WhyFace,2,argument?,46,F_844.jpg,1654034120.69332,1654034120.69471,143.305664768219,7.01526427268982,150.324948062897,152.425732126236,0.3,158.094511976242,0.600224494934082,158.702813138962,3,right,0.585630178451538,158.694736471176,604.47764538765,607.23764538765,1654034266.75898,1654034266.76052,1654034273.77827,1654034273.78999,1654034275.87905,1654034281.54783,1654034281.54948,1654034282.15613,1654034282.14805,1654034727.93096,0
128,4,2,1,9,7,1,c1_WhyFace,1,argument?,41,F_712.jpg,1654034120.69332,1654034120.69471,143.305664768219,7.01526427268982,150.324948062897,152.425732126236,0.3,159.011520853043,0.750277996063232,159.769487133026,1,left,0.736374139785767,159.761798849106,604.47764538765,607.23764538765,1654034266.75898,1654034266.76052,1654034273.77827,1654034273.78999,1654034275.87905,1654034282.46484,1654034282.46588,1654034283.22281,1654034283.21512,1654034727.93096,1
128,4,2,1,9,8,1,c1_WhyFace,2,argument?,45,F_433.jpg,1654034120.69332,1654034120.69471,143.305664768219,7.01526427268982,150.324948062897,152.425732126236,0.3,160.078586091995,0.65024209022522,160.730616083145,3,right,0.630053997039795,160.72882818222,604.47764538765,607.23764538765,1654034266.75898,1654034266.76052,1654034273.77827,1654034273.78999,1654034275.87905,1654034283.5319,1654034283.53361,1654034284.18393,1654034284.18215,1654034727.93096,0
128,4,2,1,10,1,3,c3_HowFace,1,open mouth?,80,F_844.jpg,1654034120.69332,1654034120.69471,160.79551981926,8.31538724899292,169.115288963318,171.21607254982,2.10078358650208,171.366128196716,0.650242567062378,172.019489040375,1,left,0.630002021789551,172.016370763779,604.47764538765,607.23764538765,1654034284.24884,1654034284.25676,1654034292.56861,1654034292.57335,1654034294.66939,1654034294.81945,1654034294.82339,1654034295.47281,1654034295.46969,1654034727.93096,1
128,4,2,1,10,2,3,c3_HowFace,1,open mouth?,78,F_692.jpg,1654034120.69332,1654034120.69471,160.79551981926,8.31538724899292,169.115288963318,171.21607254982,0.3,172.333155860901,0.533531665802002,172.8699700737,1,left,0.51822304725647,172.866687526703,604.47764538765,607.23764538765,1654034284.24884,1654034284.25676,1654034292.56861,1654034292.57335,1654034294.66939,1654034295.78647,1654034295.78992,1654034296.32329,1654034296.32001,1654034727.93096,1
128,4,2,1,10,3,3,c3_HowFace,2,open mouth?,77,F_584.jpg,1654034120.69332,1654034120.69471,160.79551981926,8.31538724899292,169.115288963318,171.21607254982,0.3,173.183472862244,0.566877841949463,173.753192176819,3,right,0.558336019515991,173.750350704193,604.47764538765,607.23764538765,1654034284.24884,1654034284.25676,1654034292.56861,1654034292.57335,1654034294.66939,1654034296.63679,1654034296.64023,1654034297.20651,1654034297.20367,1654034727.93096,0
128,4,2,1,10,4,3,c3_HowFace,1,open mouth?,75,F_086.jpg,1654034120.69332,1654034120.69471,160.79551981926,8.31538724899292,169.115288963318,171.21607254982,0.3,174.067136039734,0.500185966491699,174.570103158951,1,left,0.478386878967285,174.567322006226,604.47764538765,607.23764538765,1654034284.24884,1654034284.25676,1654034292.56861,1654034292.57335,1654034294.66939,1654034297.52045,1654034297.52349,1654034298.02342,1654034298.02064,1654034727.93096,1
128,4,2,1,10,5,3,c3_HowFace,1,open mouth?,73,F_403.jpg,1654034120.69332,1654034120.69471,160.79551981926,8.31538724899292,169.115288963318,171.21607254982,0.3,174.884106626511,0.683587789535522,175.569891204834,1,left,0.674721002578735,175.567694416046,604.47764538765,607.23764538765,1654034284.24884,1654034284.25676,1654034292.56861,1654034292.57335,1654034294.66939,1654034298.33742,1654034298.3402,1654034299.02321,1654034299.02101,1654034727.93096,1
128,4,2,1,10,6,3,c3_HowFace,2,open mouth?,76,F_544.jpg,1654034120.69332,1654034120.69471,160.79551981926,8.31538724899292,169.115288963318,171.21607254982,0.3,175.884479990006,0.783626317977905,176.669989099503,3,right,0.760293960571289,176.668106307983,604.47764538765,607.23764538765,1654034284.24884,1654034284.25676,1654034292.56861,1654034292.57335,1654034294.66939,1654034299.3378,1654034299.33997,1654034300.12331,1654034300.12142,1654034727.93096,0
128,4,2,1,10,7,3,c3_HowFace,2,open mouth?,79,F_648.jpg,1654034120.69332,1654034120.69471,160.79551981926,8.31538724899292,169.115288963318,171.21607254982,0.3,176.984891166687,0.833642721176147,177.819589128494,3,right,0.811882972717285,177.818533887863,604.47764538765,607.23764538765,1654034284.24884,1654034284.25676,1654034292.56861,1654034292.57335,1654034294.66939,1654034300.43821,1654034300.44008,1654034301.27291,1654034301.27185,1654034727.93096,0
128,4,2,1,10,8,3,c3_HowFace,1,open mouth?,74,F_776.jpg,1654034120.69332,1654034120.69471,160.79551981926,8.31538724899292,169.115288963318,171.21607254982,0.3,178.135319223404,0.516860008239746,178.653608074188,1,left,0.507927894592285,178.652179231644,604.47764538765,607.23764538765,1654034284.24884,1654034284.25676,1654034292.56861,1654034292.57335,1654034294.66939,1654034301.58864,1654034301.59026,1654034302.10693,1654034302.1055,1654034727.93096,1
128,4,2,1,11,1,4,c4_HowHand,1,lifting?,54,H_170.jpg,1654034120.69332,1654034120.69471,178.71886967659,8.46206951141357,187.188695898056,189.28947924614,2.1007833480835,189.439535608292,0.716932773590088,190.15824221611,1,left,0.699018001556396,190.156468381882,604.47764538765,607.23764538765,1654034302.17219,1654034302.19006,1654034310.64201,1654034310.644,1654034312.7428,1654034312.89285,1654034312.89494,1654034313.61156,1654034313.60979,1654034727.93096,1
128,4,2,1,11,2,4,c4_HowHand,2,lifting?,53,H_077.jpg,1654034120.69332,1654034120.69471,178.71886967659,8.46206951141357,187.188695898056,189.28947924614,0.3,190.473253479004,0.733607292175293,191.208644142151,3,right,0.714813947677612,191.206860771179,604.47764538765,607.23764538765,1654034302.17219,1654034302.19006,1654034310.64201,1654034310.644,1654034312.7428,1654034313.92657,1654034313.92831,1654034314.66196,1654034314.66018,1654034727.93096,0
128,4,2,1,11,3,4,c4_HowHand,1,lifting?,52,H_189.jpg,1654034120.69332,1654034120.69471,178.71886967659,8.46206951141357,187.188695898056,189.28947924614,0.3,191.52364443779,1.20044827461243,192.736854066849,1,left,1.19004106521606,192.724092712402,604.47764538765,607.23764538765,1654034302.17219,1654034302.19006,1654034310.64201,1654034310.644,1654034312.7428,1654034314.97696,1654034314.9788,1654034316.19017,1654034316.17741,1654034727.93096,1
128,4,2,1,11,4,4,c4_HowHand,1,lifting?,49,H_362.jpg,1654034120.69332,1654034120.69471,178.71886967659,8.46206951141357,187.188695898056,189.28947924614,0.3,193.04087852478,0.633569240570068,193.675974121094,1,left,0.612484931945801,193.67444776535,604.47764538765,607.23764538765,1654034302.17219,1654034302.19006,1654034310.64201,1654034310.644,1654034312.7428,1654034316.4942,1654034316.49625,1654034317.12929,1654034317.12777,1654034727.93096,1
128,4,2,1,11,5,4,c4_HowHand,2,lifting?,55,H_012.jpg,1654034120.69332,1654034120.69471,178.71886967659,8.46206951141357,187.188695898056,189.28947924614,0.3,193.991231908798,0.616896867752075,194.61952709198,3,right,0.607949018478394,194.60812877655,604.47764538765,607.23764538765,1654034302.17219,1654034302.19006,1654034310.64201,1654034310.644,1654034312.7428,1654034317.44455,1654034317.44617,1654034318.07284,1654034318.06145,1654034727.93096,0
128,4,2,1,11,6,4,c4_HowHand,1,lifting?,50,H_443.jpg,1654034120.69332,1654034120.69471,178.71886967659,8.46206951141357,187.188695898056,189.28947924614,0.3,194.924914112091,0.766952753067017,195.702799072266,1,left,0.753956079483032,195.691866865158,604.47764538765,607.23764538765,1654034302.17219,1654034302.19006,1654034310.64201,1654034310.644,1654034312.7428,1654034318.37823,1654034318.38033,1654034319.15612,1654034319.14518,1654034727.93096,1
128,4,2,1,11,7,4,c4_HowHand,1,lifting?,56,H_136.jpg,1654034120.69332,1654034120.69471,178.71886967659,8.46206951141357,187.188695898056,189.28947924614,0.3,196.008651723862,0.866988897323608,196.876797189713,1,left,0.846589088439941,196.875640621185,604.47764538765,607.23764538765,1654034302.17219,1654034302.19006,1654034310.64201,1654034310.644,1654034312.7428,1654034319.46197,1654034319.46366,1654034320.33012,1654034320.32896,1654034727.93096,1
128,4,2,1,11,8,4,c4_HowHand,2,lifting?,51,H_038.jpg,1654034120.69332,1654034120.69471,178.71886967659,8.46206951141357,187.188695898056,189.28947924614,0.3,197.192426195145,0.883662462234497,198.086166133881,3,right,0.872667074203491,198.076088657379,604.47764538765,607.23764538765,1654034302.17219,1654034302.19006,1654034310.64201,1654034310.644,1654034312.7428,1654034320.64574,1654034320.64749,1654034321.53948,1654034321.52941,1654034727.93096,0
128,4,2,1,12,1,2,c2_WhyHand,1,competing?,13,H_003.jpg,1654034120.69332,1654034120.69471,198.159453620911,6.55144453048706,204.728570451736,206.829354038239,2.10078358650208,206.979408493042,0.800299644470215,207.786267032623,1,left,0.791311025619507,207.779708137512,604.47764538765,607.23764538765,1654034321.61277,1654034321.61447,1654034328.18189,1654034328.18346,1654034330.28267,1654034330.43273,1654034330.43447,1654034331.23958,1654034331.23303,1654034727.93096,1
128,4,2,1,12,2,2,c2_WhyHand,2,competing?,12,H_483.jpg,1654034120.69332,1654034120.69471,198.159453620911,6.55144453048706,204.728570451736,206.829354038239,0.3,208.096493234634,0.783624887466431,208.881885995865,3,right,0.764850854873657,208.880118122101,604.47764538765,607.23764538765,1654034321.61277,1654034321.61447,1654034328.18189,1654034328.18346,1654034330.28267,1654034331.54981,1654034331.55139,1654034332.3352,1654034332.33344,1654034727.93096,0
128,4,2,1,12,3,2,c2_WhyHand,1,competing?,14,H_132.jpg,1654034120.69332,1654034120.69471,198.159453620911,6.55144453048706,204.728570451736,206.829354038239,0.3,209.196902742386,0.65024209022522,209.852775087357,1,left,0.635753154754639,209.847144832611,604.47764538765,607.23764538765,1654034321.61277,1654034321.61447,1654034328.18189,1654034328.18346,1654034330.28267,1654034332.65022,1654034332.65206,1654034333.30609,1654034333.30046,1654034727.93096,1
128,4,2,1,12,4,2,c2_WhyHand,1,competing?,15,H_170.jpg,1654034120.69332,1654034120.69471,198.159453620911,6.55144453048706,204.728570451736,206.829354038239,0.3,210.163929691315,0.633569478988647,210.803459157944,1,left,0.625216960906982,210.797499170303,604.47764538765,607.23764538765,1654034321.61277,1654034321.61447,1654034328.18189,1654034328.18346,1654034330.28267,1654034333.61725,1654034333.619,1654034334.25678,1654034334.25082,1654034727.93096,1
128,4,2,1,12,5,2,c2_WhyHand,2,competing?,11,H_502.jpg,1654034120.69332,1654034120.69471,198.159453620911,6.55144453048706,204.728570451736,206.829354038239,0.3,211.1142852211,0.733606338500977,211.848997106552,3,right,0.713644981384277,211.847891559601,604.47764538765,607.23764538765,1654034321.61277,1654034321.61447,1654034328.18189,1654034328.18346,1654034330.28267,1654034334.5676,1654034334.56918,1654034335.30231,1654034335.30121,1654034727.93096,0
128,4,2,1,12,6,2,c2_WhyHand,1,competing?,16,H_136.jpg,1654034120.69332,1654034120.69471,198.159453620911,6.55144453048706,204.728570451736,206.829354038239,0.3,212.164676179886,0.733606576919556,212.903494110107,1,left,0.717040061950684,212.898282756805,604.47764538765,607.23764538765,1654034321.61277,1654034321.61447,1654034328.18189,1654034328.18346,1654034330.28267,1654034335.61799,1654034335.61977,1654034336.35681,1654034336.3516,1654034727.93096,1
128,4,2,1,12,7,2,c2_WhyHand,2,competing?,10,H_126.jpg,1654034120.69332,1654034120.69471,198.159453620911,6.55144453048706,204.728570451736,206.829354038239,0.3,213.215067138672,0.900337219238281,214.120151033401,3,right,0.885358095169067,214.11540435791,604.47764538765,607.23764538765,1654034321.61277,1654034321.61447,1654034328.18189,1654034328.18346,1654034330.28267,1654034336.66839,1654034336.67017,1654034337.57347,1654034337.56872,1654034727.93096,0
128,4,2,1,12,8,2,c2_WhyHand,1,competing?,9,H_261.jpg,1654034120.69332,1654034120.69471,198.159453620911,6.55144453048706,204.728570451736,206.829354038239,0.3,214.432188739777,0.616897583007812,215.053015222549,1,left,0.60276198387146,215.049086322784,604.47764538765,607.23764538765,1654034321.61277,1654034321.61447,1654034328.18189,1654034328.18346,1654034330.28267,1654034337.88551,1654034337.8897,1654034338.50633,1654034338.5024,1654034727.93096,1
128,4,2,1,13,1,1,c1_WhyFace,1,admiring?,5,F_759.jpg,1654034120.69332,1654034120.69471,215.115777244568,7.81516194343567,222.93535946846,225.036142578125,2.10078310966492,225.186199178696,0.700260877609253,225.887422075272,1,left,0.690742015838623,225.886460056305,604.47764538765,607.23764538765,1654034338.5691,1654034338.57314,1654034346.38868,1654034346.39053,1654034348.48946,1654034348.63952,1654034348.64118,1654034349.34074,1654034349.33978,1654034727.93096,1
128,4,2,1,13,2,1,c1_WhyFace,1,admiring?,1,F_593.jpg,1654034120.69332,1654034120.69471,215.115777244568,7.81516194343567,222.93535946846,225.036142578125,0.3,226.203245391846,0.600223541259766,226.804813137054,1,left,0.591279983520508,226.803468933105,604.47764538765,607.23764538765,1654034338.5691,1654034338.57314,1654034346.38868,1654034346.39053,1654034348.48946,1654034349.65656,1654034349.658,1654034350.25813,1654034350.25679,1654034727.93096,1
128,4,2,1,13,3,1,c1_WhyFace,2,admiring?,6,F_692.jpg,1654034120.69332,1654034120.69471,215.115777244568,7.81516194343567,222.93535946846,225.036142578125,0.3,227.120253553391,0.866990089416504,227.988809099197,3,right,0.852577924728394,227.987243642807,604.47764538765,607.23764538765,1654034338.5691,1654034338.57314,1654034346.38868,1654034346.39053,1654034348.48946,1654034350.57357,1654034350.57517,1654034351.44213,1654034351.44056,1654034727.93096,0
128,4,2,1,13,4,1,c1_WhyFace,1,admiring?,8,F_590.jpg,1654034120.69332,1654034120.69471,215.115777244568,7.81516194343567,222.93535946846,225.036142578125,0.3,228.304028978348,0.600223302841187,228.906309118271,1,left,0.584137201309204,228.904252281189,604.47764538765,607.23764538765,1654034338.5691,1654034338.57314,1654034346.38868,1654034346.39053,1654034348.48946,1654034351.75735,1654034351.75917,1654034352.35963,1654034352.35757,1654034727.93096,1
128,4,2,1,13,5,1,c1_WhyFace,2,admiring?,2,F_129.jpg,1654034120.69332,1654034120.69471,215.115777244568,7.81516194343567,222.93535946846,225.036142578125,0.3,229.221037139893,0.783625602722168,230.006125202179,3,right,0.773587942123413,230.004662742615,604.47764538765,607.23764538765,1654034338.5691,1654034338.57314,1654034346.38868,1654034346.39053,1654034348.48946,1654034352.67436,1654034352.67588,1654034353.45944,1654034353.45798,1654034727.93096,0
128,4,2,1,13,6,1,c1_WhyFace,1,admiring?,7,F_648.jpg,1654034120.69332,1654034120.69471,215.115777244568,7.81516194343567,222.93535946846,225.036142578125,0.3,230.321446886063,0.633569478988647,230.95651506424,1,left,0.619570970535278,230.955016365051,604.47764538765,607.23764538765,1654034338.5691,1654034338.57314,1654034346.38868,1654034346.39053,1654034348.48946,1654034353.77476,1654034353.7767,1654034354.40983,1654034354.40833,1654034727.93096,1
128,4,2,1,13,7,1,c1_WhyFace,2,admiring?,3,F_110.jpg,1654034120.69332,1654034120.69471,215.115777244568,7.81516194343567,222.93535946846,225.036142578125,0.3,231.271802177429,0.7669517993927,232.039913167954,3,right,0.749866008758545,232.038753976822,604.47764538765,607.23764538765,1654034338.5691,1654034338.57314,1654034346.38868,1654034346.39053,1654034348.48946,1654034354.72512,1654034354.7264,1654034355.49323,1654034355.49207,1654034727.93096,0
128,4,2,1,13,8,1,c1_WhyFace,1,admiring?,4,F_779.jpg,1654034120.69332,1654034120.69471,215.115777244568,7.81516194343567,222.93535946846,225.036142578125,0.3,232.355538835526,0.666914939880371,233.024195184708,1,left,0.652085065841675,233.022453775406,604.47764538765,607.23764538765,1654034338.5691,1654034338.57314,1654034346.38868,1654034346.39053,1654034348.48946,1654034355.80886,1654034355.81052,1654034356.47751,1654034356.47577,1654034727.93096,1
128,4,2,1,14,1,3,c3_HowFace,1,looking at camera?,64,F_128.jpg,1654034120.69332,1654034120.69471,233.089145889282,7.73176717758179,240.825365056992,242.926147928238,2.10078287124634,243.076203336716,0.53353214263916,243.611420145035,1,left,0.505707979202271,243.609735479355,604.47764538765,607.23764538765,1654034356.54246,1654034356.55681,1654034364.27868,1654034364.29002,1654034366.37947,1654034366.52952,1654034366.54049,1654034367.06474,1654034367.06305,1654034727.93096,1
128,4,2,1,14,2,3,c3_HowFace,2,looking at camera?,58,F_754.jpg,1654034120.69332,1654034120.69471,233.089145889282,7.73176717758179,240.825365056992,242.926147928238,0.3,243.926521530151,0.566877365112305,244.503470172882,3,right,0.553457975387573,244.493398895264,604.47764538765,607.23764538765,1654034356.54246,1654034356.55681,1654034364.27868,1654034364.29002,1654034366.37947,1654034367.37984,1654034367.38137,1654034367.95679,1654034367.94672,1654034727.93096,0
128,4,2,1,14,3,3,c3_HowFace,1,looking at camera?,62,F_598.jpg,1654034120.69332,1654034120.69471,233.089145889282,7.73176717758179,240.825365056992,242.926147928238,0.3,244.810184469223,0.51685905456543,245.328628053665,1,left,0.49885106086731,245.327043523788,604.47764538765,607.23764538765,1654034356.54246,1654034356.55681,1654034364.27868,1654034364.29002,1654034366.37947,1654034368.2635,1654034368.26524,1654034368.78195,1654034368.78036,1654034727.93096,1
128,4,2,1,14,4,3,c3_HowFace,1,looking at camera?,59,F_129.jpg,1654034120.69332,1654034120.69471,233.089145889282,7.73176717758179,240.825365056992,242.926147928238,0.3,245.643827667236,0.600223541259766,246.253151168823,1,left,0.585159063339233,246.244051208496,604.47764538765,607.23764538765,1654034356.54246,1654034356.55681,1654034364.27868,1654034364.29002,1654034366.37947,1654034369.09715,1654034369.09888,1654034369.70647,1654034369.69737,1654034727.93096,1
128,4,2,1,14,5,3,c3_HowFace,1,looking at camera?,60,F_618.jpg,1654034120.69332,1654034120.69471,233.089145889282,7.73176717758179,240.825365056992,242.926147928238,0.3,246.560836544037,0.516859531402588,247.086186161041,1,left,0.501686096191406,247.077696075439,604.47764538765,607.23764538765,1654034356.54246,1654034356.55681,1654034364.27868,1654034364.29002,1654034366.37947,1654034370.01415,1654034370.0162,1654034370.5395,1654034370.53101,1654034727.93096,1
128,4,2,1,14,6,3,c3_HowFace,2,looking at camera?,63,F_743.jpg,1654034120.69332,1654034120.69471,233.089145889282,7.73176717758179,240.825365056992,242.926147928238,0.3,247.394480934143,0.51685905456543,247.920106163025,3,right,0.506320953369141,247.911339988709,604.47764538765,607.23764538765,1654034356.54246,1654034356.55681,1654034364.27868,1654034364.29002,1654034366.37947,1654034370.8478,1654034370.84973,1654034371.37342,1654034371.36466,1654034727.93096,0
128,4,2,1,14,7,3,c3_HowFace,1,looking at camera?,61,F_774.jpg,1654034120.69332,1654034120.69471,233.089145889282,7.73176717758179,240.825365056992,242.926147928238,0.3,248.228125324249,0.666914224624634,248.902912130356,1,left,0.654326915740967,248.895039548874,604.47764538765,607.23764538765,1654034356.54246,1654034356.55681,1654034364.27868,1654034364.29002,1654034366.37947,1654034371.68144,1654034371.6832,1654034372.35623,1654034372.34836,1654034727.93096,1
128,4,2,1,14,8,3,c3_HowFace,2,looking at camera?,57,F_582.jpg,1654034120.69332,1654034120.69471,233.089145889282,7.73176717758179,240.825365056992,242.926147928238,0.3,249.21182393074,0.700261831283569,249.920052995682,3,right,0.69081711769104,249.912085762024,604.47764538765,607.23764538765,1654034356.54246,1654034356.55681,1654034364.27868,1654034364.29002,1654034366.37947,1654034372.66514,1654034372.66688,1654034373.37337,1654034373.3654,1654034727.93096,0
128,4,2,1,15,1,4,c4_HowHand,1,pressing button?,88,H_019.jpg,1654034120.69332,1654034120.69471,249.995451440811,12.3054597377777,262.316712846756,264.417496433258,2.10078358650208,264.567551603317,0.666915416717529,265.236276140213,1,left,0.647742033004761,265.234467020035,604.47764538765,607.23764538765,1654034373.44877,1654034373.45048,1654034385.77003,1654034385.77357,1654034387.87081,1654034388.02087,1654034388.02315,1654034388.68959,1654034388.68778,1654034727.93096,1
128,4,2,1,15,2,4,c4_HowHand,1,pressing button?,82,H_126.jpg,1654034120.69332,1654034120.69471,249.995451440811,12.3054597377777,262.316712846756,264.417496433258,0.3,265.551252117157,0.650242567062378,266.202868213654,1,left,0.631900072097778,266.201494684219,604.47764538765,607.23764538765,1654034373.44877,1654034373.45048,1654034385.77003,1654034385.77357,1654034387.87081,1654034389.00457,1654034389.00664,1654034389.65619,1654034389.65481,1654034727.93096,1
128,4,2,1,15,3,4,c4_HowHand,2,pressing button?,85,H_130.jpg,1654034120.69332,1654034120.69471,249.995451440811,12.3054597377777,262.316712846756,264.417496433258,0.3,266.518280258179,0.666914939880371,267.186979045868,3,right,0.65064811706543,267.185195198059,604.47764538765,607.23764538765,1654034373.44877,1654034373.45048,1654034385.77003,1654034385.77357,1654034387.87081,1654034389.9716,1654034389.97357,1654034390.6403,1654034390.63851,1654034727.93096,0
128,4,2,1,15,4,4,c4_HowHand,1,pressing button?,86,H_332.jpg,1654034120.69332,1654034120.69471,249.995451440811,12.3054597377777,262.316712846756,264.417496433258,0.3,267.501980295181,0.566877841949463,268.069907178879,1,left,0.550331830978394,268.068858137131,604.47764538765,607.23764538765,1654034373.44877,1654034373.45048,1654034385.77003,1654034385.77357,1654034387.87081,1654034390.9553,1654034390.95687,1654034391.52323,1654034391.52218,1654034727.93096,1
128,4,2,1,15,5,4,c4_HowHand,2,pressing button?,87,H_024.jpg,1654034120.69332,1654034120.69471,249.995451440811,12.3054597377777,262.316712846756,264.417496433258,0.3,268.385642757416,0.600222826004028,268.986973991394,3,right,0.581193923950195,268.98586558342,604.47764538765,607.23764538765,1654034373.44877,1654034373.45048,1654034385.77003,1654034385.77357,1654034387.87081,1654034391.83896,1654034391.84084,1654034392.44029,1654034392.43918,1654034727.93096,0
128,4,2,1,15,6,4,c4_HowHand,1,pressing button?,84,H_483.jpg,1654034120.69332,1654034120.69471,249.995451440811,12.3054597377777,262.316712846756,264.417496433258,0.3,269.302650680542,0.650243043899536,269.953883161545,1,left,0.639420986175537,269.952893724442,604.47764538765,607.23764538765,1654034373.44877,1654034373.45048,1654034385.77003,1654034385.77357,1654034387.87081,1654034392.75597,1654034392.75743,1654034393.4072,1654034393.40621,1654034727.93096,1
128,4,2,1,15,7,4,c4_HowHand,2,pressing button?,81,H_261.jpg,1654034120.69332,1654034120.69471,249.995451440811,12.3054597377777,262.316712846756,264.417496433258,0.3,270.269677629471,0.600224494934082,270.870867004395,3,right,0.588830947875977,270.869902124405,604.47764538765,607.23764538765,1654034373.44877,1654034373.45048,1654034385.77003,1654034385.77357,1654034387.87081,1654034393.723,1654034393.72457,1654034394.32418,1654034394.32322,1654034727.93096,0
128,4,2,1,15,8,4,c4_HowHand,1,pressing button?,83,H_502.jpg,1654034120.69332,1654034120.69471,249.995451440811,12.3054597377777,262.316712846756,264.417496433258,0.3,271.186687221527,0.550205230712891,271.738036146164,1,left,0.539947986602783,271.73689245224,604.47764538765,607.23764538765,1654034373.44877,1654034373.45048,1654034385.77003,1654034385.77357,1654034387.87081,1654034394.64001,1654034394.64166,1654034395.19135,1654034395.19021,1654034727.93096,1
128,4,2,1,16,1,2,c2_WhyHand,1,self-protection?,89,H_443.jpg,1654034120.69332,1654034120.69471,271.803583612442,8.33741450309753,280.156699171066,282.257482042313,2.10078287124634,282.40753745079,0.900336980819702,283.319508066177,3,right,0.887260913848877,283.30787443161,604.47764538765,607.23764538765,1654034395.2569,1654034395.25824,1654034403.61002,1654034403.61221,1654034405.7108,1654034405.86086,1654034405.8629,1654034406.77283,1654034406.76119,1654034727.93096,0
128,4,2,1,16,2,2,c2_WhyHand,1,self-protection?,94,H_189.jpg,1654034120.69332,1654034120.69471,271.803583612442,8.33741450309753,280.156699171066,282.257482042313,0.3,283.624659290314,0.883662223815918,284.509762039185,1,left,0.860492944717407,284.50832151413,604.47764538765,607.23764538765,1654034395.2569,1654034395.25824,1654034403.61002,1654034403.61221,1654034405.7108,1654034407.07798,1654034407.0798,1654034407.96308,1654034407.96164,1654034727.93096,1
128,4,2,1,16,3,2,c2_WhyHand,1,self-protection?,96,H_027.jpg,1654034120.69332,1654034120.69471,271.803583612442,8.33741450309753,280.156699171066,282.257482042313,0.3,284.82510684967,0.800297975540161,285.636594047546,1,left,0.790037155151367,285.625404825211,604.47764538765,607.23764538765,1654034395.2569,1654034395.25824,1654034403.61002,1654034403.61221,1654034405.7108,1654034408.27842,1654034408.28017,1654034409.08991,1654034409.07872,1654034727.93096,1
128,4,2,1,16,4,2,c2_WhyHand,2,self-protection?,92,H_532.jpg,1654034120.69332,1654034120.69471,271.803583612442,8.33741450309753,280.156699171066,282.257482042313,0.3,285.942189922333,0.816971063613892,286.769813051224,3,right,0.803984880447388,286.759160985947,604.47764538765,607.23764538765,1654034395.2569,1654034395.25824,1654034403.61002,1654034403.61221,1654034405.7108,1654034409.39551,1654034409.39696,1654034410.22313,1654034410.21248,1654034727.93096,0
128,4,2,1,16,5,2,c2_WhyHand,1,self-protection?,93,H_038.jpg,1654034120.69332,1654034120.69471,271.803583612442,8.33741450309753,280.156699171066,282.257482042313,0.3,287.07594584465,0.833643674850464,287.919533004761,1,left,0.819954872131348,287.909589519501,604.47764538765,607.23764538765,1654034395.2569,1654034395.25824,1654034403.61002,1654034403.61221,1654034405.7108,1654034410.52926,1654034410.53076,1654034411.37285,1654034411.36291,1654034727.93096,1
128,4,2,1,16,6,2,c2_WhyHand,2,self-protection?,90,H_006.jpg,1654034120.69332,1654034120.69471,271.803583612442,8.33741450309753,280.156699171066,282.257482042313,0.3,288.226374855042,0.883663415908813,289.119990100861,3,right,0.875736951828003,289.11003827095,604.47764538765,607.23764538765,1654034395.2569,1654034395.25824,1654034403.61002,1654034403.61221,1654034405.7108,1654034411.67969,1654034411.68117,1654034412.57331,1654034412.56336,1654034727.93096,0
128,4,2,1,16,7,2,c2_WhyHand,2,self-protection?,95,H_332.jpg,1654034120.69332,1654034120.69471,271.803583612442,8.33741450309753,280.156699171066,282.257482042313,0.3,289.426821699142,0.733606815338135,290.162036170959,3,right,0.713612079620361,290.160428514481,604.47764538765,607.23764538765,1654034395.2569,1654034395.25824,1654034403.61002,1654034403.61221,1654034405.7108,1654034412.88014,1654034412.88191,1654034413.61535,1654034413.61375,1654034727.93096,0
128,4,2,1,16,8,2,c2_WhyHand,1,self-protection?,91,H_581.jpg,1654034120.69332,1654034120.69471,271.803583612442,8.33741450309753,280.156699171066,282.257482042313,0.3,290.477213373184,1.55057859420776,292.029687156677,3,right,1.52657890319824,292.027791967392,604.47764538765,607.23764538765,1654034395.2569,1654034395.25824,1654034403.61002,1654034403.61221,1654034405.7108,1654034413.93053,1654034413.9323,1654034415.48301,1654034415.48111,1654034727.93096,0
128,4,2,1,17,1,4,c4_HowHand,1,reaching?,107,H_007.jpg,1654034120.69332,1654034120.69471,292.094484081268,6.72247004508972,298.830328931808,300.931113471985,2.10078454017639,301.081168642044,0.650242567062378,301.737009038925,1,left,0.628667116165161,301.731411209106,604.47764538765,607.23764538765,1654034415.5478,1654034415.55705,1654034422.28365,1654034422.29029,1654034424.38443,1654034424.53449,1654034424.5413,1654034425.19033,1654034425.18473,1654034727.93096,1
128,4,2,1,17,2,4,c4_HowHand,2,reaching?,108,H_532.jpg,1654034120.69332,1654034120.69471,292.094484081268,6.72247004508972,298.830328931808,300.931113471985,0.3,302.04819606781,0.716933965682983,302.766926994324,3,right,0.693483114242554,302.765130033493,604.47764538765,607.23764538765,1654034415.5478,1654034415.55705,1654034422.28365,1654034422.29029,1654034424.38443,1654034425.50151,1654034425.50367,1654034426.22024,1654034426.21845,1654034727.93096,0
128,4,2,1,17,3,4,c4_HowHand,1,reaching?,109,H_474.jpg,1654034120.69332,1654034120.69471,292.094484081268,6.72247004508972,298.830328931808,300.931113471985,0.3,303.081915130615,0.883663177490234,303.967270126343,1,left,0.858176946640015,303.965578308105,604.47764538765,607.23764538765,1654034415.5478,1654034415.55705,1654034422.28365,1654034422.29029,1654034424.38443,1654034426.53523,1654034426.54025,1654034427.42059,1654034427.4189,1654034727.93096,1
128,4,2,1,17,4,4,c4_HowHand,2,reaching?,105,H_438.jpg,1654034120.69332,1654034120.69471,292.094484081268,6.72247004508972,298.830328931808,300.931113471985,0.3,304.282362689972,0.833644151687622,305.119431009293,3,right,0.820152997970581,305.11600684166,604.47764538765,607.23764538765,1654034415.5478,1654034415.55705,1654034422.28365,1654034422.29029,1654034424.38443,1654034427.73568,1654034427.74029,1654034428.57275,1654034428.56932,1654034727.93096,0
128,4,2,1,17,5,4,c4_HowHand,1,reaching?,110,H_364.jpg,1654034120.69332,1654034120.69471,292.094484081268,6.72247004508972,298.830328931808,300.931113471985,0.3,305.432790985107,0.783626317977905,306.219486227036,1,left,0.770210027694702,306.216417303085,604.47764538765,607.23764538765,1654034415.5478,1654034415.55705,1654034422.28365,1654034422.29029,1654034424.38443,1654034428.88611,1654034428.88954,1654034429.6728,1654034429.66974,1654034727.93096,1
128,4,2,1,17,6,4,c4_HowHand,1,reaching?,106,H_006.jpg,1654034120.69332,1654034120.69471,292.094484081268,6.72247004508972,298.830328931808,300.931113471985,0.3,306.533201684952,0.700261831283569,307.236272087097,1,left,0.680082082748413,307.233463516235,604.47764538765,607.23764538765,1654034415.5478,1654034415.55705,1654034422.28365,1654034422.29029,1654034424.38443,1654034429.98652,1654034429.99017,1654034430.68959,1654034430.68678,1654034727.93096,1
128,4,2,1,17,7,4,c4_HowHand,1,reaching?,111,H_003.jpg,1654034120.69332,1654034120.69471,292.094484081268,6.72247004508972,298.830328931808,300.931113471985,0.3,307.550248374939,0.766951322555542,308.320144166946,1,left,0.745805025100708,308.317199697495,604.47764538765,607.23764538765,1654034415.5478,1654034415.55705,1654034422.28365,1654034422.29029,1654034424.38443,1654034431.00357,1654034431.00689,1654034431.77346,1654034431.77052,1654034727.93096,1
128,4,2,1,17,8,4,c4_HowHand,2,reaching?,112,H_132.jpg,1654034120.69332,1654034120.69471,292.094484081268,6.72247004508972,298.830328931808,300.931113471985,0.3,308.633985033035,0.816970586776733,309.452882995605,3,right,0.80008602142334,309.450955619812,604.47764538765,607.23764538765,1654034415.5478,1654034415.55705,1654034422.28365,1654034422.29029,1654034424.38443,1654034432.0873,1654034432.0903,1654034432.9062,1654034432.90427,1654034727.93096,0
128,4,2,1,18,1,2,c2_WhyHand,1,healthy?,21,H_627.jpg,1654034120.69332,1654034120.69471,309.51764749527,8.26336359977722,317.7873985672,319.88818239212,2.10078382492065,320.038238039017,0.716933488845825,320.756271114349,1,left,0.698901891708374,320.755171527863,604.47764538765,607.23764538765,1654034432.97097,1654034432.97322,1654034441.24072,1654034441.24241,1654034443.3415,1654034443.49156,1654034443.49334,1654034444.20959,1654034444.20849,1654034727.93096,1
128,4,2,1,18,2,2,c2_WhyHand,1,healthy?,18,H_438.jpg,1654034120.69332,1654034120.69471,309.51764749527,8.26336359977722,317.7873985672,319.88818239212,0.3,321.071956624985,1.0170464515686,322.10309504509,1,left,1.00970888137817,322.089003076553,604.47764538765,607.23764538765,1654034432.97097,1654034432.97322,1654034441.24072,1654034441.24241,1654034443.3415,1654034444.52527,1654034444.52706,1654034445.55641,1654034445.54232,1654034727.93096,1
128,4,2,1,18,3,2,c2_WhyHand,1,healthy?,23,H_364.jpg,1654034120.69332,1654034120.69471,309.51764749527,8.26336359977722,317.7873985672,319.88818239212,0.3,322.40578745842,1.06706500053406,323.473996152878,1,left,1.04695200920105,323.472852458954,604.47764538765,607.23764538765,1654034432.97097,1654034432.97322,1654034441.24072,1654034441.24241,1654034443.3415,1654034445.85911,1654034445.86097,1654034446.92731,1654034446.92617,1654034727.93096,1
128,4,2,1,18,4,2,c2_WhyHand,2,healthy?,22,H_130.jpg,1654034120.69332,1654034120.69471,309.51764749527,8.26336359977722,317.7873985672,319.88818239212,0.3,323.789637317657,0.783625841140747,324.574356069565,3,right,0.765367031097412,324.573263158798,604.47764538765,607.23764538765,1654034432.97097,1654034432.97322,1654034441.24072,1654034441.24241,1654034443.3415,1654034447.24296,1654034447.24493,1654034448.02767,1654034448.02658,1654034727.93096,0
128,4,2,1,18,5,2,c2_WhyHand,1,healthy?,17,H_362.jpg,1654034120.69332,1654034120.69471,309.51764749527,8.26336359977722,317.7873985672,319.88818239212,0.3,324.890048017502,0.766951560974121,325.658052196503,1,left,0.751283884048462,325.656999578476,604.47764538765,607.23764538765,1654034432.97097,1654034432.97322,1654034441.24072,1654034441.24241,1654034443.3415,1654034448.34337,1654034448.34482,1654034449.11137,1654034449.11032,1654034727.93096,1
128,4,2,1,18,6,2,c2_WhyHand,2,healthy?,20,H_007.jpg,1654034120.69332,1654034120.69471,309.51764749527,8.26336359977722,317.7873985672,319.88818239212,0.3,325.973786821365,0.800295829772949,326.786169042587,3,right,0.79226016998291,326.774082651138,604.47764538765,607.23764538765,1654034432.97097,1654034432.97322,1654034441.24072,1654034441.24241,1654034443.3415,1654034449.4271,1654034449.42865,1654034450.23949,1654034450.2274,1654034727.93096,0
128,4,2,1,18,7,2,c2_WhyHand,1,healthy?,19,H_167.jpg,1654034120.69332,1654034120.69471,309.51764749527,8.26336359977722,317.7873985672,319.88818239212,0.3,327.090867748261,1.10040974617004,328.192978134155,1,left,1.08090686798096,328.191277494431,604.47764538765,607.23764538765,1654034432.97097,1654034432.97322,1654034441.24072,1654034441.24241,1654034443.3415,1654034450.54419,1654034450.54578,1654034451.6463,1654034451.6446,1654034727.93096,1
128,4,2,1,18,8,2,c2_WhyHand,2,healthy?,24,H_019.jpg,1654034120.69332,1654034120.69471,309.51764749527,8.26336359977722,317.7873985672,319.88818239212,0.3,328.508062591553,0.917009115219116,329.426954021454,3,right,0.902667999267578,329.425071706772,604.47764538765,607.23764538765,1654034432.97097,1654034432.97322,1654034441.24072,1654034441.24241,1654034443.3415,1654034451.96138,1654034451.9634,1654034452.88027,1654034452.87839,1654034727.93096,0
128,4,2,1,19,1,1,c1_WhyFace,1,admiring?,4,F_779.jpg,1654034120.69332,1654034120.69471,329.491763820648,10.7711882591248,340.279119720459,342.379903068542,2.1007833480835,342.529958715439,0.600224018096924,343.136286010742,1,left,0.585878849029541,343.130182733536,604.47764538765,607.23764538765,1654034452.94508,1654034452.95664,1654034463.73244,1654034463.73401,1654034465.83322,1654034465.98328,1654034465.98504,1654034466.5896,1654034466.5835,1654034727.93096,1
128,4,2,1,19,2,1,c1_WhyFace,1,admiring?,1,F_593.jpg,1654034120.69332,1654034120.69471,329.491763820648,10.7711882591248,340.279119720459,342.379903068542,0.3,343.446968545914,0.800297260284424,344.253440132141,1,left,0.79050612449646,344.247265806198,604.47764538765,607.23764538765,1654034452.94508,1654034452.95664,1654034463.73244,1654034463.73401,1654034465.83322,1654034466.90029,1654034466.9024,1654034467.70676,1654034467.70058,1654034727.93096,1
128,4,2,1,19,3,1,c1_WhyFace,2,admiring?,3,F_110.jpg,1654034120.69332,1654034120.69471,329.491763820648,10.7711882591248,340.279119720459,342.379903068542,0.3,344.564050664902,0.600224256515503,345.170186033249,3,right,0.582776069641113,345.164274921417,604.47764538765,607.23764538765,1654034452.94508,1654034452.95664,1654034463.73244,1654034463.73401,1654034465.83322,1654034468.01737,1654034468.01904,1654034468.6235,1654034468.61759,1654034727.93096,0
128,4,2,1,19,4,1,c1_WhyFace,1,admiring?,8,F_590.jpg,1654034120.69332,1654034120.69471,329.491763820648,10.7711882591248,340.279119720459,342.379903068542,0.3,345.481060018539,0.500186443328857,345.986690034866,1,left,0.491689920425415,345.981246461868,604.47764538765,607.23764538765,1654034452.94508,1654034452.95664,1654034463.73244,1654034463.73401,1654034465.83322,1654034468.93438,1654034468.93631,1654034469.44001,1654034469.43456,1654034727.93096,1
128,4,2,1,19,5,1,c1_WhyFace,2,admiring?,6,F_692.jpg,1654034120.69332,1654034120.69471,329.491763820648,10.7711882591248,340.279119720459,342.379903068542,0.3,346.29803155899,0.783624410629272,347.086810102463,3,right,0.763936996459961,347.08165596962,604.47764538765,607.23764538765,1654034452.94508,1654034452.95664,1654034463.73244,1654034463.73401,1654034465.83322,1654034469.75135,1654034469.75297,1654034470.54013,1654034470.53497,1654034727.93096,0
128,4,2,1,19,6,1,c1_WhyFace,1,admiring?,5,F_759.jpg,1654034120.69332,1654034120.69471,329.491763820648,10.7711882591248,340.279119720459,342.379903068542,0.3,347.398441305161,0.500186443328857,347.903568019867,1,left,0.480060815811157,347.898627748489,604.47764538765,607.23764538765,1654034452.94508,1654034452.95664,1654034463.73244,1654034463.73401,1654034465.83322,1654034470.85176,1654034470.85682,1654034471.35689,1654034471.35195,1654034727.93096,1
128,4,2,1,19,7,1,c1_WhyFace,1,admiring?,7,F_648.jpg,1654034120.69332,1654034120.69471,329.491763820648,10.7711882591248,340.279119720459,342.379903068542,0.3,348.215413322449,0.650241374969482,348.869972219467,1,left,0.636020183563232,348.865654697418,604.47764538765,607.23764538765,1654034452.94508,1654034452.95664,1654034463.73244,1654034463.73401,1654034465.83322,1654034471.66873,1654034471.67345,1654034472.32329,1654034472.31897,1654034727.93096,1
128,4,2,1,19,8,1,c1_WhyFace,2,admiring?,2,F_129.jpg,1654034120.69332,1654034120.69471,329.491763820648,10.7711882591248,340.279119720459,342.379903068542,0.3,349.182439556122,0.633570194244385,349.820114126205,3,right,0.612801074981689,349.816009750366,604.47764538765,607.23764538765,1654034452.94508,1654034452.95664,1654034463.73244,1654034463.73401,1654034465.83322,1654034472.63576,1654034472.64007,1654034473.27343,1654034473.26933,1654034727.93096,0
128,4,2,1,20,1,3,c3_HowFace,1,smiling?,119,F_139.jpg,1654034120.69332,1654034120.69471,349.882700910568,8.25525116920471,358.152452220917,360.253234853745,2.10078263282776,360.403290739059,0.600223779678345,361.020130147934,1,left,0.591401100158691,361.003514518738,604.47764538765,607.23764538765,1654034473.33602,1654034473.33935,1654034481.60577,1654034481.60766,1654034483.70655,1654034483.85661,1654034483.8583,1654034484.47345,1654034484.45683,1654034727.93096,1
128,4,2,1,20,2,3,c3_HowFace,2,smiling?,113,F_712.jpg,1654034120.69332,1654034120.69471,349.882700910568,8.25525116920471,358.152452220917,360.253234853745,0.3,361.320299854279,0.633570432662964,361.955083122253,3,right,0.618382930755615,361.953870286942,604.47764538765,607.23764538765,1654034473.33602,1654034473.33935,1654034481.60577,1654034481.60766,1654034483.70655,1654034484.77362,1654034484.77547,1654034485.4084,1654034485.40719,1654034727.93096,0
128,4,2,1,20,3,3,c3_HowFace,1,smiling?,115,F_695.jpg,1654034120.69332,1654034120.69471,349.882700910568,8.25525116920471,358.152452220917,360.253234853745,0.3,362.270654430389,0.633569240570068,362.905718078613,1,left,0.622239828109741,362.904223670959,604.47764538765,607.23764538765,1654034473.33602,1654034473.33935,1654034481.60577,1654034481.60766,1654034483.70655,1654034485.72397,1654034485.72558,1654034486.35904,1654034486.35754,1654034727.93096,1
128,4,2,1,20,4,3,c3_HowFace,2,smiling?,120,F_758.jpg,1654034120.69332,1654034120.69471,349.882700910568,8.25525116920471,358.152452220917,360.253234853745,0.3,363.221008768082,0.600222826004028,363.822978010178,3,right,0.58030891418457,363.821231594086,604.47764538765,607.23764538765,1654034473.33602,1654034473.33935,1654034481.60577,1654034481.60766,1654034483.70655,1654034486.67433,1654034486.67639,1654034487.2763,1654034487.27455,1654034727.93096,0
128,4,2,1,20,5,3,c3_HowFace,1,smiling?,116,F_083.jpg,1654034120.69332,1654034120.69471,349.882700910568,8.25525116920471,358.152452220917,360.253234853745,0.3,364.138015975952,0.45016884803772,364.589617004395,1,left,0.436887979507446,364.58818482399,604.47764538765,607.23764538765,1654034473.33602,1654034473.33935,1654034481.60577,1654034481.60766,1654034483.70655,1654034487.59133,1654034487.59338,1654034488.04293,1654034488.0415,1654034727.93096,1
128,4,2,1,20,6,3,c3_HowFace,1,smiling?,118,F_759.jpg,1654034120.69332,1654034120.69471,349.882700910568,8.25525116920471,358.152452220917,360.253234853745,0.3,364.904969682693,0.550205230712891,365.456628074646,1,left,0.532125949859619,365.455174913406,604.47764538765,607.23764538765,1654034473.33602,1654034473.33935,1654034481.60577,1654034481.60766,1654034483.70655,1654034488.35829,1654034488.36002,1654034488.90995,1654034488.90849,1654034727.93096,1
128,4,2,1,20,7,3,c3_HowFace,2,smiling?,114,F_412.jpg,1654034120.69332,1654034120.69471,349.882700910568,8.25525116920471,358.152452220917,360.253234853745,0.3,365.771960487366,0.51685905456543,366.290005197525,3,right,0.497056007385254,366.288819541931,604.47764538765,607.23764538765,1654034473.33602,1654034473.33935,1654034481.60577,1654034481.60766,1654034483.70655,1654034489.22528,1654034489.22682,1654034489.74332,1654034489.74214,1654034727.93096,0
128,4,2,1,20,8,3,c3_HowFace,1,smiling?,117,F_593.jpg,1654034120.69332,1654034120.69471,349.882700910568,8.25525116920471,358.152452220917,360.253234853745,0.3,366.605603923798,0.616896867752075,367.224158039093,1,left,0.59525990486145,367.22250079155,604.47764538765,607.23764538765,1654034473.33602,1654034473.33935,1654034481.60577,1654034481.60766,1654034483.70655,1654034490.05892,1654034490.061,1654034490.67748,1654034490.67582,1654034727.93096,1
128,4,2,1,21,1,4,c4_HowHand,1,lifting?,56,H_136.jpg,1654034120.69332,1654034120.69471,367.305865039825,9.94004607200623,377.25957654953,379.360360374451,2.10078382492065,379.51041721344,0.816970825195312,380.329032173157,1,left,0.797396898269653,380.327388038635,604.47764538765,607.23764538765,1654034490.75918,1654034490.77344,1654034500.71289,1654034500.71463,1654034502.81368,1654034502.96374,1654034502.9654,1654034503.78235,1654034503.78071,1654034727.93096,1
128,4,2,1,21,2,4,c4_HowHand,2,lifting?,51,H_038.jpg,1654034120.69332,1654034120.69471,367.305865039825,9.94004607200623,377.25957654953,379.360360374451,0.3,380.644173135757,0.716933727264404,381.37000702858,3,right,0.708378076553345,381.361106863022,604.47764538765,607.23764538765,1654034490.75918,1654034490.77344,1654034500.71289,1654034500.71463,1654034502.81368,1654034504.09749,1654034504.09927,1654034504.82332,1654034504.81442,1654034727.93096,0
128,4,2,1,21,3,4,c4_HowHand,1,lifting?,52,H_189.jpg,1654034120.69332,1654034120.69471,367.305865039825,9.94004607200623,377.25957654953,379.360360374451,0.3,381.677891960144,0.600223302841187,382.286161174774,1,left,0.591062068939209,382.278115262985,604.47764538765,607.23764538765,1654034490.75918,1654034490.77344,1654034500.71289,1654034500.71463,1654034502.81368,1654034505.13121,1654034505.13299,1654034505.73948,1654034505.73143,1654034727.93096,1
128,4,2,1,21,4,4,c4_HowHand,2,lifting?,53,H_077.jpg,1654034120.69332,1654034120.69471,367.305865039825,9.94004607200623,377.25957654953,379.360360374451,0.3,382.5949015522,0.650241374969482,383.246847143173,3,right,0.63043999671936,383.24514292717,604.47764538765,607.23764538765,1654034490.75918,1654034490.77344,1654034500.71289,1654034500.71463,1654034502.81368,1654034506.04822,1654034506.04984,1654034506.70017,1654034506.69846,1654034727.93096,0
128,4,2,1,21,5,4,c4_HowHand,1,lifting?,50,H_443.jpg,1654034120.69332,1654034120.69471,367.305865039825,9.94004607200623,377.25957654953,379.360360374451,0.3,383.561928262711,0.750279188156128,384.319491138458,1,left,0.738317012786865,384.312207450867,604.47764538765,607.23764538765,1654034490.75918,1654034490.77344,1654034500.71289,1654034500.71463,1654034502.81368,1654034507.01525,1654034507.01699,1654034507.77281,1654034507.76553,1654034727.93096,1
128,4,2,1,21,6,4,c4_HowHand,2,lifting?,55,H_012.jpg,1654034120.69332,1654034120.69471,367.305865039825,9.94004607200623,377.25957654953,379.360360374451,0.3,384.62899230957,0.633569240570068,385.263625135422,3,right,0.61247992515564,385.26256155014,604.47764538765,607.23764538765,1654034490.75918,1654034490.77344,1654034500.71289,1654034500.71463,1654034502.81368,1654034508.08231,1654034508.08332,1654034508.71694,1654034508.71588,1654034727.93096,0
128,4,2,1,21,7,4,c4_HowHand,1,lifting?,49,H_362.jpg,1654034120.69332,1654034120.69471,367.305865039825,9.94004607200623,377.25957654953,379.360360374451,0.3,385.579346647263,0.616896152496338,386.202927103043,1,left,0.604805946350098,386.196242799759,604.47764538765,607.23764538765,1654034490.75918,1654034490.77344,1654034500.71289,1654034500.71463,1654034502.81368,1654034509.03266,1654034509.03431,1654034509.65624,1654034509.64956,1654034727.93096,1
128,4,2,1,21,8,4,c4_HowHand,1,lifting?,54,H_170.jpg,1654034120.69332,1654034120.69471,367.305865039825,9.94004607200623,377.25957654953,379.360360374451,0.3,386.513027896881,0.866989850997925,387.386593093872,3,right,0.850188970565796,387.380017747879,604.47764538765,607.23764538765,1654034490.75918,1654034490.77344,1654034500.71289,1654034500.71463,1654034502.81368,1654034509.96635,1654034509.96795,1654034510.83991,1654034510.83334,1654034727.93096,0
128,4,2,1,22,1,2,c2_WhyHand,1,helping?,38,H_077.jpg,1654034120.69332,1654034120.69471,387.480055084229,7.28288292884827,394.782779684067,396.866889705658,2.08411002159119,397.016945114136,0.866989850997925,397.88644908905,1,left,0.845906972885132,397.883934965134,604.47764538765,607.23764538765,1654034510.93337,1654034510.93501,1654034518.2361,1654034518.23774,1654034520.32021,1654034520.47026,1654034520.47337,1654034521.33977,1654034521.33725,1654034727.93096,1
128,4,2,1,22,2,2,c2_WhyHand,1,helping?,36,H_349.jpg,1654034120.69332,1654034120.69471,387.480055084229,7.28288292884827,394.782779684067,396.866889705658,0.3,398.200720300674,0.566877603530884,398.769419183731,1,left,0.559231996536255,398.767597904205,604.47764538765,607.23764538765,1654034510.93337,1654034510.93501,1654034518.2361,1654034518.23774,1654034520.32021,1654034521.65404,1654034521.65665,1654034522.22274,1654034522.22092,1654034727.93096,1
128,4,2,1,22,3,2,c2_WhyHand,1,helping?,37,H_474.jpg,1654034120.69332,1654034120.69471,387.480055084229,7.28288292884827,394.782779684067,396.866889705658,0.3,399.084383478165,0.650241613388062,399.73684715271,1,left,0.627748012542725,399.734625091553,604.47764538765,607.23764538765,1654034510.93337,1654034510.93501,1654034518.2361,1654034518.23774,1654034520.32021,1654034522.5377,1654034522.53974,1654034523.19017,1654034523.18794,1654034727.93096,1
128,4,2,1,22,4,2,c2_WhyHand,1,helping?,39,H_024.jpg,1654034120.69332,1654034120.69471,387.480055084229,7.28288292884827,394.782779684067,396.866889705658,0.3,400.051409950256,0.683588027954102,400.736280193329,3,right,0.672719955444336,400.73499797821,604.47764538765,607.23764538765,1654034510.93337,1654034510.93501,1654034518.2361,1654034518.23774,1654034520.32021,1654034523.50473,1654034523.50701,1654034524.1896,1654034524.18832,1654034727.93096,0
128,4,2,1,22,5,2,c2_WhyHand,2,helping?,40,H_012.jpg,1654034120.69332,1654034120.69471,387.480055084229,7.28288292884827,394.782779684067,396.866889705658,0.3,401.051783790588,0.833642959594727,401.886833181381,3,right,0.824692964553833,401.885426750183,604.47764538765,607.23764538765,1654034510.93337,1654034510.93501,1654034518.2361,1654034518.23774,1654034520.32021,1654034524.5051,1654034524.50707,1654034525.34015,1654034525.33874,1654034727.93096,0
128,4,2,1,22,6,2,c2_WhyHand,2,helping?,35,H_159.jpg,1654034120.69332,1654034120.69471,387.480055084229,7.28288292884827,394.782779684067,396.866889705658,0.3,402.202210655212,0.90033745765686,403.103610029221,3,right,0.889854907989502,403.102548112869,604.47764538765,607.23764538765,1654034510.93337,1654034510.93501,1654034518.2361,1654034518.23774,1654034520.32021,1654034525.65553,1654034525.65738,1654034526.55693,1654034526.55587,1654034727.93096,0
128,4,2,1,22,7,2,c2_WhyHand,1,helping?,34,H_111.jpg,1654034120.69332,1654034120.69471,387.480055084229,7.28288292884827,394.782779684067,396.866889705658,0.3,403.41933344841,0.750279664993286,404.171200027466,1,left,0.740553140640259,404.169613113403,604.47764538765,607.23764538765,1654034510.93337,1654034510.93501,1654034518.2361,1654034518.23774,1654034520.32021,1654034526.87265,1654034526.87417,1654034527.62452,1654034527.62293,1654034727.93096,1
128,4,2,1,22,8,2,c2_WhyHand,2,helping?,33,H_091.jpg,1654034120.69332,1654034120.69471,387.480055084229,7.28288292884827,394.782779684067,396.866889705658,0.3,404.48639749527,0.750279188156128,405.237606039047,3,right,0.740514039993286,405.236676683426,604.47764538765,607.23764538765,1654034510.93337,1654034510.93501,1654034518.2361,1654034518.23774,1654034520.32021,1654034527.93972,1654034527.94131,1654034528.69092,1654034528.68999,1654034727.93096,0
128,4,2,1,23,1,1,c1_WhyFace,1,proud?,104,F_598.jpg,1654034120.69332,1654034120.69471,405.336714496613,8.48021769523621,413.823212375641,415.923996200562,2.10078382492065,416.074052085876,0.666914939880371,416.74289106369,1,left,0.633984088897705,416.740967025757,604.47764538765,607.23764538765,1654034528.79003,1654034528.79174,1654034537.27653,1654034537.29073,1654034539.37731,1654034539.52737,1654034539.54043,1654034540.19621,1654034540.19428,1654034727.93096,1
128,4,2,1,23,2,1,c1_WhyFace,2,proud?,102,F_760.jpg,1654034120.69332,1654034120.69471,405.336714496613,8.48021769523621,413.823212375641,415.923996200562,0.3,417.05775188446,0.633569955825806,417.692815055847,3,right,0.618898868560791,417.691321840286,604.47764538765,607.23764538765,1654034528.79003,1654034528.79174,1654034537.27653,1654034537.29073,1654034539.37731,1654034540.51107,1654034540.51266,1654034541.14613,1654034541.14464,1654034727.93096,0
128,4,2,1,23,3,1,c1_WhyFace,1,proud?,97,F_582.jpg,1654034120.69332,1654034120.69471,405.336714496613,8.48021769523621,413.823212375641,415.923996200562,0.3,418.00810669899,0.583551168441772,418.593426218033,1,left,0.560665845870972,418.591657867432,604.47764538765,607.23764538765,1654034528.79003,1654034528.79174,1654034537.27653,1654034537.29073,1654034539.37731,1654034541.46142,1654034541.46329,1654034542.04674,1654034542.04498,1654034727.93096,1
128,4,2,1,23,4,1,c1_WhyFace,2,proud?,98,F_412.jpg,1654034120.69332,1654034120.69471,405.336714496613,8.48021769523621,413.823212375641,415.923996200562,0.3,418.908442249298,0.566877603530884,419.476985206604,3,right,0.551359891891479,419.475319852829,604.47764538765,607.23764538765,1654034528.79003,1654034528.79174,1654034537.27653,1654034537.29073,1654034539.37731,1654034542.36176,1654034542.36357,1654034542.9303,1654034542.92864,1654034727.93096,0
128,4,2,1,23,5,1,c1_WhyFace,1,proud?,101,F_083.jpg,1654034120.69332,1654034120.69471,405.336714496613,8.48021769523621,413.823212375641,415.923996200562,0.3,419.792104234695,0.716934204101562,420.510270109177,1,left,0.699016809463501,420.509038438797,604.47764538765,607.23764538765,1654034528.79003,1654034528.79174,1654034537.27653,1654034537.29073,1654034539.37731,1654034543.24542,1654034543.24728,1654034543.96359,1654034543.96236,1654034727.93096,1
128,4,2,1,23,6,1,c1_WhyFace,2,proud?,100,F_776.jpg,1654034120.69332,1654034120.69471,405.336714496613,8.48021769523621,413.823212375641,415.923996200562,0.3,420.825824489594,1.31715798377991,422.152972211838,3,right,1.30466985702515,422.142982473373,604.47764538765,607.23764538765,1654034528.79003,1654034528.79174,1654034537.27653,1654034537.29073,1654034539.37731,1654034544.27914,1654034544.28081,1654034545.60629,1654034545.5963,1654034727.93096,0
128,4,2,1,23,7,1,c1_WhyFace,1,proud?,103,F_618.jpg,1654034120.69332,1654034120.69471,405.336714496613,8.48021769523621,413.823212375641,415.923996200562,0.3,422.459766139984,0.633570194244385,423.094348182678,1,left,0.611485004425049,423.093336334229,604.47764538765,607.23764538765,1654034528.79003,1654034528.79174,1654034537.27653,1654034537.29073,1654034539.37731,1654034545.91308,1654034545.9146,1654034546.54767,1654034546.54665,1654034727.93096,1
128,4,2,1,23,8,1,c1_WhyFace,1,proud?,99,F_695.jpg,1654034120.69332,1654034120.69471,405.336714496613,8.48021769523621,413.823212375641,415.923996200562,0.3,423.410120716095,0.733607053756714,424.153243055344,1,left,0.721029996871948,424.143727769852,604.47764538765,607.23764538765,1654034528.79003,1654034528.79174,1654034537.27653,1654034537.29073,1654034539.37731,1654034546.86344,1654034546.86491,1654034547.60656,1654034547.59705,1654034727.93096,1
128,4,2,1,24,1,3,c3_HowFace,1,looking to side?,72,F_590.jpg,1654034120.69332,1654034120.69471,424.243765106201,7.36317801475525,431.613180150986,433.713963975906,2.10078382492065,433.864019622803,0.716934680938721,434.582065095901,1,left,0.69195818901062,434.580954303741,604.47764538765,607.23764538765,1654034547.69708,1654034547.69812,1654034555.0665,1654034555.07374,1654034557.16728,1654034557.31734,1654034557.32322,1654034558.03538,1654034558.03427,1654034727.93096,1
128,4,2,1,24,2,3,c3_HowFace,1,looking to side?,71,F_433.jpg,1654034120.69332,1654034120.69471,424.243765106201,7.36317801475525,431.613180150986,433.713963975906,0.3,434.897737731934,0.583550691604614,435.48681520462,1,left,0.570976972579956,435.481288423538,604.47764538765,607.23764538765,1654034547.69708,1654034547.69812,1654034555.0665,1654034555.07374,1654034557.16728,1654034558.35106,1654034558.3532,1654034558.94013,1654034558.93461,1654034727.93096,1
128,4,2,1,24,3,3,c3_HowFace,1,looking to side?,67,F_716.jpg,1654034120.69332,1654034120.69471,424.243765106201,7.36317801475525,431.613180150986,433.713963975906,0.3,435.798073759079,0.583551406860352,436.38665722847,1,left,0.573296070098877,436.381625165939,604.47764538765,607.23764538765,1654034547.69708,1654034547.69812,1654034555.0665,1654034555.07374,1654034557.16728,1654034559.25139,1654034559.25321,1654034559.83998,1654034559.83494,1654034727.93096,1
128,4,2,1,24,4,3,c3_HowFace,2,looking to side?,70,F_779.jpg,1654034120.69332,1654034120.69471,424.243765106201,7.36317801475525,431.613180150986,433.713963975906,0.3,436.698409786224,0.983700513839722,437.686991205215,3,right,0.97174596786499,437.682110300064,604.47764538765,607.23764538765,1654034547.69708,1654034547.69812,1654034555.0665,1654034555.07374,1654034557.16728,1654034560.15173,1654034560.15342,1654034561.14031,1654034561.13543,1654034727.93096,0
128,4,2,1,24,5,3,c3_HowFace,1,looking to side?,68,F_760.jpg,1654034120.69332,1654034120.69471,424.243765106201,7.36317801475525,431.613180150986,433.713963975906,0.3,437.998894443512,0.650242805480957,438.653255214691,1,left,0.629690170288086,438.649137248993,604.47764538765,607.23764538765,1654034547.69708,1654034547.69812,1654034555.0665,1654034555.07374,1654034557.16728,1654034561.45221,1654034561.45684,1654034562.10657,1654034562.10246,1654034727.93096,1
128,4,2,1,24,6,3,c3_HowFace,2,looking to side?,66,F_111.jpg,1654034120.69332,1654034120.69471,424.243765106201,7.36317801475525,431.613180150986,433.713963975906,0.3,438.965921630859,0.633570432662964,439.601052036285,3,right,0.606971025466919,439.599492063522,604.47764538765,607.23764538765,1654034547.69708,1654034547.69812,1654034555.0665,1654034555.07374,1654034557.16728,1654034562.41924,1654034562.42402,1654034563.05437,1654034563.05281,1654034727.93096,0
128,4,2,1,24,7,3,c3_HowFace,1,looking to side?,69,F_110.jpg,1654034120.69332,1654034120.69471,424.243765106201,7.36317801475525,431.613180150986,433.713963975906,0.3,439.916277160645,0.600223541259766,440.51947807312,1,left,0.581443071365356,440.516500701904,604.47764538765,607.23764538765,1654034547.69708,1654034547.69812,1654034555.0665,1654034555.07374,1654034557.16728,1654034563.3696,1654034563.37346,1654034563.9728,1654034563.96982,1654034727.93096,1
128,4,2,1,24,8,3,c3_HowFace,2,looking to side?,65,F_798.jpg,1654034120.69332,1654034120.69471,424.243765106201,7.36317801475525,431.613180150986,433.713963975906,0.3,440.833286037445,0.61689567565918,441.453596105576,3,right,0.603693962097168,441.450181713104,604.47764538765,607.23764538765,1654034547.69708,1654034547.69812,1654034555.0665,1654034555.07374,1654034557.16728,1654034564.2866,1654034564.29022,1654034564.90691,1654034564.9035,1654034727.93096,0
128,4,2,1,25,1,1,c1_WhyFace,1,argument?,43,F_716.jpg,1654034120.69332,1654034120.69471,441.550219049454,7.58670210838318,449.153053750992,451.253837575912,2.10078382492065,451.403893938065,0.917009115219116,452.321971168518,1,left,0.903079986572266,452.320903053284,604.47764538765,607.23764538765,1654034565.00354,1654034565.00663,1654034572.60637,1654034572.60826,1654034574.70716,1654034574.85721,1654034574.85922,1654034575.77529,1654034575.77422,1654034727.93096,1
128,4,2,1,25,2,1,c1_WhyFace,2,argument?,44,F_139.jpg,1654034120.69332,1654034120.69471,441.550219049454,7.58670210838318,449.153053750992,451.253837575912,0.3,452.637686958313,0.0166726112365723,452.655835142136,1,left,0.000307083129882812,452.65435956955,604.47764538765,607.23764538765,1654034565.00354,1654034565.00663,1654034572.60637,1654034572.60826,1654034574.70716,1654034576.091,1654034576.09256,1654034576.10915,1654034576.10768,1654034727.93096,0
128,4,2,1,25,3,1,c1_WhyFace,1,argument?,41,F_712.jpg,1654034120.69332,1654034120.69471,441.550219049454,7.58670210838318,449.153053750992,451.253837575912,0.3,452.971144428253,0.983701229095459,453.96967004776,1,left,0.974803924560547,453.954845657349,604.47764538765,607.23764538765,1654034565.00354,1654034565.00663,1654034572.60637,1654034572.60826,1654034574.70716,1654034576.42446,1654034576.42642,1654034577.42299,1654034577.40816,1654034727.93096,1
128,4,2,1,25,4,1,c1_WhyFace,2,argument?,45,F_433.jpg,1654034120.69332,1654034120.69471,441.550219049454,7.58670210838318,449.153053750992,451.253837575912,0.3,454.271630039215,1.08373761177063,455.35648106575,1,left,1.06441402435303,455.355367650986,604.47764538765,607.23764538765,1654034565.00354,1654034565.00663,1654034572.60637,1654034572.60826,1654034574.70716,1654034577.72495,1654034577.72679,1654034578.8098,1654034578.80869,1654034727.93096,0
128,4,2,1,25,5,1,c1_WhyFace,1,argument?,42,F_403.jpg,1654034120.69332,1654034120.69471,441.550219049454,7.58670210838318,449.153053750992,451.253837575912,0.3,455.672152032852,0.800298690795898,456.473527183533,1,left,0.778903961181641,456.472450723648,604.47764538765,607.23764538765,1654034565.00354,1654034565.00663,1654034572.60637,1654034572.60826,1654034574.70716,1654034579.12547,1654034579.12706,1654034579.92685,1654034579.92577,1654034727.93096,1
128,4,2,1,25,6,1,c1_WhyFace,2,argument?,46,F_844.jpg,1654034120.69332,1654034120.69471,441.550219049454,7.58670210838318,449.153053750992,451.253837575912,0.3,456.78923582077,0.666914939880371,457.469993104935,3,right,0.659681081771851,457.456150760651,604.47764538765,607.23764538765,1654034565.00354,1654034565.00663,1654034572.60637,1654034572.60826,1654034574.70716,1654034580.24255,1654034580.24436,1654034580.92331,1654034580.90947,1654034727.93096,0
128,4,2,1,25,7,1,c1_WhyFace,1,argument?,47,F_743.jpg,1654034120.69332,1654034120.69471,441.550219049454,7.58670210838318,449.153053750992,451.253837575912,0.3,457.772935380936,0.766951560974121,458.541753997803,1,left,0.74932599067688,458.53988694191,604.47764538765,607.23764538765,1654034565.00354,1654034565.00663,1654034572.60637,1654034572.60826,1654034574.70716,1654034581.22625,1654034581.22831,1654034581.99507,1654034581.9932,1654034727.93096,1
128,4,2,1,25,8,1,c1_WhyFace,1,argument?,48,F_758.jpg,1654034120.69332,1654034120.69471,441.550219049454,7.58670210838318,449.153053750992,451.253837575912,0.3,458.856673231125,0.933682203292847,459.792004098892,1,left,0.911925077438354,459.790355434418,604.47764538765,607.23764538765,1654034565.00354,1654034565.00663,1654034572.60637,1654034572.60826,1654034574.70716,1654034582.30999,1654034582.31177,1654034583.24532,1654034583.24367,1654034727.93096,1
128,4,2,1,26,1,3,c3_HowFace,1,open mouth?,80,F_844.jpg,1654034120.69332,1654034120.69471,459.873719444275,8.05320858955383,467.943394889832,470.044178714752,2.10078382492065,470.194235076904,0.550204753875732,470.753392210007,1,left,0.534348011016846,470.74443983078,604.47764538765,607.23764538765,1654034583.32704,1654034583.32882,1654034591.39671,1654034591.39839,1654034593.4975,1654034593.64755,1654034593.64982,1654034594.20671,1654034594.19776,1654034727.93096,1
128,4,2,1,26,2,3,c3_HowFace,1,open mouth?,74,F_776.jpg,1654034120.69332,1654034120.69471,459.873719444275,8.05320858955383,467.943394889832,470.044178714752,0.3,471.061224451065,0.466840267181396,471.536740055084,1,left,0.456177949905396,471.528064718246,604.47764538765,607.23764538765,1654034583.32704,1654034583.32882,1654034591.39671,1654034591.39839,1654034593.4975,1654034594.51454,1654034594.51632,1654034594.99006,1654034594.98138,1654034727.93096,1
128,4,2,1,26,3,3,c3_HowFace,2,open mouth?,76,F_544.jpg,1654034120.69332,1654034120.69471,459.873719444275,8.05320858955383,467.943394889832,470.044178714752,0.3,471.844850292206,0.666915893554688,472.519579162598,3,right,0.650542974472046,472.511766185761,604.47764538765,607.23764538765,1654034583.32704,1654034583.32882,1654034591.39671,1654034591.39839,1654034593.4975,1654034595.29817,1654034595.29978,1654034595.9729,1654034595.96508,1654034727.93096,0
128,4,2,1,26,4,3,c3_HowFace,1,open mouth?,78,F_692.jpg,1654034120.69332,1654034120.69471,459.873719444275,8.05320858955383,467.943394889832,470.044178714752,0.3,472.828551044464,0.416821718215942,473.253209104538,1,left,0.401937961578369,473.24537276268,604.47764538765,607.23764538765,1654034583.32704,1654034583.32882,1654034591.39671,1654034591.39839,1654034593.4975,1654034596.28187,1654034596.28354,1654034596.70653,1654034596.69869,1654034727.93096,1
128,4,2,1,26,5,3,c3_HowFace,2,open mouth?,77,F_584.jpg,1654034120.69332,1654034120.69471,459.873719444275,8.05320858955383,467.943394889832,470.044178714752,0.3,473.562156667709,0.650243043899536,474.219472160339,3,right,0.64295482635498,474.212399711609,604.47764538765,607.23764538765,1654034583.32704,1654034583.32882,1654034591.39671,1654034591.39839,1654034593.4975,1654034597.01547,1654034597.01704,1654034597.67279,1654034597.66572,1654034727.93096,0
128,4,2,1,26,6,3,c3_HowFace,1,open mouth?,73,F_403.jpg,1654034120.69332,1654034120.69471,459.873719444275,8.05320858955383,467.943394889832,470.044178714752,0.3,474.529184808731,0.500186443328857,475.0362911129,1,left,0.488440990447998,475.02937125206,604.47764538765,607.23764538765,1654034583.32704,1654034583.32882,1654034591.39671,1654034591.39839,1654034593.4975,1654034597.9825,1654034597.98421,1654034598.48961,1654034598.48269,1654034727.93096,1
128,4,2,1,26,7,3,c3_HowFace,1,open mouth?,75,F_086.jpg,1654034120.69332,1654034120.69471,459.873719444275,8.05320858955383,467.943394889832,470.044178714752,0.3,475.346155872345,0.600224018096924,475.952876081467,1,left,0.58995509147644,475.946379890442,604.47764538765,607.23764538765,1654034583.32704,1654034583.32882,1654034591.39671,1654034591.39839,1654034593.4975,1654034598.79947,1654034598.80109,1654034599.40619,1654034599.3997,1654034727.93096,1
128,4,2,1,26,8,3,c3_HowFace,2,open mouth?,79,F_648.jpg,1654034120.69332,1654034120.69471,459.873719444275,8.05320858955383,467.943394889832,470.044178714752,0.3,476.263164987564,0.633569240570068,476.898107042313,3,right,0.611153841018677,476.896734228134,604.47764538765,607.23764538765,1654034583.32704,1654034583.32882,1654034591.39671,1654034591.39839,1654034593.4975,1654034599.71648,1654034599.71822,1654034600.35142,1654034600.35005,1654034727.93096,0
128,4,2,1,27,1,4,c4_HowHand,1,pressing button?,88,H_019.jpg,1654034120.69332,1654034120.69471,476.980099191666,9.01683592796326,486.01680182457,488.100913038254,2.08411121368408,488.25096868515,0.833643674850464,489.085720052719,1,left,0.809676170349121,489.084612360001,604.47764538765,607.23764538765,1654034600.43342,1654034600.4402,1654034609.47012,1654034609.47208,1654034611.55423,1654034611.70429,1654034611.70692,1654034612.53904,1654034612.53793,1654034727.93096,1
128,4,2,1,27,2,4,c4_HowHand,2,pressing button?,87,H_024.jpg,1654034120.69332,1654034120.69471,476.980099191666,9.01683592796326,486.01680182457,488.100913038254,0.3,489.401397695541,0.650242328643799,490.0531711483,3,right,0.639608860015869,490.051640024185,604.47764538765,607.23764538765,1654034600.43342,1654034600.4402,1654034609.47012,1654034609.47208,1654034611.55423,1654034612.85472,1654034612.85666,1654034613.50649,1654034613.50496,1654034727.93096,0
128,4,2,1,27,3,4,c4_HowHand,2,pressing button?,85,H_130.jpg,1654034120.69332,1654034120.69471,476.980099191666,9.01683592796326,486.01680182457,488.100913038254,0.3,490.368425359726,0.800297260284424,491.169614067078,3,right,0.790921211242676,491.16872262001,604.47764538765,607.23764538765,1654034600.43342,1654034600.4402,1654034609.47012,1654034609.47208,1654034611.55423,1654034613.82174,1654034613.82337,1654034614.62293,1654034614.62204,1654034727.93096,0
128,4,2,1,27,4,4,c4_HowHand,1,pressing button?,83,H_502.jpg,1654034120.69332,1654034120.69471,476.980099191666,9.01683592796326,486.01680182457,488.100913038254,0.3,491.485507478714,0.53353214263916,492.020060052872,1,left,0.518106937408447,492.019039621353,604.47764538765,607.23764538765,1654034600.43342,1654034600.4402,1654034609.47012,1654034609.47208,1654034611.55423,1654034614.93883,1654034614.94049,1654034615.47338,1654034615.47236,1654034727.93096,1
128,4,2,1,27,5,4,c4_HowHand,2,pressing button?,81,H_261.jpg,1654034120.69332,1654034120.69471,476.980099191666,9.01683592796326,486.01680182457,488.100913038254,0.3,492.335824480057,0.550205945968628,492.887004127502,3,right,0.539905071258545,492.886030426025,604.47764538765,607.23764538765,1654034600.43342,1654034600.4402,1654034609.47012,1654034609.47208,1654034611.55423,1654034615.78914,1654034615.79053,1654034616.34032,1654034616.33935,1654034727.93096,0
128,4,2,1,27,6,4,c4_HowHand,1,pressing button?,86,H_332.jpg,1654034120.69332,1654034120.69471,476.980099191666,9.01683592796326,486.01680182457,488.100913038254,0.3,493.202814807892,0.566878080368042,493.770628204346,1,left,0.557754039764404,493.76969288826,604.47764538765,607.23764538765,1654034600.43342,1654034600.4402,1654034609.47012,1654034609.47208,1654034611.55423,1654034616.65613,1654034616.65726,1654034617.22395,1654034617.22301,1654034727.93096,1
128,4,2,1,27,7,4,c4_HowHand,1,pressing button?,82,H_126.jpg,1654034120.69332,1654034120.69471,476.980099191666,9.01683592796326,486.01680182457,488.100913038254,0.3,494.086477985382,0.68358850479126,494.771516075134,1,left,0.672807931900024,494.770066490173,604.47764538765,607.23764538765,1654034600.43342,1654034600.4402,1654034609.47012,1654034609.47208,1654034611.55423,1654034617.5398,1654034617.54132,1654034618.22483,1654034618.22338,1654034727.93096,1
128,4,2,1,27,8,4,c4_HowHand,1,pressing button?,84,H_483.jpg,1654034120.69332,1654034120.69471,476.980099191666,9.01683592796326,486.01680182457,488.100913038254,0.3,495.08685087204,0.683587551116943,495.772143115997,1,left,0.663182973861694,495.770438423157,604.47764538765,607.23764538765,1654034600.43342,1654034600.4402,1654034609.47012,1654034609.47208,1654034611.55423,1654034618.54017,1654034618.54194,1654034619.22546,1654034619.22376,1654034727.93096,1
