onset	duration	trial_type	pmod_accuracy
6.18981003761292	0.2	cue_valid	1
28.7148764133453	0.2	cue_valid	1
37.0513181686401	0.2	cue_valid	1
41.519651889801	0.2	cue_valid	1
44.7875370979309	0.2	cue_valid	1
58.2925741672516	0.2	cue_valid	1
71.7642650604248	0.2	cue_valid	1
90.9714267253876	0.2	cue_valid	1
99.8080554008484	0.2	cue_valid	1
110.045207023621	0.2	cue_valid	1
114.21342754364	0.2	cue_valid	1
159.463635444641	0.2	cue_valid	1
174.402540445328	0.2	cue_valid	1
178.570761442184	0.2	cue_valid	1
191.475573778152	0.2	cue_valid	1
194.44334602356	0.2	cue_valid	1
226.922125101089	0.2	cue_valid	1
234.891764879227	0.2	cue_valid	1
238.459760427475	0.2	cue_valid	1
251.698031187057	0.2	cue_valid	1
279.341674089432	0.2	cue_valid	1
286.811126470566	0.2	cue_valid	1
289.778899908066	0.2	cue_valid	1
301.116460800171	0.2	cue_valid	1
315.621870279312	0.2	cue_valid	1
331.82791352272	0.2	cue_valid	1
345.399641990662	0.2	cue_valid	1
361.972489595413	0.2	cue_valid	1
392.117063999176	0.2	cue_valid	1
419.427248001099	0.2	cue_valid	1
430.064548969269	0.2	cue_valid	1
442.169062852859	0.2	cue_valid	1
449.305057764053	0.2	cue_valid	1
454.373613834381	0.2	cue_valid	1
461.843066930771	0.2	cue_valid	1
473.980926513672	0.2	cue_valid	1
481.450378894806	0.2	cue_valid	1
488.919830560684	0.2	cue_valid	1
494.88872385025	0.2	cue_valid	1
499.957279920578	0.2	cue_valid	1
511.094766378403	0.2	cue_valid	1
521.832103967667	0.2	cue_valid	1
543.973694324493	0.2	cue_valid	1
552.610248327255	0.2	cue_valid	1
563.147511005402	0.2	cue_valid	1
566.815546035767	0.2	cue_valid	1
578.853368520737	0.2	cue_valid	1
599.427707433701	0.2	cue_valid	1
9.70778822898865	0.2	cue_invalid	1
12.8089444637299	0.2	cue_invalid	1
17.0938766002655	0.2	cue_invalid	1
24.5800015926361	0.2	cue_invalid	1
31.7826874256134	0.2	cue_invalid	1
51.156578540802	0.2	cue_invalid	1
54.4244649410248	0.2	cue_invalid	1
61.3603839874268	0.2	cue_invalid	1
64.3281574249268	0.2	cue_invalid	1
67.5960438251495	0.2	cue_invalid	1
78.133305311203	0.2	cue_invalid	1
83.5019748210907	0.2	cue_invalid	1
95.8399095535278	0.2	cue_invalid	1
104.576500415802	0.2	cue_invalid	1
121.682879686356	0.2	cue_invalid	1
129.152332782745	0.2	cue_invalid	1
136.521747350693	0.2	cue_invalid	1
141.290191411972	0.2	cue_invalid	1
148.759643554688	0.2	cue_invalid	1
152.127566099167	0.2	cue_invalid	1
155.195377826691	0.2	cue_invalid	1
166.933088541031	0.2	cue_invalid	1
182.538907289505	0.2	cue_invalid	1
185.706755876541	0.2	cue_invalid	1
198.711605548859	0.2	cue_invalid	1
201.779416799545	0.2	cue_invalid	1
209.248868465424	0.2	cue_invalid	1
213.317051172256	0.2	cue_invalid	1
217.585310697556	0.2	cue_invalid	1
220.85319685936	0.2	cue_invalid	1
244.228579521179	0.2	cue_invalid	1
259.167484283447	0.2	cue_invalid	1
262.535406589508	0.2	cue_invalid	1
268.904449224472	0.2	cue_invalid	1
275.573601961136	0.2	cue_invalid	1
293.64700961113	0.2	cue_invalid	1
308.585913658142	0.2	cue_invalid	1
312.554059505463	0.2	cue_invalid	1
323.091322183609	0.2	cue_invalid	1
328.259916543961	0.2	cue_invalid	1
334.795687913895	0.2	cue_invalid	1
337.963535547256	0.2	cue_invalid	1
341.531532287598	0.2	cue_invalid	1
350.768310546875	0.2	cue_invalid	1
354.036194801331	0.2	cue_invalid	1
358.604566574097	0.2	cue_invalid	1
369.441941261292	0.2	cue_invalid	1
373.610162496567	0.2	cue_invalid	1
379.579055547714	0.2	cue_invalid	1
387.548693418503	0.2	cue_invalid	1
399.586517095566	0.2	cue_invalid	1
405.255296945572	0.2	cue_invalid	1
408.423145294189	0.2	cue_invalid	1
411.49095582962	0.2	cue_invalid	1
415.15899014473	0.2	cue_invalid	1
423.395395278931	0.2	cue_invalid	1
433.232397079468	0.2	cue_invalid	1
436.700356245041	0.2	cue_invalid	1
445.737060785294	0.2	cue_invalid	1
469.312518358231	0.2	cue_invalid	1
506.826508283615	0.2	cue_invalid	1
514.362652540207	0.2	cue_invalid	1
526.300437927246	0.2	cue_invalid	1
532.669478654861	0.2	cue_invalid	1
536.437551498413	0.2	cue_invalid	1
540.905884027481	0.2	cue_invalid	1
548.742139577866	0.2	cue_invalid	1
560.079700469971	0.2	cue_invalid	1
572.184215068817	0.2	cue_invalid	1
583.521776199341	0.2	cue_invalid	1
591.491413831711	0.2	cue_invalid	1
594.95937538147	0.2	cue_invalid	1
6.4065580368042	0.448498964309692	target_response	1
9.90786218643188	0.40723180770874	target_response	1
13.0090200901031	0.433443069458008	target_response	1
17.2939505577087	0.444901466369629	target_response	1
24.7800753116608	0.460226774215698	target_response	1
28.9149515628815	0.49796462059021	target_response	1
31.9827618598938	0.462749242782593	target_response	1
37.2513933181763	0.397881746292114	target_response	1
41.7197270393372	0.378870964050293	target_response	1
44.9876112937927	0.440127849578857	target_response	1
51.356653213501	0.423893928527832	target_response	1
54.6245386600494	0.489572525024414	target_response	1
58.492648601532	0.400478363037109	target_response	1
61.5604581832886	0.428582906723022	target_response	1
64.5282328128815	0.381198167800903	target_response	1
67.7961173057556	0.402876853942871	target_response	1
71.964339017868	0.415385961532593	target_response	1
78.3333809375763	0.405072212219238	target_response	1
83.7020494937897	0.416550636291504	target_response	1
91.1715021133423	0.397914886474609	target_response	1
96.0399839878082	0.418673038482666	target_response	1
100.008130788803	0.401508331298828	target_response	1
104.776575803757	0.37724232673645	target_response	1
110.245282173157	0.404295921325684	target_response	1
114.413501977921	0.42497706413269	target_response	1
121.882954359055	0.384655714035034	target_response	1
129.352406740189	0.371151447296143	target_response	1
136.721821784973	0.391919374465942	target_response	1
141.490266799927	0.365308284759521	target_response	1
148.959718704224	0.411349296569824	target_response	1
152.32764172554	0.450318336486816	target_response	1
155.395451545715	0.360109567642212	target_response	1
159.663710355759	0.394869804382324	target_response	1
167.133162736893	0.422977447509766	target_response	1
174.60261464119	0.409130334854126	target_response	1
178.770835161209	0.340668916702271	target_response	1
182.738982439041	0.359413623809814	target_response	1
185.90683054924	0.350158452987671	target_response	1
191.675648927689	0.262872219085693	target_response	1
194.643421888351	0.315073251724243	target_response	1
198.911680459976	0.353846549987793	target_response	1
201.979490756989	0.360631227493286	target_response	1
209.448942422867	0.348739624023438	target_response	1
213.517126083374	0.364500999450684	target_response	1
217.785385847092	0.383182287216187	target_response	1
221.053270816803	0.374578237533569	target_response	1
227.1222012043	0.321278810501099	target_response	1
235.091839313507	0.30797266960144	target_response	1
238.659837007523	0.27941107749939	target_response	1
244.428654193878	0.354870796203613	target_response	1
251.898106813431	0.311449289321899	target_response	1
259.367558479309	0.378379583358765	target_response	1
262.735481262207	0.381359815597534	target_response	1
269.104523420334	0.382193565368652	target_response	1
275.773676872253	0.348122119903564	target_response	1
279.541748762131	0.33972430229187	target_response	1
287.011201620102	0.268950462341309	target_response	1
289.978974580765	0.319161415100098	target_response	1
293.847083568573	0.41243052482605	target_response	1
301.31653547287	0.330998659133911	target_response	1
308.78598856926	0.379093408584595	target_response	1
312.754134893417	0.391139268875122	target_response	1
315.821945667267	0.340286493301392	target_response	1
323.291398048401	0.328860998153687	target_response	1
328.459991455078	0.351165533065796	target_response	1
332.027988195419	0.412642955780029	target_response	1
334.995762586594	0.46381139755249	target_response	1
338.163610458374	0.427029609680176	target_response	1
341.731607198715	0.417282819747925	target_response	1
345.599716424942	0.381829738616943	target_response	1
350.968385696411	0.360515356063843	target_response	1
354.236270904541	0.380391120910645	target_response	1
358.804641246796	0.386387825012207	target_response	1
362.172563314438	0.367223739624023	target_response	1
369.642014980316	0.331112146377563	target_response	1
373.810237884521	0.376856088638306	target_response	1
379.779129743576	0.407397270202637	target_response	1
387.748769044876	0.404813051223755	target_response	1
392.317138671875	0.382226467132568	target_response	1
399.78659081459	0.40500020980835	target_response	1
405.455371618271	0.422802448272705	target_response	1
408.623219490051	0.49628758430481	target_response	1
411.691030740738	0.470402240753174	target_response	1
415.359064340591	0.370915651321411	target_response	1
419.627323865891	0.352481126785278	target_response	1
423.595469474792	0.35618257522583	target_response	1
430.264623165131	0.356059789657593	target_response	1
433.432471752167	0.386120319366455	target_response	1
436.900432109833	0.386347055435181	target_response	1
442.36913728714	0.3364577293396	target_response	1
445.9371342659	0.386845827102661	target_response	1
449.505131244659	0.401063919067383	target_response	1
454.573687076569	0.356319904327393	target_response	1
462.043140649796	0.373547315597534	target_response	1
469.512593746185	0.404882431030273	target_response	1
474.181000471115	0.406861543655396	target_response	1
481.650451898575	0.359973192214966	target_response	1
489.119906187057	0.317921876907349	target_response	1
495.088798046112	0.315768003463745	target_response	1
500.157354831696	0.34944224357605	target_response	1
507.026582956314	0.359549999237061	target_response	1
511.294842004776	0.311118125915527	target_response	1
514.562726974487	0.461986064910889	target_response	1
522.03217959404	0.281416416168213	target_response	1
526.500511169434	0.363479852676392	target_response	1
532.869554042816	0.381237030029297	target_response	1
536.637625455856	0.347344636917114	target_response	1
541.105958223343	0.370599746704102	target_response	1
544.173769235611	0.340038776397705	target_response	1
548.942214488983	0.636080503463745	target_response	1
552.810322999954	0.339159965515137	target_response	1
560.279775619507	0.389344453811646	target_response	1
563.347586393356	0.439228773117065	target_response	1
567.015619754791	0.323972225189209	target_response	1
572.384289503098	0.391683578491211	target_response	1
579.053443670273	0.414232492446899	target_response	1
583.721851110458	0.377114057540894	target_response	1
591.691489219666	0.366999864578247	target_response	1
595.159449338913	0.393078804016113	target_response	1
599.627782583237	0.387896537780762	target_response	1
