src_subject_id,session_id,run_id,param_counterbalance_ver,param_block_num,param_trial_num,param_cond_type_num,param_cond_type_string,param_normative_response,param_ques_type_string,param_image_num,param_image_filename,param_trigger_onset,param_start_biopac,event01_fixation,event01_fixation_dur,event01_blockquestion_onset,event01_block_isi_blacksreen,event01_blockquestion_dur,event02_image_onset,event02_image_dur,event03_response_onset,event03_response_key,event03_response_keyname,event03_RT,event04_shortquestion_onset,param_end_instruct_onset,param_experiment_duration,RAW_e1_fixation,RAW_e1_fixation_biopac,RAW_e1_blockquestion_onset,RAW_e1_blockquestion_onset_biopac,RAW_e1_block_isi_blacksreen,RAW_e2_image_onset,RAW_e2_image_onset_biopac,RAW_e3_response_onset,RAW_e4_shortquestion_onset,RAW_param_end_instruct_onset,accuracy
100,4,2,3,1,1,4,c4_HowHand,1,reaching?,107,H_007.jpg,1643042412.38228,1643042412.38466,0.0182905101776121,0.0488004684448242,0.0849826240539548,2.11907433509827,2.03409171104431,2.26913093566895,0.0333447456359863,2.31032299041748,1,left,0.000551939010620117,2.30247568130493,604.477040519714,607.237040519714,1643042415.16057,1643042415.17062,1643042415.22726,1643042415.22985,1643042417.26135,1643042417.41141,1643042417.41378,1643042417.4526,1643042417.44475,1643043019.61932,1
100,4,2,3,1,2,4,c4_HowHand,2,reaching?,108,H_532.jpg,1643042412.38228,1643042412.38466,0.0182905101776121,0.0488004684448242,0.0849826240539548,2.11907433509827,0.3,2.6192610168457,0.0166726112365723,2.64259480476379,1,left,0.00055694580078125,2.63593362808228,604.477040519714,607.237040519714,1643042415.16057,1643042415.17062,1643042415.22726,1643042415.22985,1643042417.26135,1643042417.76154,1643042417.76418,1643042417.78487,1643042417.77821,1643043019.61932,0
100,4,2,3,1,3,4,c4_HowHand,1,reaching?,109,H_474.jpg,1643042412.38228,1643042412.38466,0.0182905101776121,0.0488004684448242,0.0849826240539548,2.11907433509827,0.3,2.95271872520447,0.0166728496551514,2.97555684089661,1,left,0.000893115997314453,2.96939157485962,604.477040519714,607.237040519714,1643042415.16057,1643042415.17062,1643042415.22726,1643042415.22985,1643042417.26135,1643042418.09499,1643042418.10116,1643042418.11783,1643042418.11167,1643043019.61932,1
100,4,2,3,1,4,4,c4_HowHand,2,reaching?,105,H_438.jpg,1643042412.38228,1643042412.38466,0.0182905101776121,0.0488004684448242,0.0849826240539548,2.11907433509827,0.3,3.28617643356323,1.71730709075928,NaN,0,NA,0,5.00348352432251,604.477040519714,607.237040519714,1643042415.16057,1643042415.17062,1643042415.22726,1643042415.22985,1643042417.26135,1643042418.42845,1643042418.43117,NaN,1643042420.14576,1643043019.61932,0
100,4,2,3,1,5,4,c4_HowHand,1,reaching?,110,H_364.jpg,1643042412.38228,1643042412.38466,0.0182905101776121,0.0488004684448242,0.0849826240539548,2.11907433509827,0.3,5.32026838302612,1.28381204605103,6.61145495414734,1,left,1.25813102722168,6.60408042907715,604.477040519714,607.237040519714,1643042415.16057,1643042415.17062,1643042415.22726,1643042415.22985,1643042417.26135,1643042420.46254,1643042420.46869,1643042421.75373,1643042421.74636,1643043019.61932,1
100,4,2,3,1,6,4,c4_HowHand,1,reaching?,106,H_006.jpg,1643042412.38228,1643042412.38466,0.0182905101776121,0.0488004684448242,0.0849826240539548,2.11907433509827,0.3,6.92086528778076,0.800297975540161,7.72530387878418,1,left,0.781655073165894,7.72116326332092,604.477040519714,607.237040519714,1643042415.16057,1643042415.17062,1643042415.22726,1643042415.22985,1643042417.26135,1643042422.06314,1643042422.06818,1643042422.86758,1643042422.86344,1643043019.61932,1
100,4,2,3,1,7,4,c4_HowHand,1,reaching?,111,H_003.jpg,1643042412.38228,1643042412.38466,0.0182905101776121,0.0488004684448242,0.0849826240539548,2.11907433509827,0.3,8.03794812202454,0.833643913269043,8.87595986366272,1,left,0.812896013259888,8.87159203529358,604.477040519714,607.237040519714,1643042415.16057,1643042415.17062,1643042415.22726,1643042415.22985,1643042417.26135,1643042423.18022,1643042423.18427,1643042424.01823,1643042424.01387,1643043019.61932,1
100,4,2,3,1,8,4,c4_HowHand,2,reaching?,112,H_132.jpg,1643042412.38228,1643042412.38466,0.0182905101776121,0.0488004684448242,0.0849826240539548,2.11907433509827,0.3,9.18837737083435,0.883662462234497,10.0752649211884,3,right,0.859325885772705,10.0720398330688,604.477040519714,607.237040519714,1643042415.16057,1643042415.17062,1643042415.22726,1643042415.22985,1643042417.26135,1643042424.33065,1643042424.33416,1643042425.21754,1643042425.21431,1643043019.61932,0
100,4,2,3,2,1,2,c2_WhyHand,1,healthy?,21,H_627.jpg,1643042412.38228,1643042412.38466,10.2887871170044,7.24247670173645,17.5414922142029,19.6422753238678,2.10078310966492,19.7923326396942,0.833643674850464,20.6281678581238,3,right,0.811980962753296,20.6259763145447,604.477040519714,607.237040519714,1643042425.43106,1643042425.43449,1643042432.68377,1643042432.68628,1643042434.78455,1643042434.93461,1643042434.93657,1643042435.77044,1643042435.76825,1643043019.61932,0
100,4,2,3,2,2,2,c2_WhyHand,1,healthy?,18,H_438.jpg,1643042412.38228,1643042412.38466,10.2887871170044,7.24247670173645,17.5414922142029,19.6422753238678,0.3,20.9427606964111,0.683589220046997,21.6287848854065,1,left,0.659288167953491,21.6263499164581,604.477040519714,607.237040519714,1643042425.43106,1643042425.43449,1643042432.68377,1643042432.68628,1643042434.78455,1643042436.08504,1643042436.0874,1643042436.77106,1643042436.76863,1643043019.61932,1
100,4,2,3,2,3,2,c2_WhyHand,1,healthy?,23,H_364.jpg,1643042412.38228,1643042412.38466,10.2887871170044,7.24247670173645,17.5414922142029,19.6422753238678,0.3,21.9431335830688,0.733606815338135,22.6788978481293,3,right,0.717398881912231,22.676740398407,604.477040519714,607.237040519714,1643042425.43106,1643042425.43449,1643042432.68377,1643042432.68628,1643042434.78455,1643042437.08541,1643042437.0874,1643042437.82117,1643042437.81902,1643043019.61932,0
100,4,2,3,2,4,2,c2_WhyHand,2,healthy?,22,H_130.jpg,1643042412.38228,1643042412.38466,10.2887871170044,7.24247670173645,17.5414922142029,19.6422753238678,0.3,22.9935257339478,0.866990089416504,23.862526884079,1,left,0.845966815948486,23.8605158233643,604.477040519714,607.237040519714,1643042425.43106,1643042425.43449,1643042432.68377,1643042432.68628,1643042434.78455,1643042438.1358,1643042438.138,1643042439.0048,1643042439.00279,1643043019.61932,0
100,4,2,3,2,5,2,c2_WhyHand,1,healthy?,17,H_362.jpg,1643042412.38228,1643042412.38466,10.2887871170044,7.24247670173645,17.5414922142029,19.6422753238678,0.3,24.1773009204864,1.13375544548035,25.325620880127,1,left,1.12251210212708,25.3110563659668,604.477040519714,607.237040519714,1643042425.43106,1643042425.43449,1643042432.68377,1643042432.68628,1643042434.78455,1643042439.31958,1643042439.32179,1643042440.4679,1643042440.45333,1643043019.61932,1
100,4,2,3,2,6,2,c2_WhyHand,2,healthy?,20,H_007.jpg,1643042412.38228,1643042412.38466,10.2887871170044,7.24247670173645,17.5414922142029,19.6422753238678,0.3,25.6278419399261,0.800297260284424,26.430192937851,3,right,0.779402017593384,26.4281392002106,604.477040519714,607.237040519714,1643042425.43106,1643042425.43449,1643042432.68377,1643042432.68628,1643042434.78455,1643042440.77012,1643042440.77226,1643042441.57247,1643042441.57041,1643043019.61932,0
100,4,2,3,2,7,2,c2_WhyHand,1,healthy?,19,H_167.jpg,1643042412.38228,1643042412.38466,10.2887871170044,7.24247670173645,17.5414922142029,19.6422753238678,0.3,26.7449245357513,0.616896867752075,27.375274887085,1,left,0.605221033096313,27.3618214035034,604.477040519714,607.237040519714,1643042425.43106,1643042425.43449,1643042432.68377,1643042432.68628,1643042434.78455,1643042441.8872,1643042441.88902,1643042442.51755,1643042442.5041,1643043019.61932,1
100,4,2,3,2,8,2,c2_WhyHand,2,healthy?,24,H_019.jpg,1643042412.38228,1643042412.38466,10.2887871170044,7.24247670173645,17.5414922142029,19.6422753238678,0.3,27.6786067390442,0.950354099273682,28.6309959793091,3,right,0.933785915374756,28.6289608383179,604.477040519714,607.237040519714,1643042425.43106,1643042425.43449,1643042432.68377,1643042432.68628,1643042434.78455,1643042442.82088,1643042442.8234,1643042443.77327,1643042443.77124,1643043019.61932,0
100,4,2,3,3,1,1,c1_WhyFace,1,admiring?,4,F_779.jpg,1643042412.38228,1643042412.38466,28.7289974594116,7.91029739379883,36.648618927002,38.7494017982483,2.10078287124634,38.8994574451447,0.51685905456543,39.4184780025482,1,left,0.489624977111816,39.4163164997101,604.477040519714,607.237040519714,1643042443.87127,1643042443.88511,1643042451.79089,1643042451.80126,1643042453.89168,1643042454.04173,1643042454.05105,1643042454.56075,1643042454.55859,1643043019.61932,1
100,4,2,3,3,2,1,c1_WhyFace,1,admiring?,1,F_593.jpg,1643042412.38228,1643042412.38466,28.7289974594116,7.91029739379883,36.648618927002,38.7494017982483,0.3,39.7331011199951,0.483514547348022,40.2258989715576,1,left,0.474015951156616,40.2166156673431,604.477040519714,607.237040519714,1643042443.87127,1643042443.88511,1643042451.79089,1643042451.80126,1643042453.89168,1643042454.87538,1643042454.87749,1643042455.36817,1643042455.35889,1643043019.61932,1
100,4,2,3,3,3,1,c1_WhyFace,2,admiring?,3,F_110.jpg,1643042412.38228,1643042412.38466,28.7289974594116,7.91029739379883,36.648618927002,38.7494017982483,0.3,40.5333993339539,0.666916131973267,41.2029538059235,3,right,0.64091420173645,41.2003154659271,604.477040519714,607.237040519714,1643042443.87127,1643042443.88511,1643042451.79089,1643042451.80126,1643042453.89168,1643042455.67567,1643042455.67797,1643042456.34523,1643042456.34259,1643043019.61932,0
100,4,2,3,3,4,1,c1_WhyFace,1,admiring?,8,F_590.jpg,1643042412.38228,1643042412.38466,28.7289974594116,7.91029739379883,36.648618927002,38.7494017982483,0.3,41.5171008014679,0.483513832092285,42.0087499523163,1,left,0.472935914993286,42.0006146335602,604.477040519714,607.237040519714,1643042443.87127,1643042443.88511,1643042451.79089,1643042451.80126,1643042453.89168,1643042456.65938,1643042456.66159,1643042457.15103,1643042457.14289,1643043019.61932,1
100,4,2,3,3,5,1,c1_WhyFace,2,admiring?,6,F_692.jpg,1643042412.38228,1643042412.38466,28.7289974594116,7.91029739379883,36.648618927002,38.7494017982483,0.3,42.3173985385895,0.683587551116943,43.0088679695129,1,left,0.667864084243774,43.0009860897064,604.477040519714,607.237040519714,1643042443.87127,1643042443.88511,1643042451.79089,1643042451.80126,1643042453.89168,1643042457.45967,1643042457.46172,1643042458.15114,1643042458.14326,1643043019.61932,0
100,4,2,3,3,6,1,c1_WhyFace,1,admiring?,5,F_759.jpg,1643042412.38228,1643042412.38466,28.7289974594116,7.91029739379883,36.648618927002,38.7494017982483,0.3,43.31777094841,0.500188112258911,43.8255779647827,1,left,0.482744932174683,43.8179590606689,604.477040519714,607.237040519714,1643042443.87127,1643042443.88511,1643042451.79089,1643042451.80126,1643042453.89168,1643042458.46005,1643042458.46251,1643042458.96785,1643042458.96023,1643043019.61932,1
100,4,2,3,3,7,1,c1_WhyFace,1,admiring?,7,F_648.jpg,1643042412.38228,1643042412.38466,28.7289974594116,7.91029739379883,36.648618927002,38.7494017982483,0.3,44.1347434425354,0.800298452377319,44.9421927833557,1,left,0.78493595123291,44.9350418949127,604.477040519714,607.237040519714,1643042443.87127,1643042443.88511,1643042451.79089,1643042451.80126,1643042453.89168,1643042459.27702,1643042459.27922,1643042460.08447,1643042460.07732,1643043019.61932,1
100,4,2,3,3,8,1,c1_WhyFace,2,admiring?,2,F_129.jpg,1643042412.38228,1643042412.38466,28.7289974594116,7.91029739379883,36.648618927002,38.7494017982483,0.3,45.2518267536163,0.833643913269043,46.0876679325104,3,right,0.809195041656494,46.0854706668854,604.477040519714,607.237040519714,1643042443.87127,1643042443.88511,1643042451.79089,1643042451.80126,1643042453.89168,1643042460.3941,1643042460.39613,1643042461.22994,1643042461.22775,1643043019.61932,0
100,4,2,3,4,1,3,c3_HowFace,1,smiling?,119,F_139.jpg,1643042412.38228,1643042412.38466,46.2021801376343,9.40106678009033,55.622360458374,57.7064709568024,2.08411049842834,57.8565263652802,0.500187158584595,58.3590559864044,1,left,0.47185492515564,58.3567135238647,604.477040519714,607.237040519714,1643042461.34446,1643042461.34733,1643042470.76464,1643042470.76794,1643042472.84875,1643042472.9988,1643042473.0177,1643042473.50133,1643042473.49899,1643043019.61932,1
100,4,2,3,4,2,3,c3_HowFace,2,smiling?,113,F_712.jpg,1643042412.38228,1643042412.38466,46.2021801376343,9.40106678009033,55.622360458374,57.7064709568024,0.3,58.6734988594055,0.800297737121582,59.4758009815216,3,right,0.789577007293701,59.4737965965271,604.477040519714,607.237040519714,1643042461.34446,1643042461.34733,1643042470.76464,1643042470.76794,1643042472.84875,1643042473.81577,1643042473.81771,1643042474.61808,1643042474.61607,1643043019.61932,0
100,4,2,3,4,3,3,c3_HowFace,1,smiling?,115,F_695.jpg,1643042412.38228,1643042412.38466,46.2021801376343,9.40106678009033,55.622360458374,57.7064709568024,0.3,59.7905814552307,0.51685905456543,60.3096280002594,1,left,0.505506038665771,60.3074405097961,604.477040519714,607.237040519714,1643042461.34446,1643042461.34733,1643042470.76464,1643042470.76794,1643042472.84875,1643042474.93286,1643042474.93489,1643042475.4519,1643042475.44972,1643043019.61932,1
100,4,2,3,4,4,3,c3_HowFace,2,smiling?,120,F_758.jpg,1643042412.38228,1643042412.38466,46.2021801376343,9.40106678009033,55.622360458374,57.7064709568024,0.3,60.6242256069183,0.766953229904175,61.3931598567963,3,right,0.75349497795105,61.3911788368225,604.477040519714,607.237040519714,1643042461.34446,1643042461.34733,1643042470.76464,1643042470.76794,1643042472.84875,1643042475.7665,1643042475.76896,1643042476.53543,1643042476.53345,1643043019.61932,0
100,4,2,3,4,5,3,c3_HowFace,1,smiling?,116,F_083.jpg,1643042412.38228,1643042412.38466,46.2021801376343,9.40106678009033,55.622360458374,57.7064709568024,0.3,61.7079634571075,0.53353214263916,62.243488779068,1,left,0.513921022415161,62.2414955997467,604.477040519714,607.237040519714,1643042461.34446,1643042461.34733,1643042470.76464,1643042470.76794,1643042472.84875,1643042476.85024,1643042476.85214,1643042477.38576,1643042477.38377,1643043019.61932,1
100,4,2,3,4,6,3,c3_HowFace,1,smiling?,118,F_759.jpg,1643042412.38228,1643042412.38466,46.2021801376343,9.40106678009033,55.622360458374,57.7064709568024,0.3,62.5582802200317,0.81697154045105,63.3777499103546,1,left,0.796746015548706,63.3752517604828,604.477040519714,607.237040519714,1643042461.34446,1643042461.34733,1643042470.76464,1643042470.76794,1643042472.84875,1643042477.70056,1643042477.70278,1643042478.52003,1643042478.51753,1643043019.61932,1
100,4,2,3,4,7,3,c3_HowFace,2,smiling?,114,F_412.jpg,1643042412.38228,1643042412.38466,46.2021801376343,9.40106678009033,55.622360458374,57.7064709568024,0.3,63.6920363807678,0.650241613388062,64.3445398712158,3,right,0.634277105331421,64.3422779941559,604.477040519714,607.237040519714,1643042461.34446,1643042461.34733,1643042470.76464,1643042470.76794,1643042472.84875,1643042478.83431,1643042478.83653,1643042479.48681,1643042479.48455,1643043019.61932,0
100,4,2,3,4,8,3,c3_HowFace,1,smiling?,117,F_593.jpg,1643042412.38228,1643042412.38466,46.2021801376343,9.40106678009033,55.622360458374,57.7064709568024,0.3,64.6590640449524,0.616896867752075,65.2783818149567,1,left,0.590861082077026,65.2759609127045,604.477040519714,607.237040519714,1643042461.34446,1643042461.34733,1643042470.76464,1643042470.76794,1643042472.84875,1643042479.80134,1643042479.80354,1643042480.42066,1643042480.41824,1643043019.61932,1
100,4,2,3,5,1,4,c4_HowHand,1,lifting?,56,H_136.jpg,1643042412.38228,1643042412.38466,65.3759972953796,7.757967710495,73.1455609703064,75.2463455104828,2.10078454017639,75.3964021110535,0.983699560165405,76.3822588825226,1,left,0.965667009353638,76.3801016712189,604.477040519714,607.237040519714,1643042480.51827,1643042480.5227,1643042488.28784,1643042488.29158,1643042490.38862,1643042490.53868,1643042490.54092,1643042491.52453,1643042491.52238,1643043019.61932,1
100,4,2,3,5,2,4,c4_HowHand,2,lifting?,51,H_038.jpg,1643042412.38228,1643042412.38466,65.3759972953796,7.757967710495,73.1455609703064,75.2463455104828,0.3,76.6968862915039,1.13375687599182,77.8421687984467,1,left,1.12436509132385,77.8306431674957,604.477040519714,607.237040519714,1643042480.51827,1643042480.5227,1643042488.28784,1643042488.29158,1643042490.38862,1643042491.83916,1643042491.84126,1643042492.98444,1643042492.97292,1643043019.61932,0
100,4,2,3,5,3,4,c4_HowHand,1,lifting?,52,H_189.jpg,1643042412.38228,1643042412.38466,65.3759972953796,7.757967710495,73.1455609703064,75.2463455104828,0.3,78.1474275493622,0.850317001342773,79.0089328193664,1,left,0.838069915771484,78.997744550705,604.477040519714,607.237040519714,1643042480.51827,1643042480.5227,1643042488.28784,1643042488.29158,1643042490.38862,1643042493.2897,1643042493.29202,1643042494.15121,1643042494.14002,1643043019.61932,1
100,4,2,3,5,4,4,c4_HowHand,2,lifting?,53,H_077.jpg,1643042412.38228,1643042412.38466,65.3759972953796,7.757967710495,73.1455609703064,75.2463455104828,0.3,79.3145286941528,0.883663892745972,80.2003519439697,3,right,0.862715005874634,80.1981925868988,604.477040519714,607.237040519714,1643042480.51827,1643042480.5227,1643042488.28784,1643042488.29158,1643042490.38862,1643042494.4568,1643042494.459,1643042495.34263,1643042495.34047,1643043019.61932,0
100,4,2,3,5,5,4,c4_HowHand,1,lifting?,50,H_443.jpg,1643042412.38228,1643042412.38466,65.3759972953796,7.757967710495,73.1455609703064,75.2463455104828,0.3,80.5149760150909,0.716934442520142,81.2424218559265,1,left,0.705380916595459,81.2319104576111,604.477040519714,607.237040519714,1643042480.51827,1643042480.5227,1643042488.28784,1643042488.29158,1643042490.38862,1643042495.65725,1643042495.65943,1643042496.3847,1643042496.37419,1643043019.61932,1
100,4,2,3,5,6,4,c4_HowHand,2,lifting?,55,H_012.jpg,1643042412.38228,1643042412.38466,65.3759972953796,7.757967710495,73.1455609703064,75.2463455104828,0.3,81.5486955547333,0.783626079559326,82.342371931076,3,right,0.765510082244873,82.3323216342926,604.477040519714,607.237040519714,1643042480.51827,1643042480.5227,1643042488.28784,1643042488.29158,1643042490.38862,1643042496.69097,1643042496.69318,1643042497.48465,1643042497.4746,1643043019.61932,0
100,4,2,3,5,7,4,c4_HowHand,1,lifting?,49,H_362.jpg,1643042412.38228,1643042412.38466,65.3759972953796,7.757967710495,73.1455609703064,75.2463455104828,0.3,82.6491050624847,0.650243043899536,83.3012699985504,1,left,0.624988079071045,83.2993481063843,604.477040519714,607.237040519714,1643042480.51827,1643042480.5227,1643042488.28784,1643042488.29158,1643042490.38862,1643042497.79138,1643042497.79363,1643042498.44355,1643042498.44162,1643043019.61932,1
100,4,2,3,5,8,4,c4_HowHand,1,lifting?,54,H_170.jpg,1643042412.38228,1643042412.38466,65.3759972953796,7.757967710495,73.1455609703064,75.2463455104828,0.3,83.6161336803436,0.683588266372681,84.3018679523468,1,left,0.659841060638428,84.2997219467163,604.477040519714,607.237040519714,1643042480.51827,1643042480.5227,1643042488.28784,1643042488.29158,1643042490.38862,1643042498.75841,1643042498.76084,1643042499.44414,1643042499.442,1643043019.61932,1
100,4,2,3,6,1,2,c2_WhyHand,1,helping?,38,H_077.jpg,1643042412.38228,1643042412.38466,84.3997583293915,11.2152955532074,95.6206095123291,97.7213933372498,2.10078382492065,97.8714492225647,0.66691517829895,98.5422658824921,1,left,0.652771949768066,98.5383644008636,604.477040519714,607.237040519714,1643042499.54203,1643042499.54417,1643042510.76288,1643042510.76775,1643042512.86367,1643042513.01372,1643042513.01764,1643042513.68454,1643042513.68064,1643043019.61932,1
100,4,2,3,6,2,2,c2_WhyHand,1,helping?,36,H_349.jpg,1643042412.38228,1643042412.38466,84.3997583293915,11.2152955532074,95.6206095123291,97.7213933372498,0.3,98.8551494979858,0.616895914077759,99.4756147766113,1,left,0.594625949859619,99.4720454120636,604.477040519714,607.237040519714,1643042499.54203,1643042499.54417,1643042510.76288,1643042510.76775,1643042512.86367,1643042513.99742,1643042514.00093,1643042514.61789,1643042514.61432,1643043019.61932,1
100,4,2,3,6,3,2,c2_WhyHand,1,helping?,37,H_474.jpg,1643042412.38228,1643042412.38466,84.3997583293915,11.2152955532074,95.6206095123291,97.7213933372498,0.3,99.7888302707672,0.833646059036255,100.625249853134,1,left,0.82184886932373,100.622476329803,604.477040519714,607.237040519714,1643042499.54203,1643042499.54417,1643042510.76288,1643042510.76775,1643042512.86367,1643042514.93111,1643042514.93444,1643042515.76752,1643042515.76475,1643043019.61932,1
100,4,2,3,6,4,2,c2_WhyHand,1,helping?,39,H_024.jpg,1643042412.38228,1643042412.38466,84.3997583293915,11.2152955532074,95.6206095123291,97.7213933372498,0.3,100.939259996414,0.833644390106201,101.775369873047,3,right,0.820462942123413,101.77290438652,604.477040519714,607.237040519714,1643042499.54203,1643042499.54417,1643042510.76288,1643042510.76775,1643042512.86367,1643042516.08154,1643042516.08416,1643042516.91764,1643042516.91518,1643043019.61932,0
100,4,2,3,6,5,2,c2_WhyHand,2,helping?,40,H_012.jpg,1643042412.38228,1643042412.38466,84.3997583293915,11.2152955532074,95.6206095123291,97.7213933372498,0.3,102.089689722061,0.60022234916687,102.692585935593,1,left,0.575927019119263,102.689912071228,604.477040519714,607.237040519714,1643042499.54203,1643042499.54417,1643042510.76288,1643042510.76775,1643042512.86367,1643042517.23196,1643042517.2342,1643042517.83486,1643042517.83219,1643043019.61932,0
100,4,2,3,6,6,2,c2_WhyHand,2,helping?,35,H_159.jpg,1643042412.38228,1643042412.38466,84.3997583293915,11.2152955532074,95.6206095123291,97.7213933372498,0.3,103.006696929932,1.21712231636047,104.225838890076,3,right,1.19828391075134,104.223819246292,604.477040519714,607.237040519714,1643042499.54203,1643042499.54417,1643042510.76288,1643042510.76775,1643042512.86367,1643042518.14897,1643042518.15152,1643042519.36811,1643042519.36609,1643043019.61932,0
100,4,2,3,6,7,2,c2_WhyHand,1,helping?,34,H_111.jpg,1643042412.38228,1643042412.38466,84.3997583293915,11.2152955532074,95.6206095123291,97.7213933372498,0.3,104.54060338974,0.9170081615448,105.459864845276,1,left,0.89113187789917,105.457611551285,604.477040519714,607.237040519714,1643042499.54203,1643042499.54417,1643042510.76288,1643042510.76775,1643042512.86367,1643042519.68288,1643042519.6847,1643042520.60214,1643042520.59989,1643043019.61932,1
100,4,2,3,6,8,2,c2_WhyHand,2,helping?,33,H_091.jpg,1643042412.38228,1643042412.38466,84.3997583293915,11.2152955532074,95.6206095123291,97.7213933372498,0.3,105.774396409988,0.883663177490234,106.660072793961,3,right,0.858109951019287,106.658059587479,604.477040519714,607.237040519714,1643042499.54203,1643042499.54417,1643042510.76288,1643042510.76775,1643042512.86367,1643042520.91667,1643042520.91917,1643042521.80235,1643042521.80033,1643043019.61932,0
100,4,2,3,7,1,1,c1_WhyFace,1,proud?,104,F_598.jpg,1643042412.38228,1643042412.38466,106.741423835754,6.74869704246521,113.49394153595,115.594725599289,2.10078406333923,115.744781484604,0.583551168441772,116.330234994888,1,left,0.557455062866211,116.328332653046,604.477040519714,607.237040519714,1643042521.8837,1643042521.90081,1643042528.63622,1643042528.65139,1643042530.737,1643042530.88706,1643042530.90098,1643042531.47251,1643042531.47061,1643043019.61932,1
100,4,2,3,7,2,1,c1_WhyFace,2,proud?,102,F_760.jpg,1643042412.38228,1643042412.38466,106.741423835754,6.74869704246521,113.49394153595,115.594725599289,0.3,116.645116319656,0.683589696884155,117.331446876526,3,right,0.668111085891724,117.328706016541,604.477040519714,607.237040519714,1643042521.8837,1643042521.90081,1643042528.63622,1643042528.65139,1643042530.737,1643042531.78739,1643042531.78942,1643042532.47372,1643042532.47098,1643043019.61932,0
100,4,2,3,7,3,1,c1_WhyFace,1,proud?,97,F_582.jpg,1643042412.38228,1643042412.38466,106.741423835754,6.74869704246521,113.49394153595,115.594725599289,0.3,117.645490875244,0.566877603530884,118.21448182106,1,left,0.54473090171814,118.212368478775,604.477040519714,607.237040519714,1643042521.8837,1643042521.90081,1643042528.63622,1643042528.65139,1643042530.737,1643042532.78777,1643042532.78969,1643042533.35676,1643042533.35464,1643043019.61932,1
100,4,2,3,7,4,1,c1_WhyFace,2,proud?,98,F_412.jpg,1643042412.38228,1643042412.38466,106.741423835754,6.74869704246521,113.49394153595,115.594725599289,0.3,118.529153337479,0.733606576919556,119.265252819061,3,right,0.716238021850586,119.262759914398,604.477040519714,607.237040519714,1643042521.8837,1643042521.90081,1643042528.63622,1643042528.65139,1643042530.737,1643042533.67143,1643042533.67365,1643042534.40753,1643042534.40504,1643043019.61932,0
100,4,2,3,7,5,1,c1_WhyFace,1,proud?,101,F_083.jpg,1643042412.38228,1643042412.38466,106.741423835754,6.74869704246521,113.49394153595,115.594725599289,0.3,119.579544296265,0.550205230712891,120.132210006714,1,left,0.530813932418823,120.129749526978,604.477040519714,607.237040519714,1643042521.8837,1643042521.90081,1643042528.63622,1643042528.65139,1643042530.737,1643042534.72182,1643042534.72436,1643042535.27449,1643042535.27202,1643043019.61932,1
100,4,2,3,7,6,1,c1_WhyFace,2,proud?,100,F_776.jpg,1643042412.38228,1643042412.38466,106.741423835754,6.74869704246521,113.49394153595,115.594725599289,0.3,120.446535100937,0.850316762924194,121.308795919418,1,left,0.835249900817871,121.296851863861,604.477040519714,607.237040519714,1643042521.8837,1643042521.90081,1643042528.63622,1643042528.65139,1643042530.737,1643042535.58881,1643042535.59098,1643042536.45107,1643042536.43913,1643043019.61932,0
100,4,2,3,7,7,1,c1_WhyFace,1,proud?,103,F_618.jpg,1643042412.38228,1643042412.38466,106.741423835754,6.74869704246521,113.49394153595,115.594725599289,0.3,121.613636484146,0.650241613388062,122.266018857956,1,left,0.626919031143188,122.263878097534,604.477040519714,607.237040519714,1643042521.8837,1643042521.90081,1643042528.63622,1643042528.65139,1643042530.737,1643042536.75591,1643042536.75854,1643042537.40829,1643042537.40615,1643043019.61932,1
100,4,2,3,7,8,1,c1_WhyFace,1,proud?,99,F_695.jpg,1643042412.38228,1643042412.38466,106.741423835754,6.74869704246521,113.49394153595,115.594725599289,0.3,122.580663909912,0.783625364303589,123.367193927765,1,left,0.759467840194702,123.364289274216,604.477040519714,607.237040519714,1643042521.8837,1643042521.90081,1643042528.63622,1643042528.65139,1643042530.737,1643042537.72294,1643042537.72503,1643042538.50947,1643042538.50656,1643043019.61932,1
100,4,2,3,8,1,3,c3_HowFace,1,looking to side?,72,F_590.jpg,1643042412.38228,1643042412.38466,123.447654714584,7.57246208190918,131.033816328049,133.134600152969,2.10078382492065,133.284655799866,0.800298452377319,134.091847887039,1,left,0.787762880325317,134.084954252243,604.477040519714,607.237040519714,1643042538.58993,1643042538.60095,1643042546.17609,1643042546.18448,1643042548.27688,1643042548.42693,1643042548.42908,1643042549.23412,1643042549.22723,1643043019.61932,1
100,4,2,3,8,2,3,c3_HowFace,1,looking to side?,71,F_433.jpg,1643042412.38228,1643042412.38466,123.447654714584,7.57246208190918,131.033816328049,133.134600152969,0.3,134.401738872528,0.650243282318115,135.058479776382,1,left,0.637449979782104,135.051982154846,604.477040519714,607.237040519714,1643042538.58993,1643042538.60095,1643042546.17609,1643042546.18448,1643042548.27688,1643042549.54401,1643042549.54609,1643042550.20075,1643042550.19426,1643043019.61932,1
100,4,2,3,8,3,3,c3_HowFace,1,looking to side?,67,F_716.jpg,1643042412.38228,1643042412.38466,123.447654714584,7.57246208190918,131.033816328049,133.134600152969,0.3,135.368766298294,0.516859292984009,135.892236938477,1,left,0.505186080932617,135.885625591278,604.477040519714,607.237040519714,1643042538.58993,1643042538.60095,1643042546.17609,1643042546.18448,1643042548.27688,1643042550.51104,1643042550.51317,1643042551.03451,1643042551.0279,1643043019.61932,1
100,4,2,3,8,4,3,c3_HowFace,2,looking to side?,70,F_779.jpg,1643042412.38228,1643042412.38466,123.447654714584,7.57246208190918,131.033816328049,133.134600152969,0.3,136.202409973145,0.60022497177124,136.809428920746,3,right,0.57986307144165,136.802634944916,604.477040519714,607.237040519714,1643042538.58993,1643042538.60095,1643042546.17609,1643042546.18448,1643042548.27688,1643042551.34469,1643042551.34686,1643042551.9517,1643042551.94491,1643043019.61932,0
100,4,2,3,8,5,3,c3_HowFace,1,looking to side?,68,F_760.jpg,1643042412.38228,1643042412.38466,123.447654714584,7.57246208190918,131.033816328049,133.134600152969,0.3,137.119418611526,0.800298452377319,137.922197809219,1,left,0.77768087387085,137.919717063904,604.477040519714,607.237040519714,1643042538.58993,1643042538.60095,1643042546.17609,1643042546.18448,1643042548.27688,1643042552.26169,1643042552.26386,1643042553.06447,1643042553.06199,1643043019.61932,1
100,4,2,3,8,6,3,c3_HowFace,2,looking to side?,66,F_111.jpg,1643042412.38228,1643042412.38466,123.447654714584,7.57246208190918,131.033816328049,133.134600152969,0.3,138.236502876282,0.733606338500977,138.975447883606,3,right,0.715458869934082,138.970109214783,604.477040519714,607.237040519714,1643042538.58993,1643042538.60095,1643042546.17609,1643042546.18448,1643042548.27688,1643042553.37878,1643042553.38436,1643042554.11772,1643042554.11238,1643043019.61932,0
100,4,2,3,8,7,3,c3_HowFace,1,looking to side?,69,F_110.jpg,1643042412.38228,1643042412.38466,123.447654714584,7.57246208190918,131.033816328049,133.134600152969,0.3,139.286894788742,0.583550214767456,139.872822990417,1,left,0.555828809738159,139.87044500351,604.477040519714,607.237040519714,1643042538.58993,1643042538.60095,1643042546.17609,1643042546.18448,1643042548.27688,1643042554.42917,1643042554.43419,1643042555.0151,1643042555.01272,1643043019.61932,1
100,4,2,3,8,8,3,c3_HowFace,2,looking to side?,65,F_798.jpg,1643042412.38228,1643042412.38466,123.447654714584,7.57246208190918,131.033816328049,133.134600152969,0.3,140.187229623795,0.883663177490234,141.075605859756,3,right,0.867444038391113,141.070892801285,604.477040519714,607.237040519714,1643042538.58993,1643042538.60095,1643042546.17609,1643042546.18448,1643042548.27688,1643042555.3295,1643042555.33436,1643042556.21788,1643042556.21317,1643043019.61932,0
100,4,2,3,9,1,1,c1_WhyFace,1,argument?,43,F_716.jpg,1643042412.38228,1643042412.38466,141.170930614471,8.95714616775513,150.140941610336,152.241725435257,2.10078382492065,152.391781797409,1.01704549789429,153.410973777771,1,left,0.999948024749756,153.408827295303,604.477040519714,607.237040519714,1643042556.31321,1643042556.31781,1643042565.28322,1643042565.28564,1643042567.384,1643042567.53406,1643042567.53641,1643042568.55325,1643042568.5511,1643043019.61932,1
100,4,2,3,9,2,1,c1_WhyFace,2,argument?,44,F_139.jpg,1643042412.38228,1643042412.38466,141.170930614471,8.95714616775513,150.140941610336,152.241725435257,0.3,153.72561167717,0.733606576919556,154.461377849579,3,right,0.719998121261597,154.459218254089,604.477040519714,607.237040519714,1643042556.31321,1643042556.31781,1643042565.28322,1643042565.28564,1643042567.384,1643042568.86789,1643042568.87031,1643042569.60365,1643042569.60149,1643043019.61932,0
100,4,2,3,9,3,1,c1_WhyFace,1,argument?,41,F_712.jpg,1643042412.38228,1643042412.38466,141.170930614471,8.95714616775513,150.140941610336,152.241725435257,0.3,154.776003112793,0.633570194244385,155.411942949295,1,left,0.612661838531494,155.409573307037,604.477040519714,607.237040519714,1643042556.31321,1643042556.31781,1643042565.28322,1643042565.28564,1643042567.384,1643042569.91828,1643042569.92004,1643042570.55422,1643042570.55185,1643043019.61932,1
100,4,2,3,9,4,1,c1_WhyFace,2,argument?,45,F_433.jpg,1643042412.38228,1643042412.38466,141.170930614471,8.95714616775513,150.140941610336,152.241725435257,0.3,155.726357450485,0.950355052947998,156.678763856888,3,right,0.937401056289673,156.676712503433,604.477040519714,607.237040519714,1643042556.31321,1643042556.31781,1643042565.28322,1643042565.28564,1643042567.384,1643042570.86863,1643042570.87092,1643042571.82104,1643042571.81899,1643043019.61932,0
100,4,2,3,9,5,1,c1_WhyFace,1,argument?,42,F_403.jpg,1643042412.38228,1643042412.38466,141.170930614471,8.95714616775513,150.140941610336,152.241725435257,0.3,156.993497362137,0.66691517829895,157.662764778137,1,left,0.642199039459229,157.660412540436,604.477040519714,607.237040519714,1643042556.31321,1643042556.31781,1643042565.28322,1643042565.28564,1643042567.384,1643042572.13577,1643042572.13769,1643042572.80504,1643042572.80269,1643043019.61932,1
100,4,2,3,9,6,1,c1_WhyFace,2,argument?,46,F_844.jpg,1643042412.38228,1643042412.38466,141.170930614471,8.95714616775513,150.140941610336,152.241725435257,0.3,157.977197160721,0.967027425765991,158.946317901611,1,left,0.949239015579224,158.944224586487,604.477040519714,607.237040519714,1643042556.31321,1643042556.31781,1643042565.28322,1643042565.28564,1643042567.384,1643042573.11947,1643042573.12163,1643042574.08859,1643042574.0865,1643043019.61932,0
100,4,2,3,9,7,1,c1_WhyFace,1,argument?,47,F_743.jpg,1643042412.38228,1643042412.38466,141.170930614471,8.95714616775513,150.140941610336,152.241725435257,0.3,159.26100944519,0.616897106170654,159.880055894852,1,left,0.595027923583984,159.877906551361,604.477040519714,607.237040519714,1643042556.31321,1643042556.31781,1643042565.28322,1643042565.28564,1643042567.384,1643042574.40328,1643042574.40531,1643042575.02233,1643042575.02018,1643043019.61932,1
100,4,2,3,9,8,1,c1_WhyFace,1,argument?,48,F_758.jpg,1643042412.38228,1643042412.38466,141.170930614471,8.95714616775513,150.140941610336,152.241725435257,0.3,160.194691886902,0.733605623245239,160.930670013428,1,left,0.707694053649902,160.928297510147,604.477040519714,607.237040519714,1643042556.31321,1643042556.31781,1643042565.28322,1643042565.28564,1643042567.384,1643042575.33697,1643042575.3398,1643042576.07295,1643042576.07057,1643043019.61932,1
100,4,2,3,10,1,3,c3_HowFace,1,open mouth?,80,F_844.jpg,1643042412.38228,1643042412.38466,161.028335800171,6.93974709510803,167.980928649902,170.08171128273,2.10078263282776,170.231767883301,0.716933488845825,170.950879802704,1,left,0.699375867843628,170.948701372147,604.477040519714,607.237040519714,1643042576.17061,1643042576.17279,1643042583.1232,1643042583.12523,1643042585.22399,1643042585.37404,1643042585.37593,1643042586.09315,1643042586.09098,1643043019.61932,1
100,4,2,3,10,2,3,c3_HowFace,1,open mouth?,74,F_776.jpg,1643042412.38228,1643042412.38466,161.028335800171,6.93974709510803,167.980928649902,170.08171128273,0.3,171.265486469269,0.566877841949463,171.842002859116,1,left,0.552795171737671,171.832364311218,604.477040519714,607.237040519714,1643042576.17061,1643042576.17279,1643042583.1232,1643042583.12523,1643042585.22399,1643042586.40776,1643042586.40997,1643042586.98428,1643042586.97464,1643043019.61932,1
100,4,2,3,10,3,3,c3_HowFace,2,open mouth?,76,F_544.jpg,1643042412.38228,1643042412.38466,161.028335800171,6.93974709510803,167.980928649902,170.08171128273,0.3,172.14914940834,0.600222826004028,172.751658906937,3,right,0.577987909317017,172.749372234344,604.477040519714,607.237040519714,1643042576.17061,1643042576.17279,1643042583.1232,1643042583.12523,1643042585.22399,1643042587.29142,1643042587.29398,1643042587.89393,1643042587.89165,1643043019.61932,0
100,4,2,3,10,4,3,c3_HowFace,1,open mouth?,78,F_692.jpg,1643042412.38228,1643042412.38466,161.028335800171,6.93974709510803,167.980928649902,170.08171128273,0.3,173.06615685463,0.43349552154541,173.508961906433,1,left,0.415988206863403,173.499652376175,604.477040519714,607.237040519714,1643042576.17061,1643042576.17279,1643042583.1232,1643042583.12523,1643042585.22399,1643042588.20843,1643042588.21067,1643042588.65124,1643042588.64193,1643043019.61932,1
100,4,2,3,10,5,3,c3_HowFace,2,open mouth?,77,F_584.jpg,1643042412.38228,1643042412.38466,161.028335800171,6.93974709510803,167.980928649902,170.08171128273,0.3,173.816437711716,0.666914701461792,174.492183914185,3,right,0.65660285949707,174.483352413177,604.477040519714,607.237040519714,1643042576.17061,1643042576.17279,1643042583.1232,1643042583.12523,1643042585.22399,1643042588.95871,1643042588.96096,1643042589.63446,1643042589.62563,1643043019.61932,0
100,4,2,3,10,6,3,c3_HowFace,1,open mouth?,73,F_403.jpg,1643042412.38228,1643042412.38466,161.028335800171,6.93974709510803,167.980928649902,170.08171128273,0.3,174.80013917923,0.500185966491699,175.302447786331,1,left,0.477256059646606,175.300325145721,604.477040519714,607.237040519714,1643042576.17061,1643042576.17279,1643042583.1232,1643042583.12523,1643042585.22399,1643042589.94241,1643042589.94454,1643042590.44472,1643042590.4426,1643043019.61932,1
100,4,2,3,10,7,3,c3_HowFace,1,open mouth?,75,F_086.jpg,1643042412.38228,1643042412.38466,161.028335800171,6.93974709510803,167.980928649902,170.08171128273,0.3,175.617109050751,0.616896867752075,176.242221822739,1,left,0.601198196411133,176.234005918503,604.477040519714,607.237040519714,1643042576.17061,1643042576.17279,1643042583.1232,1643042583.12523,1643042585.22399,1643042590.75938,1643042590.76145,1643042591.3845,1643042591.37628,1643043019.61932,1
100,4,2,3,10,8,3,c3_HowFace,2,open mouth?,79,F_648.jpg,1643042412.38228,1643042412.38466,161.028335800171,6.93974709510803,167.980928649902,170.08171128273,0.3,176.550790300369,0.666914939880371,177.219948997498,3,right,0.644195079803467,177.21770524025,604.477040519714,607.237040519714,1643042576.17061,1643042576.17279,1643042583.1232,1643042583.12523,1643042585.22399,1643042591.69307,1643042591.69547,1643042592.36222,1643042592.35998,1643043019.61932,0
100,4,2,3,11,1,4,c4_HowHand,1,pressing button?,88,H_019.jpg,1643042412.38228,1643042412.38466,177.317743530273,8.54033446311951,185.87093328476,187.97171710968,2.10078382492065,188.121772756577,0.633568286895752,188.758874883652,1,left,0.610977172851562,188.755341043472,604.477040519714,607.237040519714,1643042592.46002,1643042592.46797,1643042601.01321,1643042601.01768,1643042603.11399,1643042603.26405,1643042603.26764,1643042603.90115,1643042603.89762,1643043019.61932,1
100,4,2,3,11,2,4,c4_HowHand,2,pressing button?,87,H_024.jpg,1643042412.38228,1643042412.38466,177.317743530273,8.54033446311951,185.87093328476,187.97171710968,0.3,189.072126140594,0.633570194244385,189.708845844269,3,right,0.616742134094238,189.705696334839,604.477040519714,607.237040519714,1643042592.46002,1643042592.46797,1643042601.01321,1643042601.01768,1643042603.11399,1643042604.2144,1643042604.21743,1643042604.85112,1643042604.84797,1643043019.61932,0
100,4,2,3,11,3,4,c4_HowHand,2,pressing button?,85,H_130.jpg,1643042412.38228,1643042412.38466,177.317743530273,8.54033446311951,185.87093328476,187.97171710968,0.3,190.02248167038,0.683587789535522,190.708562841415,3,right,0.67073917388916,190.706069459915,604.477040519714,607.237040519714,1643042592.46002,1643042592.46797,1643042601.01321,1643042601.01768,1643042603.11399,1643042605.16476,1643042605.16829,1643042605.85084,1643042605.84834,1643043019.61932,0
100,4,2,3,11,4,4,c4_HowHand,1,pressing button?,83,H_502.jpg,1643042412.38228,1643042412.38466,177.317743530273,8.54033446311951,185.87093328476,187.97171710968,0.3,191.022854318619,0.533532857894897,191.558729877472,1,left,0.521203994750977,191.556387176514,604.477040519714,607.237040519714,1643042592.46002,1643042592.46797,1643042601.01321,1643042601.01768,1643042603.11399,1643042606.16513,1643042606.16751,1643042606.701,1643042606.69866,1643043019.61932,1
100,4,2,3,11,5,4,c4_HowHand,2,pressing button?,81,H_261.jpg,1643042412.38228,1643042412.38466,177.317743530273,8.54033446311951,185.87093328476,187.97171710968,0.3,191.873171319962,0.70026159286499,192.575564851761,3,right,0.689977884292603,192.573432912827,604.477040519714,607.237040519714,1643042592.46002,1643042592.46797,1643042601.01321,1643042601.01768,1643042603.11399,1643042607.01545,1643042607.01752,1643042607.71784,1643042607.71571,1643043019.61932,0
100,4,2,3,11,6,4,c4_HowHand,1,pressing button?,86,H_332.jpg,1643042412.38228,1643042412.38466,177.317743530273,8.54033446311951,185.87093328476,187.97171710968,0.3,192.890217056274,0.583549976348877,193.475926866531,1,left,0.566611051559448,193.473767032623,604.477040519714,607.237040519714,1643042592.46002,1643042592.46797,1643042601.01321,1643042601.01768,1643042603.11399,1643042608.03249,1643042608.03474,1643042608.6182,1643042608.61604,1643043019.61932,1
100,4,2,3,11,7,4,c4_HowHand,1,pressing button?,82,H_126.jpg,1643042412.38228,1643042412.38466,177.317743530273,8.54033446311951,185.87093328476,187.97171710968,0.3,193.790553798676,0.73360538482666,194.526462783813,1,left,0.715445995330811,194.524159183502,604.477040519714,607.237040519714,1643042592.46002,1643042592.46797,1643042601.01321,1643042601.01768,1643042603.11399,1643042608.93283,1643042608.93547,1643042609.66874,1643042609.66643,1643043019.61932,1
100,4,2,3,11,8,4,c4_HowHand,1,pressing button?,84,H_483.jpg,1643042412.38228,1643042412.38466,177.317743530273,8.54033446311951,185.87093328476,187.97171710968,0.3,194.840944757462,0.883662939071655,195.726776828766,1,left,0.869045972824097,195.724607696533,604.477040519714,607.237040519714,1643042592.46002,1643042592.46797,1643042601.01321,1643042601.01768,1643042603.11399,1643042609.98322,1643042609.98533,1643042610.86905,1643042610.86688,1643043019.61932,1
100,4,2,3,12,1,2,c2_WhyHand,1,competing?,9,H_261.jpg,1643042412.38228,1643042412.38466,195.824645271301,7.8234395980835,203.660901060104,205.761683216095,2.1007821559906,205.911740055084,0.566878318786621,206.492314805985,1,left,0.555408954620361,206.478618373871,604.477040519714,607.237040519714,1643042610.96692,1643042610.96896,1643042618.80318,1643042618.80524,1643042620.90396,1643042621.05402,1643042621.05604,1643042621.63459,1643042621.62089,1643043019.61932,1
100,4,2,3,12,2,2,c2_WhyHand,2,competing?,12,H_483.jpg,1643042412.38228,1643042412.38466,195.824645271301,7.8234395980835,203.660901060104,205.761683216095,0.3,206.795402755737,0.716933965682983,207.514679899216,3,right,0.693125009536743,207.51233672142,604.477040519714,607.237040519714,1643042610.96692,1643042610.96896,1643042618.80318,1643042618.80524,1643042620.90396,1643042621.93768,1643042621.93986,1643042622.65696,1643042622.65461,1643043019.61932,0
100,4,2,3,12,3,2,c2_WhyHand,1,competing?,14,H_132.jpg,1643042412.38228,1643042412.38466,195.824645271301,7.8234395980835,203.660901060104,205.761683216095,0.3,207.829121341705,0.483513355255127,208.314503898621,1,left,0.46651816368103,208.31263469696,604.477040519714,607.237040519714,1643042610.96692,1643042610.96896,1643042618.80318,1643042618.80524,1643042620.90396,1643042622.9714,1643042622.9734,1643042623.45678,1643042623.45491,1643043019.61932,1
100,4,2,3,12,4,2,c2_WhyHand,2,competing?,10,H_126.jpg,1643042412.38228,1643042412.38466,195.824645271301,7.8234395980835,203.660901060104,205.761683216095,0.3,208.629420747757,0.75027871131897,209.392050971985,3,right,0.737049102783203,209.379699459076,604.477040519714,607.237040519714,1643042610.96692,1643042610.96896,1643042618.80318,1643042618.80524,1643042620.90396,1643042623.7717,1643042623.77394,1643042624.53433,1643042624.52197,1643043019.61932,0
100,4,2,3,12,5,2,c2_WhyHand,1,competing?,16,H_136.jpg,1643042412.38228,1643042412.38466,195.824645271301,7.8234395980835,203.660901060104,205.761683216095,0.3,209.696484079361,0.816972970962524,210.525559892654,1,left,0.805759906768799,210.513457050323,604.477040519714,607.237040519714,1643042610.96692,1643042610.96896,1643042618.80318,1643042618.80524,1643042620.90396,1643042624.83876,1643042624.84087,1643042625.66783,1643042625.65573,1643043019.61932,1
100,4,2,3,12,6,2,c2_WhyHand,2,competing?,11,H_502.jpg,1643042412.38228,1643042412.38466,195.824645271301,7.8234395980835,203.660901060104,205.761683216095,0.3,210.830240478516,0.800299167633057,211.641877880096,3,right,0.78949499130249,211.630539646149,604.477040519714,607.237040519714,1643042610.96692,1643042610.96896,1643042618.80318,1643042618.80524,1643042620.90396,1643042625.97252,1643042625.97498,1643042626.78415,1643042626.77281,1643043019.61932,0
100,4,2,3,12,7,2,c2_WhyHand,1,competing?,13,H_003.jpg,1643042412.38228,1643042412.38466,195.824645271301,7.8234395980835,203.660901060104,205.761683216095,0.3,211.947324504852,0.68358850479126,212.642047872543,1,left,0.667294979095459,212.630913009644,604.477040519714,607.237040519714,1643042610.96692,1643042610.96896,1643042618.80318,1643042618.80524,1643042620.90396,1643042627.0896,1643042627.09202,1643042627.78432,1643042627.77319,1643043019.61932,1
100,4,2,3,12,8,2,c2_WhyHand,1,competing?,15,H_170.jpg,1643042412.38228,1643042412.38466,195.824645271301,7.8234395980835,203.660901060104,205.761683216095,0.3,212.947697629929,0.633569002151489,213.583500852585,1,left,0.615496158599854,213.58126663208,604.477040519714,607.237040519714,1643042610.96692,1643042610.96896,1643042618.80318,1643042618.80524,1643042620.90396,1643042628.08997,1643042628.09202,1643042628.72578,1643042628.72354,1643043019.61932,1
100,4,2,3,13,1,1,c1_WhyFace,1,self-doubt?,29,F_544.jpg,1643042412.38228,1643042412.38466,213.681304445267,8.03682637214661,221.734307518005,223.835090866089,2.1007833480835,223.985146751404,0.750279903411865,224.742332925797,1,left,0.738042116165161,224.735426654816,604.477040519714,607.237040519714,1643042628.82358,1643042628.83427,1643042636.87658,1643042636.87874,1643042638.97737,1643042639.12742,1643042639.12962,1643042639.88461,1643042639.8777,1643043019.61932,1
100,4,2,3,13,2,1,c1_WhyFace,2,self-doubt?,27,F_086.jpg,1643042412.38228,1643042412.38466,213.681304445267,8.03682637214661,221.734307518005,223.835090866089,0.3,225.052211036682,0.80029821395874,225.858802785873,1,left,0.782952070236206,225.852509250641,604.477040519714,607.237040519714,1643042628.82358,1643042628.83427,1643042636.87658,1643042636.87874,1643042638.97737,1643042640.19449,1643042640.19681,1643042641.00108,1643042640.99478,1643043019.61932,0
100,4,2,3,13,3,1,c1_WhyFace,1,self-doubt?,25,F_798.jpg,1643042412.38228,1643042412.38466,213.681304445267,8.03682637214661,221.734307518005,223.835090866089,0.3,226.169294109344,0.666914939880371,226.841991891861,1,left,0.647702932357788,226.836209049225,604.477040519714,607.237040519714,1643042628.82358,1643042628.83427,1643042636.87658,1643042636.87874,1643042638.97737,1643042641.31157,1643042641.31371,1643042641.98427,1643042641.97848,1643043019.61932,1
100,4,2,3,13,4,1,c1_WhyFace,1,self-doubt?,26,F_111.jpg,1643042412.38228,1643042412.38466,213.681304445267,8.03682637214661,221.734307518005,223.835090866089,0.3,227.152994384766,0.600224256515503,227.758558979034,1,left,0.585957050323486,227.753218641281,604.477040519714,607.237040519714,1643042628.82358,1643042628.83427,1643042636.87658,1643042636.87874,1643042638.97737,1643042642.29527,1643042642.301,1643042642.90083,1643042642.89549,1643043019.61932,1
100,4,2,3,13,5,1,c1_WhyFace,2,self-doubt?,31,F_774.jpg,1643042412.38228,1643042412.38466,213.681304445267,8.03682637214661,221.734307518005,223.835090866089,0.3,228.070003738403,0.600223779678345,228.672901859283,3,right,0.57384991645813,228.670227518082,604.477040519714,607.237040519714,1643042628.82358,1643042628.83427,1643042636.87658,1643042636.87874,1643042638.97737,1643042643.21228,1643042643.21795,1643042643.81518,1643042643.8125,1643043019.61932,0
100,4,2,3,13,6,1,c1_WhyFace,1,self-doubt?,28,F_754.jpg,1643042412.38228,1643042412.38466,213.681304445267,8.03682637214661,221.734307518005,223.835090866089,0.3,228.987011184692,0.683588266372681,229.675568809509,1,left,0.667344093322754,229.670599451065,604.477040519714,607.237040519714,1643042628.82358,1643042628.83427,1643042636.87658,1643042636.87874,1643042638.97737,1643042644.12929,1643042644.13443,1643042644.81784,1643042644.81287,1643043019.61932,1
100,4,2,3,13,7,1,c1_WhyFace,2,self-doubt?,32,F_128.jpg,1643042412.38228,1643042412.38466,213.681304445267,8.03682637214661,221.734307518005,223.835090866089,0.3,229.987385263443,1.25046634674072,231.242036809921,3,right,1.23175811767578,231.237851610184,604.477040519714,607.237040519714,1643042628.82358,1643042628.83427,1643042636.87658,1643042636.87874,1643042638.97737,1643042645.12966,1643042645.13435,1643042646.38431,1643042646.38013,1643043019.61932,0
100,4,2,3,13,8,1,c1_WhyFace,1,self-doubt?,30,F_584.jpg,1643042412.38228,1643042412.38466,213.681304445267,8.03682637214661,221.734307518005,223.835090866089,0.3,231.554635515213,0.967028379440308,232.525862922668,1,left,0.944250106811523,232.521663894653,604.477040519714,607.237040519714,1643042628.82358,1643042628.83427,1643042636.87658,1643042636.87874,1643042638.97737,1643042646.69691,1643042646.70079,1643042647.66814,1643042647.66394,1643043019.61932,1
100,4,2,3,14,1,3,c3_HowFace,1,looking at camera?,64,F_128.jpg,1643042412.38228,1643042412.38466,232.621700515747,8.15036940574646,240.791414728165,242.875524511337,2.08410978317261,243.025581111908,0.550204515457153,243.578011980057,1,left,0.516390085220337,243.575785627365,604.477040519714,607.237040519714,1643042647.76398,1643042647.76754,1643042655.93369,1643042655.93644,1643042658.0178,1643042658.16786,1643042658.18437,1643042658.72029,1643042658.71806,1643043019.61932,1
100,4,2,3,14,2,3,c3_HowFace,1,looking at camera?,60,F_618.jpg,1643042412.38228,1643042412.38466,232.621700515747,8.15036940574646,240.791414728165,242.875524511337,0.3,243.892570009232,0.516859531402588,244.411153783798,1,left,0.503863096237183,244.409429540634,604.477040519714,607.237040519714,1643042647.76398,1643042647.76754,1643042655.93369,1643042655.93644,1643042658.0178,1643042659.03485,1643042659.03728,1643042659.55343,1643042659.5517,1643043019.61932,1
100,4,2,3,14,3,3,c3_HowFace,1,looking at camera?,62,F_598.jpg,1643042412.38228,1643042412.38466,232.621700515747,8.15036940574646,240.791414728165,242.875524511337,0.3,244.726214637756,0.550204515457153,245.279183855057,1,left,0.533237218856812,245.276419153214,604.477040519714,607.237040519714,1643042647.76398,1643042647.76754,1643042655.93369,1643042655.93644,1643042658.0178,1643042659.86849,1643042659.8708,1643042660.42146,1643042660.41869,1643043019.61932,1
100,4,2,3,14,4,3,c3_HowFace,2,looking at camera?,63,F_743.jpg,1643042412.38228,1643042412.38466,232.621700515747,8.15036940574646,240.791414728165,242.875524511337,0.3,245.593204727173,0.583550453186035,246.179004898071,3,right,0.564117193222046,246.176755180359,604.477040519714,607.237040519714,1643042647.76398,1643042647.76754,1643042655.93369,1643042655.93644,1643042658.0178,1643042660.73548,1643042660.73757,1643042661.32128,1643042661.31903,1643043019.61932,0
100,4,2,3,14,5,3,c3_HowFace,1,looking at camera?,61,F_774.jpg,1643042412.38228,1643042412.38466,232.621700515747,8.15036940574646,240.791414728165,242.875524511337,0.3,246.493540754318,0.550204992294312,247.045929899216,1,left,0.535479784011841,247.043745746613,604.477040519714,607.237040519714,1643042647.76398,1643042647.76754,1643042655.93369,1643042655.93644,1643042658.0178,1643042661.63582,1643042661.63809,1643042662.18821,1643042662.18602,1643043019.61932,1
100,4,2,3,14,6,3,c3_HowFace,2,looking at camera?,57,F_582.jpg,1643042412.38228,1643042412.38466,232.621700515747,8.15036940574646,240.791414728165,242.875524511337,0.3,247.360532035828,0.983698606491089,248.359546890259,1,left,0.972421169281006,248.344230642319,604.477040519714,607.237040519714,1643042647.76398,1643042647.76754,1643042655.93369,1643042655.93644,1643042658.0178,1643042662.50281,1643042662.50491,1643042663.50182,1643042663.48651,1643043019.61932,0
100,4,2,3,14,7,3,c3_HowFace,2,looking at camera?,58,F_754.jpg,1643042412.38228,1643042412.38466,232.621700515747,8.15036940574646,240.791414728165,242.875524511337,0.3,248.661015024185,0.833644866943359,249.508802881241,3,right,0.819971084594727,249.494659891129,604.477040519714,607.237040519714,1643042647.76398,1643042647.76754,1643042655.93369,1643042655.93644,1643042658.0178,1643042663.80329,1643042663.80537,1643042664.65108,1643042664.63693,1643043019.61932,0
100,4,2,3,14,8,3,c3_HowFace,1,looking at camera?,59,F_129.jpg,1643042412.38228,1643042412.38466,232.621700515747,8.15036940574646,240.791414728165,242.875524511337,0.3,249.811444749832,0.583550930023193,250.397562971115,1,left,0.563777923583984,250.394995679855,604.477040519714,607.237040519714,1643042647.76398,1643042647.76754,1643042655.93369,1643042655.93644,1643042658.0178,1643042664.95372,1643042664.95588,1643042665.53984,1643042665.53727,1643043019.61932,1
100,4,2,3,15,1,4,c4_HowHand,1,both hands?,123,H_167.jpg,1643042412.38228,1643042412.38466,250.495032539368,9.06704330444336,259.581754198074,261.665865411758,2.08411121368408,261.815921297073,0.917008638381958,262.735234966278,1,left,0.885776996612549,262.732929935455,604.477040519714,607.237040519714,1643042665.63731,1643042665.63949,1643042674.72403,1643042674.72672,1643042676.80814,1643042676.9582,1643042676.96777,1643042677.87751,1643042677.87521,1643043019.61932,1
100,4,2,3,15,2,4,c4_HowHand,2,both hands?,121,H_091.jpg,1643042412.38228,1643042412.38466,250.495032539368,9.06704330444336,259.581754198074,261.665865411758,0.3,263.049714078903,0.800298452377319,263.852332820892,3,right,0.776659965515137,263.850012531281,604.477040519714,607.237040519714,1643042665.63731,1643042665.63949,1643042674.72403,1643042674.72672,1643042676.80814,1643042678.19199,1643042678.1942,1643042678.99461,1643042678.99229,1643043019.61932,0
100,4,2,3,15,3,4,c4_HowHand,2,both hands?,125,H_627.jpg,1643042412.38228,1643042412.38466,250.495032539368,9.06704330444336,259.581754198074,261.665865411758,0.3,264.166797866821,0.700260639190674,264.869156827927,3,right,0.675323963165283,264.867058506012,604.477040519714,607.237040519714,1643042665.63731,1643042665.63949,1643042674.72403,1643042674.72672,1643042676.80814,1643042679.30907,1643042679.3112,1643042680.01143,1643042680.00933,1643043019.61932,0
100,4,2,3,15,4,4,c4_HowHand,1,both hands?,128,H_027.jpg,1643042412.38228,1643042412.38466,250.495032539368,9.06704330444336,259.581754198074,261.665865411758,0.3,265.183843603134,0.683587789535522,265.875716915131,1,left,0.665741920471191,265.86743139267,604.477040519714,607.237040519714,1643042665.63731,1643042665.63949,1643042674.72403,1643042674.72672,1643042676.80814,1643042680.32612,1643042680.32819,1643042681.01799,1643042681.00971,1643043019.61932,1
100,4,2,3,15,5,4,c4_HowHand,1,both hands?,122,H_111.jpg,1643042412.38228,1643042412.38466,250.495032539368,9.06704330444336,259.581754198074,261.665865411758,0.3,266.184217681885,0.7669517993927,266.958852996826,1,left,0.747973918914795,266.951169481277,604.477040519714,607.237040519714,1643042665.63731,1643042665.63949,1643042674.72403,1643042674.72672,1643042676.80814,1643042681.32649,1643042681.32852,1643042682.10113,1643042682.09344,1643043019.61932,1
100,4,2,3,15,6,4,c4_HowHand,2,both hands?,126,H_159.jpg,1643042412.38228,1643042412.38466,250.495032539368,9.06704330444336,259.581754198074,261.665865411758,0.3,267.267954101563,0.866990804672241,268.142144908905,3,right,0.857901811599731,268.134944906235,604.477040519714,607.237040519714,1643042665.63731,1643042665.63949,1643042674.72403,1643042674.72672,1643042676.80814,1643042682.41023,1643042682.41222,1643042683.28442,1643042683.27722,1643043019.61932,0
100,4,2,3,15,7,4,c4_HowHand,1,both hands?,124,H_581.jpg,1643042412.38228,1643042412.38466,250.495032539368,9.06704330444336,259.581754198074,261.665865411758,0.3,268.451729288101,0.766952514648438,269.225487937927,1,left,0.747677087783813,269.21868180275,604.477040519714,607.237040519714,1643042665.63731,1643042665.63949,1643042674.72403,1643042674.72672,1643042676.80814,1643042683.594,1643042683.59619,1643042684.36776,1643042684.36096,1643043019.61932,1
100,4,2,3,15,8,4,c4_HowHand,1,both hands?,127,H_349.jpg,1643042412.38228,1643042412.38466,250.495032539368,9.06704330444336,259.581754198074,261.665865411758,0.3,269.53545879364,0.700269222259521,270.242116918564,1,left,0.688371896743774,270.2357280159,604.477040519714,607.237040519714,1643042665.63731,1643042665.63949,1643042674.72403,1643042674.72672,1643042676.80814,1643042684.67773,1643042684.67998,1643042685.38439,1643042685.378,1643043019.61932,1
100,4,2,3,16,1,2,c2_WhyHand,1,self-protection?,89,H_443.jpg,1643042412.38228,1643042412.38466,270.352437009811,7.99964690208435,278.37209605217,280.456205596924,2.08410954475403,280.60626124382,0.566879034042358,281.175478925705,1,left,0.55072808265686,281.173140277863,604.477040519714,607.237040519714,1643042685.49471,1643042685.50119,1643042693.51437,1643042693.51652,1643042695.59848,1643042695.74854,1643042695.75107,1643042696.31775,1643042696.31542,1643043019.61932,1
100,4,2,3,16,2,2,c2_WhyHand,2,self-protection?,90,H_006.jpg,1643042412.38228,1643042412.38466,270.352437009811,7.99964690208435,278.37209605217,280.456205596924,0.3,281.489924659729,0.700260877609253,282.192524900436,3,right,0.68795108795166,282.190185537338,604.477040519714,607.237040519714,1643042685.49471,1643042685.50119,1643042693.51437,1643042693.51652,1643042695.59848,1643042696.6322,1643042696.63498,1643042697.3348,1643042697.33246,1643043019.61932,0
100,4,2,3,16,3,2,c2_WhyHand,1,self-protection?,91,H_581.jpg,1643042412.38228,1643042412.38466,270.352437009811,7.99964690208435,278.37209605217,280.456205596924,0.3,282.50697063446,0.600224018096924,283.109243860245,1,left,0.589968204498291,283.107194652557,604.477040519714,607.237040519714,1643042685.49471,1643042685.50119,1643042693.51437,1643042693.51652,1643042695.59848,1643042697.64925,1643042697.65158,1643042698.25152,1643042698.24947,1643043019.61932,1
100,4,2,3,16,4,2,c2_WhyHand,2,self-protection?,92,H_532.jpg,1643042412.38228,1643042412.38466,270.352437009811,7.99964690208435,278.37209605217,280.456205596924,0.3,283.423979511261,0.900336742401123,284.326477994919,3,right,0.884438991546631,284.324316253662,604.477040519714,607.237040519714,1643042685.49471,1643042685.50119,1643042693.51437,1643042693.51652,1643042695.59848,1643042698.56625,1643042698.56818,1643042699.46875,1643042699.46659,1643043019.61932,0
100,4,2,3,16,5,2,c2_WhyHand,1,self-protection?,96,H_027.jpg,1643042412.38228,1643042412.38466,270.352437009811,7.99964690208435,278.37209605217,280.456205596924,0.3,284.641099443436,0.83364462852478,285.492218961716,1,left,0.824137926101685,285.47474407196,604.477040519714,607.237040519714,1643042685.49471,1643042685.50119,1643042693.51437,1643042693.51652,1643042695.59848,1643042699.78337,1643042699.78532,1643042700.63449,1643042700.61702,1643043019.61932,1
100,4,2,3,16,6,2,c2_WhyHand,1,self-protection?,93,H_038.jpg,1643042412.38228,1643042412.38466,270.352437009811,7.99964690208435,278.37209605217,280.456205596924,0.3,285.79152964592,0.900334596633911,286.693896999359,1,left,0.880321025848389,286.691864242554,604.477040519714,607.237040519714,1643042685.49471,1643042685.50119,1643042693.51437,1643042693.51652,1643042695.59848,1643042700.9338,1643042700.9361,1643042701.83617,1643042701.83414,1643043019.61932,1
100,4,2,3,16,7,2,c2_WhyHand,2,self-protection?,95,H_332.jpg,1643042412.38228,1643042412.38466,270.352437009811,7.99964690208435,278.37209605217,280.456205596924,0.3,287.008650054932,0.933681011199951,287.944331874847,3,right,0.911861896514893,287.942331066132,604.477040519714,607.237040519714,1643042685.49471,1643042685.50119,1643042693.51437,1643042693.51652,1643042695.59848,1643042702.15093,1643042702.15281,1643042703.08661,1643042703.08461,1643043019.61932,0
100,4,2,3,16,8,2,c2_WhyHand,1,self-protection?,94,H_189.jpg,1643042412.38228,1643042412.38466,270.352437009811,7.99964690208435,278.37209605217,280.456205596924,0.3,288.259115447998,1.15042901039124,289.411573877335,1,left,1.1274299621582,289.409544458389,604.477040519714,607.237040519714,1643042685.49471,1643042685.50119,1643042693.51437,1643042693.51652,1643042695.59848,1643042703.40139,1643042703.40367,1643042704.55385,1643042704.55182,1643043019.61932,1
100,4,2,3,17,1,3,c3_HowFace,1,smiling?,118,F_759.jpg,1643042412.38228,1643042412.38466,289.509581794739,10.3225421905518,299.846770515442,301.947553625107,2.10078310966492,302.097609033585,0.633569955825806,302.733191003799,1,left,0.608364105224609,302.73117898941,604.477040519714,607.237040519714,1643042704.65186,1643042704.6538,1643042714.98905,1643042714.99126,1643042717.08983,1643042717.23988,1643042717.24221,1643042717.87547,1643042717.87345,1643043019.61932,1
100,4,2,3,17,2,3,c3_HowFace,2,smiling?,114,F_412.jpg,1643042412.38228,1643042412.38466,289.509581794739,10.3225421905518,299.846770515442,301.947553625107,0.3,303.047965040207,0.0166714191436768,303.075520982742,1,left,0.000911951065063477,303.064636459351,604.477040519714,607.237040519714,1643042704.65186,1643042704.6538,1643042714.98905,1643042714.99126,1643042717.08983,1643042718.19024,1643042718.19222,1643042718.2178,1643042718.20691,1643043019.61932,0
100,4,2,3,17,3,3,c3_HowFace,1,smiling?,117,F_593.jpg,1643042412.38228,1643042412.38466,289.509581794739,10.3225421905518,299.846770515442,301.947553625107,0.3,303.381421318054,0.967028379440308,304.358937969208,1,left,0.954933166503906,304.348449697495,604.477040519714,607.237040519714,1643042704.65186,1643042704.6538,1643042714.98905,1643042714.99126,1643042717.08983,1643042718.5237,1643042718.52555,1643042719.50121,1643042719.49072,1643043019.61932,1
100,4,2,3,17,4,3,c3_HowFace,2,smiling?,113,F_712.jpg,1643042412.38228,1643042412.38466,289.509581794739,10.3225421905518,299.846770515442,301.947553625107,0.3,304.665235033035,0.683586120605469,305.350911846161,3,right,0.658249855041504,305.348821153641,604.477040519714,607.237040519714,1643042704.65186,1643042704.6538,1643042714.98905,1643042714.99126,1643042717.08983,1643042719.80751,1643042719.80955,1643042720.49319,1643042720.4911,1643043019.61932,0
100,4,2,3,17,5,3,c3_HowFace,1,smiling?,115,F_695.jpg,1643042412.38228,1643042412.38466,289.509581794739,10.3225421905518,299.846770515442,301.947553625107,0.3,305.665607681274,0.666914701461792,306.342129936218,1,left,0.648777961730957,306.332522382736,604.477040519714,607.237040519714,1643042704.65186,1643042704.6538,1643042714.98905,1643042714.99126,1643042717.08983,1643042720.80788,1643042720.80973,1643042721.48441,1643042721.4748,1643043019.61932,1
100,4,2,3,17,6,3,c3_HowFace,1,smiling?,119,F_139.jpg,1643042412.38228,1643042412.38466,289.509581794739,10.3225421905518,299.846770515442,301.947553625107,0.3,306.649307479858,0.716933965682983,307.368428936005,1,left,0.695894002914429,307.366241445541,604.477040519714,607.237040519714,1643042704.65186,1643042704.6538,1643042714.98905,1643042714.99126,1643042717.08983,1643042721.79158,1643042721.79356,1643042722.5107,1643042722.50852,1643043019.61932,1
100,4,2,3,17,7,3,c3_HowFace,1,smiling?,116,F_083.jpg,1643042412.38228,1643042412.38466,289.509581794739,10.3225421905518,299.846770515442,301.947553625107,0.3,307.683027019501,0.61689567565918,308.308995952606,1,left,0.605956077575684,308.29992269516,604.477040519714,607.237040519714,1643042704.65186,1643042704.6538,1643042714.98905,1643042714.99126,1643042717.08983,1643042722.8253,1643042722.82751,1643042723.45127,1643042723.4422,1643043019.61932,1
100,4,2,3,17,8,3,c3_HowFace,2,smiling?,120,F_758.jpg,1643042412.38228,1643042412.38466,289.509581794739,10.3225421905518,299.846770515442,301.947553625107,0.3,308.616707315445,0.716933727264404,309.342038860321,3,right,0.699139833450317,309.333641042709,604.477040519714,607.237040519714,1643042704.65186,1643042704.6538,1643042714.98905,1643042714.99126,1643042717.08983,1643042723.75898,1643042723.76108,1643042724.48431,1643042724.47592,1643043019.61932,0
100,4,2,3,18,1,1,c1_WhyFace,1,admiring?,1,F_593.jpg,1643042412.38228,1643042412.38466,309.450351705551,8.17162322998047,317.63673781395,319.737521877289,2.10078406333923,319.887577524185,0.616896152496338,320.506833782196,1,left,0.588644027709961,320.504473676682,604.477040519714,607.237040519714,1643042724.59263,1643042724.59466,1643042732.77901,1643042732.78436,1643042734.8798,1643042735.02985,1643042735.0344,1643042735.64911,1643042735.64675,1643043019.61932,1
100,4,2,3,18,2,1,c1_WhyFace,2,admiring?,2,F_129.jpg,1643042412.38228,1643042412.38466,309.450351705551,8.17162322998047,317.63673781395,319.737521877289,0.3,320.821258773804,0.850316524505615,321.675217857361,3,right,0.839087009429932,321.671575298309,604.477040519714,607.237040519714,1643042724.59263,1643042724.59466,1643042732.77901,1643042732.78436,1643042734.8798,1643042735.96353,1643042735.96788,1643042736.81749,1643042736.81385,1643043019.61932,0
100,4,2,3,18,3,1,c1_WhyFace,1,admiring?,5,F_759.jpg,1643042412.38228,1643042412.38466,309.450351705551,8.17162322998047,317.63673781395,319.737521877289,0.3,321.988360872269,0.716933727264404,322.707535972595,1,left,0.690330028533936,322.705294599533,604.477040519714,607.237040519714,1643042724.59263,1643042724.59466,1643042732.77901,1643042732.78436,1643042734.8798,1643042737.13064,1643042737.13422,1643042737.84981,1643042737.84757,1643043019.61932,1
100,4,2,3,18,4,1,c1_WhyFace,2,admiring?,6,F_692.jpg,1643042412.38228,1643042412.38466,309.450351705551,8.17162322998047,317.63673781395,319.737521877289,0.3,323.022079458237,0.633570671081543,323.658461799622,3,right,0.623571157455444,323.655650129318,604.477040519714,607.237040519714,1643042724.59263,1643042724.59466,1643042732.77901,1643042732.78436,1643042734.8798,1643042738.16435,1643042738.16764,1643042738.80074,1643042738.79793,1643043019.61932,0
100,4,2,3,18,5,1,c1_WhyFace,1,admiring?,4,F_779.jpg,1643042412.38228,1643042412.38466,309.450351705551,8.17162322998047,317.63673781395,319.737521877289,0.3,323.972433795929,0.683588266372681,324.658365001678,1,left,0.671536922454834,324.656022062302,604.477040519714,607.237040519714,1643042724.59263,1643042724.59466,1643042732.77901,1643042732.78436,1643042734.8798,1643042739.11471,1643042739.11782,1643042739.80064,1643042739.7983,1643043019.61932,1
100,4,2,3,18,6,1,c1_WhyFace,1,admiring?,8,F_590.jpg,1643042412.38228,1643042412.38466,309.450351705551,8.17162322998047,317.63673781395,319.737521877289,0.3,324.97280787468,0.700260877609253,325.675243844986,1,left,0.676635980606079,325.673068752289,604.477040519714,607.237040519714,1643042724.59263,1643042724.59466,1643042732.77901,1643042732.78436,1643042734.8798,1643042740.11508,1643042740.11763,1643042740.81752,1643042740.81534,1643043019.61932,1
100,4,2,3,18,7,1,c1_WhyFace,1,admiring?,7,F_648.jpg,1643042412.38228,1643042412.38466,309.450351705551,8.17162322998047,317.63673781395,319.737521877289,0.3,325.989852657318,0.750279426574707,326.742501010895,1,left,0.73096489906311,326.740132083893,604.477040519714,607.237040519714,1643042724.59263,1643042724.59466,1643042732.77901,1643042732.78436,1643042734.8798,1643042741.13213,1643042741.13471,1643042741.88478,1643042741.88241,1643043019.61932,1
100,4,2,3,18,8,1,c1_WhyFace,2,admiring?,3,F_110.jpg,1643042412.38228,1643042412.38466,309.450351705551,8.17162322998047,317.63673781395,319.737521877289,0.3,327.056917419434,0.716933250427246,327.776037921906,3,right,0.70083212852478,327.773850669861,604.477040519714,607.237040519714,1643042724.59263,1643042724.59466,1643042732.77901,1643042732.78436,1643042734.8798,1643042742.19919,1643042742.20146,1643042742.91831,1643042742.91613,1643043019.61932,0
100,4,2,3,19,1,2,c2_WhyHand,1,competing?,9,H_261.jpg,1643042412.38228,1643042412.38466,327.873888483047,7.63816142082214,335.526743164063,337.627526273727,2.10078310966492,337.777581920624,0.616896629333496,338.396444787979,1,left,0.600866079330444,338.394478549957,604.477040519714,607.237040519714,1643042743.01616,1643042743.01797,1643042750.66902,1643042750.67114,1643042752.7698,1643042752.91986,1643042752.92168,1643042753.53872,1643042753.53675,1643043019.61932,1
100,4,2,3,19,2,2,c2_WhyHand,1,competing?,15,H_170.jpg,1643042412.38228,1643042412.38466,327.873888483047,7.63816142082214,335.526743164063,337.627526273727,0.3,338.711263647079,0.616896152496338,339.330238809586,1,left,0.593885898590088,339.328159799576,604.477040519714,607.237040519714,1643042743.01616,1643042743.01797,1643042750.66902,1643042750.67114,1643042752.7698,1643042753.85354,1643042753.85574,1643042754.47251,1643042754.47043,1643043019.61932,1
100,4,2,3,19,3,2,c2_WhyHand,2,competing?,12,H_483.jpg,1643042412.38228,1643042412.38466,327.873888483047,7.63816142082214,335.526743164063,337.627526273727,0.3,339.644945850372,0.816970825195312,340.464102973938,3,right,0.791833162307739,340.461916675568,604.477040519714,607.237040519714,1643042743.01616,1643042743.01797,1643042750.66902,1643042750.67114,1643042752.7698,1643042754.78722,1643042754.78947,1643042755.60638,1643042755.60419,1643043019.61932,0
100,4,2,3,19,4,2,c2_WhyHand,1,competing?,14,H_132.jpg,1643042412.38228,1643042412.38466,327.873888483047,7.63816142082214,335.526743164063,337.627526273727,0.3,340.778702011108,0.600223302841187,341.392241945267,1,left,0.58829402923584,341.37892531395,604.477040519714,607.237040519714,1643042743.01616,1643042743.01797,1643042750.66902,1643042750.67114,1643042752.7698,1643042755.92098,1643042755.92311,1643042756.53452,1643042756.5212,1643043019.61932,1
100,4,2,3,19,5,2,c2_WhyHand,1,competing?,16,H_136.jpg,1643042412.38228,1643042412.38466,327.873888483047,7.63816142082214,335.526743164063,337.627526273727,0.3,341.695709695816,0.816971778869629,342.52545498848,1,left,0.806565046310425,342.512681474686,604.477040519714,607.237040519714,1643042743.01616,1643042743.01797,1643042750.66902,1643042750.67114,1643042752.7698,1643042756.83798,1643042756.83967,1643042757.66773,1643042757.65496,1643043019.61932,1
100,4,2,3,19,6,2,c2_WhyHand,1,competing?,13,H_003.jpg,1643042412.38228,1643042412.38466,327.873888483047,7.63816142082214,335.526743164063,337.627526273727,0.3,342.829466571808,0.733607292175293,343.575115909576,1,left,0.723889827728271,343.563073863983,604.477040519714,607.237040519714,1643042743.01616,1643042743.01797,1643042750.66902,1643042750.67114,1643042752.7698,1643042757.97174,1643042757.97376,1643042758.71739,1643042758.70535,1643043019.61932,1
100,4,2,3,19,7,2,c2_WhyHand,2,competing?,10,H_126.jpg,1643042412.38228,1643042412.38466,327.873888483047,7.63816142082214,335.526743164063,337.627526273727,0.3,343.879858484268,0.900335073471069,344.782537927628,3,right,0.881093978881836,344.780193557739,604.477040519714,607.237040519714,1643042743.01616,1643042743.01797,1643042750.66902,1643042750.67114,1643042752.7698,1643042759.02213,1643042759.02429,1643042759.92481,1643042759.92247,1643043019.61932,0
100,4,2,3,19,8,2,c2_WhyHand,2,competing?,11,H_502.jpg,1643042412.38228,1643042412.38466,327.873888483047,7.63816142082214,335.526743164063,337.627526273727,0.3,345.096979131699,0.833643674850464,345.933098783493,3,right,0.812274932861328,345.930622806549,604.477040519714,607.237040519714,1643042743.01616,1643042743.01797,1643042750.66902,1643042750.67114,1643042752.7698,1643042760.23925,1643042760.2413,1643042761.07537,1643042761.0729,1643043019.61932,0
100,4,2,3,20,1,4,c4_HowHand,1,reaching?,111,H_003.jpg,1643042412.38228,1643042412.38466,346.047333230972,10.9449577331543,357.00141834259,359.102201929092,2.10078358650208,359.252257575989,0.550204992294312,359.808952798843,1,left,0.532649993896484,359.802462568283,604.477040519714,607.237040519714,1643042761.18961,1643042761.19335,1643042772.14369,1643042772.1514,1643042774.24448,1643042774.39453,1643042774.40111,1643042774.95123,1643042774.94474,1643043019.61932,1
100,4,2,3,20,2,4,c4_HowHand,1,reaching?,110,H_364.jpg,1643042412.38228,1643042412.38466,346.047333230972,10.9449577331543,357.00141834259,359.102201929092,0.3,360.119248142242,0.63356876373291,360.758872976303,1,left,0.618962049484253,360.752816905975,604.477040519714,607.237040519714,1643042761.18961,1643042761.19335,1643042772.14369,1643042772.1514,1643042774.24448,1643042775.26152,1643042775.26394,1643042775.90115,1643042775.89509,1643043019.61932,1
100,4,2,3,20,3,4,c4_HowHand,2,reaching?,108,H_532.jpg,1643042412.38228,1643042412.38466,346.047333230972,10.9449577331543,357.00141834259,359.102201929092,0.3,361.06960152626,0.850317239761353,361.922176828384,3,right,0.824311971664429,361.919918766022,604.477040519714,607.237040519714,1643042761.18961,1643042761.19335,1643042772.14369,1643042772.1514,1643042774.24448,1643042776.21188,1643042776.21405,1643042777.06445,1643042777.06219,1643043019.61932,0
100,4,2,3,20,4,4,c4_HowHand,1,reaching?,106,H_006.jpg,1643042412.38228,1643042412.38466,346.047333230972,10.9449577331543,357.00141834259,359.102201929092,0.3,362.236703147888,0.716934442520142,362.958709945679,1,left,0.69106388092041,362.953637590408,604.477040519714,607.237040519714,1643042761.18961,1643042761.19335,1643042772.14369,1643042772.1514,1643042774.24448,1643042777.37898,1643042777.38431,1643042778.10099,1643042778.09591,1643043019.61932,1
100,4,2,3,20,5,4,c4_HowHand,2,reaching?,105,H_438.jpg,1643042412.38228,1643042412.38466,346.047333230972,10.9449577331543,357.00141834259,359.102201929092,0.3,363.270422687531,1.01704597473145,364.28967880249,3,right,0.989161014556885,364.287468662262,604.477040519714,607.237040519714,1643042761.18961,1643042761.19335,1643042772.14369,1643042772.1514,1643042774.24448,1643042778.4127,1643042778.41768,1643042779.43195,1643042779.42974,1643043019.61932,0
100,4,2,3,20,6,4,c4_HowHand,1,reaching?,107,H_007.jpg,1643042412.38228,1643042412.38466,346.047333230972,10.9449577331543,357.00141834259,359.102201929092,0.3,364.604253520966,0.683588027954102,365.292138805389,1,left,0.666043996810913,365.28784154892,604.477040519714,607.237040519714,1643042761.18961,1643042761.19335,1643042772.14369,1643042772.1514,1643042774.24448,1643042779.74653,1643042779.75114,1643042780.43441,1643042780.43012,1643043019.61932,1
100,4,2,3,20,7,4,c4_HowHand,1,reaching?,109,H_474.jpg,1643042412.38228,1643042412.38466,346.047333230972,10.9449577331543,357.00141834259,359.102201929092,0.3,365.604626646042,0.833643674850464,366.441989889145,1,left,0.81209397315979,366.438270320892,604.477040519714,607.237040519714,1643042761.18961,1643042761.19335,1643042772.14369,1643042772.1514,1643042774.24448,1643042780.7469,1643042780.75104,1643042781.58426,1643042781.58055,1643043019.61932,1
100,4,2,3,20,8,4,c4_HowHand,2,reaching?,112,H_132.jpg,1643042412.38228,1643042412.38466,346.047333230972,10.9449577331543,357.00141834259,359.102201929092,0.3,366.755055418015,0.9170081615448,367.675810804367,3,right,0.894413948059082,367.672063579559,604.477040519714,607.237040519714,1643042761.18961,1643042761.19335,1643042772.14369,1643042772.1514,1643042774.24448,1643042781.89733,1643042781.90098,1643042782.81809,1643042782.81434,1643043019.61932,0
100,4,2,3,21,1,3,c3_HowFace,1,open mouth?,73,F_403.jpg,1643042412.38228,1643042412.38466,367.788774242401,7.04325556755066,374.841403474808,376.942187299728,2.10078382492065,377.092243423462,0.516860246658325,377.611408939362,1,left,0.505556106567383,377.60910367012,604.477040519714,607.237040519714,1643042782.93105,1643042782.93451,1643042789.98368,1643042789.98573,1643042792.08446,1643042792.23452,1643042792.2366,1643042792.75368,1643042792.75138,1643043019.61932,1
100,4,2,3,21,2,3,c3_HowFace,2,open mouth?,79,F_648.jpg,1643042412.38228,1643042412.38466,367.788774242401,7.04325556755066,374.841403474808,376.942187299728,0.3,377.925889005661,0.53353214263916,378.461794843674,3,right,0.516930818557739,378.4594211483,604.477040519714,607.237040519714,1643042782.93105,1643042782.93451,1643042789.98368,1643042789.98573,1643042792.08446,1643042793.06816,1643042793.07024,1643042793.60407,1643042793.6017,1643043019.61932,0
100,4,2,3,21,3,3,c3_HowFace,1,open mouth?,74,F_776.jpg,1643042412.38228,1643042412.38466,367.788774242401,7.04325556755066,374.841403474808,376.942187299728,0.3,378.776204576492,0.500186443328857,379.278333892822,1,left,0.486089944839478,379.276391019821,604.477040519714,607.237040519714,1643042782.93105,1643042782.93451,1643042789.98368,1643042789.98573,1643042792.08446,1643042793.91848,1643042793.92064,1643042794.42061,1643042794.41867,1643043019.61932,1
100,4,2,3,21,4,3,c3_HowFace,2,open mouth?,77,F_584.jpg,1643042412.38228,1643042412.38466,367.788774242401,7.04325556755066,374.841403474808,376.942187299728,0.3,379.593176593781,0.533531665802002,380.142400970459,3,right,0.521038770675659,380.126708259583,604.477040519714,607.237040519714,1643042782.93105,1643042782.93451,1643042789.98368,1643042789.98573,1643042792.08446,1643042794.73545,1643042794.73767,1643042795.28468,1643042795.26898,1643043019.61932,0
100,4,2,3,21,5,3,c3_HowFace,1,open mouth?,80,F_844.jpg,1643042412.38228,1643042412.38466,367.788774242401,7.04325556755066,374.841403474808,376.942187299728,0.3,380.443493118286,0.500186681747437,380.958975782394,1,left,0.490588903427124,380.943679800034,604.477040519714,607.237040519714,1643042782.93105,1643042782.93451,1643042789.98368,1643042789.98573,1643042792.08446,1643042795.58577,1643042795.58794,1643042796.10125,1643042796.08595,1643043019.61932,1
100,4,2,3,21,6,3,c3_HowFace,1,open mouth?,78,F_692.jpg,1643042412.38228,1643042412.38466,367.788774242401,7.04325556755066,374.841403474808,376.942187299728,0.3,381.260464897156,0.650241136550903,381.91326593399,1,left,0.632865905761719,381.910706033707,604.477040519714,607.237040519714,1643042782.93105,1643042782.93451,1643042789.98368,1643042789.98573,1643042792.08446,1643042796.40274,1643042796.40477,1643042797.05554,1643042797.05298,1643043019.61932,1
100,4,2,3,21,7,3,c3_HowFace,1,open mouth?,75,F_086.jpg,1643042412.38228,1643042412.38466,367.788774242401,7.04325556755066,374.841403474808,376.942187299728,0.3,382.227491369247,0.650243043899536,382.880211820602,1,left,0.623805046081543,382.877734413147,604.477040519714,607.237040519714,1643042782.93105,1643042782.93451,1643042789.98368,1643042789.98573,1643042792.08446,1643042797.36977,1643042797.3724,1643042798.02249,1643042798.02001,1643043019.61932,1
100,4,2,3,21,8,3,c3_HowFace,2,open mouth?,76,F_544.jpg,1643042412.38228,1643042412.38466,367.788774242401,7.04325556755066,374.841403474808,376.942187299728,0.3,383.194518795013,0.700261831283569,383.897037973404,3,right,0.676702976226807,383.894780626297,604.477040519714,607.237040519714,1643042782.93105,1643042782.93451,1643042789.98368,1643042789.98573,1643042792.08446,1643042798.33679,1643042798.33899,1643042799.03931,1643042799.03706,1643043019.61932,0
100,4,2,3,22,1,1,c1_WhyFace,1,argument?,42,F_403.jpg,1643042412.38228,1643042412.38466,384.011489858627,9.49655103683472,393.515034427643,395.615818729401,2.10078430175781,395.765873422623,0.733607769012451,396.501755943298,1,left,0.700713872909546,396.499481191635,604.477040519714,607.237040519714,1643042799.15376,1643042799.15623,1643042808.65731,1643042808.66771,1643042810.75809,1643042810.90815,1643042810.91797,1643042811.64403,1643042811.64176,1643043019.61932,1
100,4,2,3,22,2,1,c1_WhyFace,2,argument?,46,F_844.jpg,1643042412.38228,1643042412.38466,384.011489858627,9.49655103683472,393.515034427643,395.615818729401,0.3,396.816266050339,0.566877365112305,397.385425796509,3,right,0.546044111251831,397.383143415451,604.477040519714,607.237040519714,1643042799.15376,1643042799.15623,1643042808.65731,1643042808.66771,1643042810.75809,1643042811.95854,1643042811.96057,1643042812.5277,1643042812.52542,1643043019.61932,0
100,4,2,3,22,3,1,c1_WhyFace,1,argument?,41,F_712.jpg,1643042412.38228,1643042412.38466,384.011489858627,9.49655103683472,393.515034427643,395.615818729401,0.3,397.699928750992,1.3004846572876,399.009459009171,1,left,1.28655695915222,399.000413408279,604.477040519714,607.237040519714,1643042799.15376,1643042799.15623,1643042808.65731,1643042808.66771,1643042810.75809,1643042812.8422,1643042812.84436,1643042814.15173,1643042814.14269,1643043019.61932,1
100,4,2,3,22,4,1,c1_WhyFace,1,argument?,48,F_758.jpg,1643042412.38228,1643042412.38466,384.011489858627,9.49655103683472,393.515034427643,395.615818729401,0.3,399.317198505402,0.716933727264404,400.042323818207,1,left,0.700744152069092,400.034132232666,604.477040519714,607.237040519714,1643042799.15376,1643042799.15623,1643042808.65731,1643042808.66771,1643042810.75809,1643042814.45947,1643042814.46166,1643042815.1846,1643042815.17641,1643043019.61932,1
100,4,2,3,22,5,1,c1_WhyFace,2,argument?,45,F_433.jpg,1643042412.38228,1643042412.38466,384.011489858627,9.49655103683472,393.515034427643,395.615818729401,0.3,400.350916852951,1.11708402633667,401.475387802124,3,right,1.09691309928894,401.468000879288,604.477040519714,607.237040519714,1643042799.15376,1643042799.15623,1643042808.65731,1643042808.66771,1643042810.75809,1643042815.49319,1643042815.49549,1643042816.61766,1643042816.61028,1643043019.61932,0
100,4,2,3,22,6,1,c1_WhyFace,1,argument?,43,F_716.jpg,1643042412.38228,1643042412.38466,384.011489858627,9.49655103683472,393.515034427643,395.615818729401,0.3,401.784785737991,0.933680772781372,402.720418920517,1,left,0.912138938903809,402.718466510773,604.477040519714,607.237040519714,1643042799.15376,1643042799.15623,1643042808.65731,1643042808.66771,1643042810.75809,1643042816.92706,1643042816.92919,1643042817.86269,1643042817.86074,1643043019.61932,1
100,4,2,3,22,7,1,c1_WhyFace,2,argument?,44,F_139.jpg,1643042412.38228,1643042412.38466,384.011489858627,9.49655103683472,393.515034427643,395.615818729401,0.3,403.035251607895,0.650243043899536,403.692036857605,3,right,0.638248205184937,403.685494651794,604.477040519714,607.237040519714,1643042799.15376,1643042799.15623,1643042808.65731,1643042808.66771,1643042810.75809,1643042818.17753,1643042818.17945,1643042818.83431,1643042818.82777,1643043019.61932,0
100,4,2,3,22,8,1,c1_WhyFace,1,argument?,47,F_743.jpg,1643042412.38228,1643042412.38466,384.011489858627,9.49655103683472,393.515034427643,395.615818729401,0.3,404.002278079987,0.700262308120728,404.708817949295,1,left,0.683413028717041,404.702540388107,604.477040519714,607.237040519714,1643042799.15376,1643042799.15623,1643042808.65731,1643042808.66771,1643042810.75809,1643042819.14455,1643042819.14635,1643042819.85109,1643042819.84482,1643043019.61932,1
100,4,2,3,23,1,2,c2_WhyHand,1,helping?,39,H_024.jpg,1643042412.38228,1643042412.38466,404.819250097275,6.90907287597656,411.738497486115,413.839280595779,2.10078310966492,413.989336004257,1.21712160110474,415.208674898148,1,left,1.20031785964966,415.206457605362,604.477040519714,607.237040519714,1643042819.96153,1643042819.96782,1643042826.88077,1643042826.88428,1643042828.98156,1643042829.13161,1643042829.1342,1643042830.35095,1643042830.34873,1643043019.61932,1
100,4,2,3,23,2,2,c2_WhyHand,1,helping?,36,H_349.jpg,1643042412.38228,1643042412.38466,404.819250097275,6.90907287597656,411.738497486115,413.839280595779,0.3,415.523242225647,1.00037288665771,416.525982847214,1,left,0.982471942901611,416.523615112305,604.477040519714,607.237040519714,1643042819.96153,1643042819.96782,1643042826.88077,1643042826.88428,1643042828.98156,1643042830.66552,1643042830.66743,1643042831.66826,1643042831.66589,1643043019.61932,1
100,4,2,3,23,3,2,c2_WhyHand,1,helping?,38,H_077.jpg,1643042412.38228,1643042412.38466,404.819250097275,6.90907287597656,411.738497486115,413.839280595779,0.3,416.84039973259,0.633570194244385,417.476024856567,1,left,0.617142915725708,417.473969926834,604.477040519714,607.237040519714,1643042819.96153,1643042819.96782,1643042826.88077,1643042826.88428,1643042828.98156,1643042831.98267,1643042831.98474,1643042832.6183,1643042832.61625,1643043019.61932,1
100,4,2,3,23,4,2,c2_WhyHand,1,helping?,37,H_474.jpg,1643042412.38228,1643042412.38466,404.819250097275,6.90907287597656,411.738497486115,413.839280595779,0.3,417.790753593445,0.683589458465576,418.477160921097,1,left,0.663179874420166,418.47434305191,604.477040519714,607.237040519714,1643042819.96153,1643042819.96782,1643042826.88077,1643042826.88428,1643042828.98156,1643042832.93303,1643042832.93532,1643042833.61944,1643042833.61662,1643043019.61932,1
100,4,2,3,23,5,2,c2_WhyHand,2,helping?,33,H_091.jpg,1643042412.38228,1643042412.38466,404.819250097275,6.90907287597656,411.738497486115,413.839280595779,0.3,418.791127910614,0.700260639190674,419.508853902817,3,right,0.690171957015991,419.491388549805,604.477040519714,607.237040519714,1643042819.96153,1643042819.96782,1643042826.88077,1643042826.88428,1643042828.98156,1643042833.9334,1643042833.93552,1643042834.65113,1643042834.63366,1643043019.61932,0
100,4,2,3,23,6,2,c2_WhyHand,2,helping?,35,H_159.jpg,1643042412.38228,1643042412.38466,404.819250097275,6.90907287597656,411.738497486115,413.839280595779,0.3,419.80817317009,0.81697154045105,420.627424945831,3,right,0.800417900085449,420.625144710541,604.477040519714,607.237040519714,1643042819.96153,1643042819.96782,1643042826.88077,1643042826.88428,1643042828.98156,1643042834.95045,1643042834.9523,1643042835.7697,1643042835.76742,1643043019.61932,0
100,4,2,3,23,7,2,c2_WhyHand,1,helping?,34,H_111.jpg,1643042412.38228,1643042412.38466,404.819250097275,6.90907287597656,411.738497486115,413.839280595779,0.3,420.941929569244,0.63356876373291,421.577765932083,1,left,0.613749027252197,421.575498332977,604.477040519714,607.237040519714,1643042819.96153,1643042819.96782,1643042826.88077,1643042826.88428,1643042828.98156,1643042836.0842,1643042836.08623,1643042836.72004,1643042836.71777,1643043019.61932,1
100,4,2,3,23,8,2,c2_WhyHand,2,helping?,40,H_012.jpg,1643042412.38228,1643042412.38466,404.819250097275,6.90907287597656,411.738497486115,413.839280595779,0.3,421.892283906937,0.766952514648438,422.675446977615,3,right,0.756277084350586,422.659236421585,604.477040519714,607.237040519714,1643042819.96153,1643042819.96782,1643042826.88077,1643042826.88428,1643042828.98156,1643042837.03456,1643042837.03668,1643042837.81772,1643042837.80151,1643043019.61932,0
100,4,2,3,24,1,4,c4_HowHand,1,both hands?,122,H_111.jpg,1643042412.38228,1643042412.38466,422.792619218826,7.00538873672485,429.81190322876,431.912687292099,2.10078406333923,432.062743177414,0.566878318786621,432.642084827423,1,left,0.556374788284302,432.629621496201,604.477040519714,607.237040519714,1643042837.93489,1643042837.93729,1643042844.95418,1643042844.95633,1643042847.05496,1643042847.20502,1643042847.20723,1643042847.78436,1643042847.7719,1643043019.61932,1
100,4,2,3,24,2,4,c4_HowHand,1,both hands?,128,H_027.jpg,1643042412.38228,1643042412.38466,422.792619218826,7.00538873672485,429.81190322876,431.912687292099,0.3,432.946406354904,0.716933727264404,433.675792922974,1,left,0.707282066345215,433.663340082169,604.477040519714,607.237040519714,1643042837.93489,1643042837.93729,1643042844.95418,1643042844.95633,1643042847.05496,1643042848.08868,1643042848.0905,1643042848.81807,1643042848.80562,1643043019.61932,1
100,4,2,3,24,3,4,c4_HowHand,2,both hands?,121,H_091.jpg,1643042412.38228,1643042412.38466,422.792619218826,7.00538873672485,429.81190322876,431.912687292099,0.3,433.980125417709,0.650242567062378,434.632785787582,3,right,0.633579969406128,434.630367984772,604.477040519714,607.237040519714,1643042837.93489,1643042837.93729,1643042844.95418,1643042844.95633,1643042847.05496,1643042849.1224,1643042849.1245,1643042849.77506,1643042849.77264,1643043019.61932,0
100,4,2,3,24,4,4,c4_HowHand,1,both hands?,123,H_167.jpg,1643042412.38228,1643042412.38466,422.792619218826,7.00538873672485,429.81190322876,431.912687292099,0.3,434.94715212822,0.650242805480957,435.599613895416,1,left,0.626533031463623,435.597394933701,604.477040519714,607.237040519714,1643042837.93489,1643042837.93729,1643042844.95418,1643042844.95633,1643042847.05496,1643042850.08943,1643042850.09137,1643042850.74189,1643042850.73967,1643043019.61932,1
100,4,2,3,24,5,4,c4_HowHand,1,both hands?,124,H_581.jpg,1643042412.38228,1643042412.38466,422.792619218826,7.00538873672485,429.81190322876,431.912687292099,0.3,435.914179315567,0.900335788726807,436.825523843765,1,left,0.886107921600342,436.814515104294,604.477040519714,607.237040519714,1643042837.93489,1643042837.93729,1643042844.95418,1643042844.95633,1643042847.05496,1643042851.05645,1643042851.05863,1643042851.9678,1643042851.95679,1643043019.61932,1
100,4,2,3,24,6,4,c4_HowHand,2,both hands?,126,H_159.jpg,1643042412.38228,1643042412.38466,422.792619218826,7.00538873672485,429.81190322876,431.912687292099,0.3,437.131299009323,0.666916370391846,437.809001913071,3,right,0.655277013778687,437.798215379715,604.477040519714,607.237040519714,1643042837.93489,1643042837.93729,1643042844.95418,1643042844.95633,1643042847.05496,1643042852.27357,1643042852.27571,1643042852.95128,1643042852.94049,1643043019.61932,0
100,4,2,3,24,7,4,c4_HowHand,1,both hands?,127,H_349.jpg,1643042412.38228,1643042412.38466,422.792619218826,7.00538873672485,429.81190322876,431.912687292099,0.3,438.115000238419,0.65024209022522,438.775571813583,1,left,0.638615846633911,438.765242328644,604.477040519714,607.237040519714,1643042837.93489,1643042837.93729,1643042844.95418,1643042844.95633,1643042847.05496,1643042853.25728,1643042853.25948,1643042853.91785,1643042853.90752,1643043019.61932,1
100,4,2,3,24,8,4,c4_HowHand,2,both hands?,125,H_627.jpg,1643042412.38228,1643042412.38466,422.792619218826,7.00538873672485,429.81190322876,431.912687292099,0.3,439.082027664185,0.833643674850464,439.925836791992,3,right,0.815453052520752,439.915671339035,604.477040519714,607.237040519714,1643042837.93489,1643042837.93729,1643042844.95418,1643042844.95633,1643042847.05496,1643042854.2243,1643042854.22639,1643042855.06811,1643042855.05795,1643043019.61932,0
100,4,2,3,25,1,2,c2_WhyHand,1,healthy?,18,H_438.jpg,1643042412.38228,1643042412.38466,440.065727701187,7.24933815002441,447.335106124878,449.419215908051,2.08410978317261,449.569271316528,0.7169349193573,450.292078008652,1,left,0.698225975036621,450.286206235886,604.477040519714,607.237040519714,1643042855.208,1643042855.21032,1643042862.47738,1643042862.47942,1643042864.56149,1643042864.71155,1643042864.71751,1643042865.43435,1643042865.42848,1643043019.61932,1
100,4,2,3,25,2,2,c2_WhyHand,1,healthy?,23,H_364.jpg,1643042412.38228,1643042412.38466,440.065727701187,7.24933815002441,447.335106124878,449.419215908051,0.3,450.602990379334,0.883662939071655,451.491886844635,1,left,0.870800971984863,451.486653318405,604.477040519714,607.237040519714,1643042855.208,1643042855.21032,1643042862.47738,1643042862.47942,1643042864.56149,1643042865.74527,1643042865.75113,1643042866.63416,1643042866.62893,1643043019.61932,1
100,4,2,3,25,3,2,c2_WhyHand,1,healthy?,17,H_362.jpg,1643042412.38228,1643042412.38466,440.065727701187,7.24933815002441,447.335106124878,449.419215908051,0.3,451.803438653946,0.750280380249023,452.55883597374,1,left,0.724551916122437,452.553719034195,604.477040519714,607.237040519714,1643042855.208,1643042855.21032,1643042862.47738,1643042862.47942,1643042864.56149,1643042866.94571,1643042866.95107,1643042867.70111,1643042867.69599,1643043019.61932,1
100,4,2,3,25,4,2,c2_WhyHand,2,healthy?,24,H_019.jpg,1643042412.38228,1643042412.38466,440.065727701187,7.24933815002441,447.335106124878,449.419215908051,0.3,452.870502700806,0.783625841140747,453.658916940689,3,right,0.758881807327271,453.654128541946,604.477040519714,607.237040519714,1643042855.208,1643042855.21032,1643042862.47738,1643042862.47942,1643042864.56149,1643042868.01278,1643042868.01788,1643042868.80119,1643042868.7964,1643043019.61932,0
100,4,2,3,25,5,2,c2_WhyHand,1,healthy?,19,H_167.jpg,1643042412.38228,1643042412.38466,440.065727701187,7.24933815002441,447.335106124878,449.419215908051,0.3,453.970913639069,0.650241851806641,454.625426998138,1,left,0.634387016296387,454.621155490875,604.477040519714,607.237040519714,1643042855.208,1643042855.21032,1643042862.47738,1643042862.47942,1643042864.56149,1643042869.11319,1643042869.11745,1643042869.7677,1643042869.76343,1643043019.61932,1
100,4,2,3,25,6,2,c2_WhyHand,2,healthy?,20,H_007.jpg,1643042412.38228,1643042412.38466,440.065727701187,7.24933815002441,447.335106124878,449.419215908051,0.3,454.937940587997,0.700261354446411,455.642009963989,3,right,0.673882961273193,455.638201942444,604.477040519714,607.237040519714,1643042855.208,1643042855.21032,1643042862.47738,1643042862.47942,1643042864.56149,1643042870.08022,1643042870.08467,1643042870.78429,1643042870.78048,1643043019.61932,0
100,4,2,3,25,7,2,c2_WhyHand,1,healthy?,21,H_627.jpg,1643042412.38228,1643042412.38466,440.065727701187,7.24933815002441,447.335106124878,449.419215908051,0.3,455.954986085892,0.983700513839722,456.942186822891,3,right,0.958938121795654,456.938686599731,604.477040519714,607.237040519714,1643042855.208,1643042855.21032,1643042862.47738,1643042862.47942,1643042864.56149,1643042871.09726,1643042871.10089,1643042872.08446,1643042872.08096,1643043019.61932,0
100,4,2,3,25,8,2,c2_WhyHand,2,healthy?,22,H_130.jpg,1643042412.38228,1643042412.38466,440.065727701187,7.24933815002441,447.335106124878,449.419215908051,0.3,457.255471458435,1.51723313331604,458.775392999649,3,right,1.49860215187073,458.772704591751,604.477040519714,607.237040519714,1643042855.208,1643042855.21032,1643042862.47738,1643042862.47942,1643042864.56149,1643042872.39775,1643042872.40106,1643042873.91767,1643042873.91498,1643043019.61932,0
100,4,2,3,26,1,4,c4_HowHand,1,pressing button?,82,H_126.jpg,1643042412.38228,1643042412.38466,458.889415016174,7.47977995872498,466.375539770126,468.476322879791,2.10078310966492,468.626378288269,0.533533096313477,469.162224998474,1,left,0.509093999862671,469.159911384583,604.477040519714,607.237040519714,1643042874.03169,1643042874.03441,1643042881.51781,1643042881.51963,1643042883.6186,1643042883.76865,1643042883.77066,1643042884.3045,1643042884.30219,1643043019.61932,1
100,4,2,3,26,2,4,c4_HowHand,2,pressing button?,85,H_130.jpg,1643042412.38228,1643042412.38466,458.889415016174,7.47977995872498,466.375539770126,468.476322879791,0.3,469.47669552803,0.566879034042358,470.046163787842,3,right,0.549664974212646,470.043574562073,604.477040519714,607.237040519714,1643042874.03169,1643042874.03441,1643042881.51781,1643042881.51963,1643042883.6186,1643042884.61897,1643042884.62122,1643042885.18844,1643042885.18585,1643043019.61932,0
100,4,2,3,26,3,4,c4_HowHand,1,pressing button?,84,H_483.jpg,1643042412.38228,1643042412.38466,458.889415016174,7.47977995872498,466.375539770126,468.476322879791,0.3,470.360358467102,0.55020546913147,470.926014890671,1,left,0.541347026824951,470.910563936234,604.477040519714,607.237040519714,1643042874.03169,1643042874.03441,1643042881.51781,1643042881.51963,1643042883.6186,1643042885.50263,1643042885.5047,1643042886.06829,1643042886.05284,1643043019.61932,1
100,4,2,3,26,4,4,c4_HowHand,2,pressing button?,87,H_024.jpg,1643042412.38228,1643042412.38466,458.889415016174,7.47977995872498,466.375539770126,468.476322879791,0.3,471.227349033356,0.566877365112305,471.796529998779,3,right,0.544220924377441,471.794226398468,604.477040519714,607.237040519714,1643042874.03169,1643042874.03441,1643042881.51781,1643042881.51963,1643042883.6186,1643042886.36962,1643042886.37182,1643042886.93881,1643042886.9365,1643043019.61932,0
100,4,2,3,26,5,4,c4_HowHand,1,pressing button?,86,H_332.jpg,1643042412.38228,1643042412.38466,458.889415016174,7.47977995872498,466.375539770126,468.476322879791,0.3,472.11101149559,0.566877603530884,472.692250003815,1,left,0.553562879562378,472.677889099121,604.477040519714,607.237040519714,1643042874.03169,1643042874.03441,1643042881.51781,1643042881.51963,1643042883.6186,1643042887.25329,1643042887.25575,1643042887.83453,1643042887.82016,1643043019.61932,1
100,4,2,3,26,6,4,c4_HowHand,1,pressing button?,88,H_019.jpg,1643042412.38228,1643042412.38466,458.889415016174,7.47977995872498,466.375539770126,468.476322879791,0.3,472.99467467308,0.61689567565918,473.614139785767,1,left,0.595515012741089,473.61157034874,604.477040519714,607.237040519714,1643042874.03169,1643042874.03441,1643042881.51781,1643042881.51963,1643042883.6186,1643042888.13695,1643042888.13907,1643042888.75641,1643042888.75385,1643043019.61932,1
100,4,2,3,26,7,4,c4_HowHand,2,pressing button?,81,H_261.jpg,1643042412.38228,1643042412.38466,458.889415016174,7.47977995872498,466.375539770126,468.476322879791,0.3,473.928355207443,0.600224256515503,474.530414810181,3,right,0.577674150466919,474.528579463959,604.477040519714,607.237040519714,1643042874.03169,1643042874.03441,1643042881.51781,1643042881.51963,1643042883.6186,1643042889.07063,1643042889.07277,1643042889.67269,1643042889.67085,1643043019.61932,0
100,4,2,3,26,8,4,c4_HowHand,1,pressing button?,83,H_502.jpg,1643042412.38228,1643042412.38466,458.889415016174,7.47977995872498,466.375539770126,468.476322879791,0.3,474.845364084244,0.583550930023193,475.431478967667,1,left,0.561640977859497,475.428915014267,604.477040519714,607.237040519714,1643042874.03169,1643042874.03441,1643042881.51781,1643042881.51963,1643042883.6186,1643042889.98764,1643042889.98994,1643042890.57375,1643042890.57119,1643043019.61932,1
100,4,2,3,27,1,3,c3_HowFace,1,looking at camera?,60,F_618.jpg,1643042412.38228,1643042412.38466,475.545625200272,8.35343480110168,483.915413370132,486.016196479797,2.10078310966492,486.166252603531,0.450167417526245,486.618665924072,1,left,0.42424488067627,486.616420021057,604.477040519714,607.237040519714,1643042890.6879,1643042890.69024,1643042899.05769,1643042899.06012,1643042901.15847,1643042901.30853,1643042901.31078,1643042901.76094,1643042901.7587,1643043019.61932,1
100,4,2,3,27,2,3,c3_HowFace,2,looking at camera?,58,F_754.jpg,1643042412.38228,1643042412.38466,475.545625200272,8.35343480110168,483.915413370132,486.016196479797,0.3,486.933205356598,0.600224494934082,487.542062988281,3,right,0.587432861328125,487.533429851532,604.477040519714,607.237040519714,1643042890.6879,1643042890.69024,1643042899.05769,1643042899.06012,1643042901.15847,1643042902.07548,1643042902.07771,1643042902.68434,1643042902.6757,1643043019.61932,0
100,4,2,3,27,3,3,c3_HowFace,1,looking at camera?,59,F_129.jpg,1643042412.38228,1643042412.38466,475.545625200272,8.35343480110168,483.915413370132,486.016196479797,0.3,487.850214471817,0.516859531402588,488.369547834396,1,left,0.49665093421936,488.36707400322,604.477040519714,607.237040519714,1643042890.6879,1643042890.69024,1643042899.05769,1643042899.06012,1643042901.15847,1643042902.99249,1643042902.99485,1643042903.51182,1643042903.50935,1643043019.61932,1
100,4,2,3,27,4,3,c3_HowFace,1,looking at camera?,62,F_598.jpg,1643042412.38228,1643042412.38466,475.545625200272,8.35343480110168,483.915413370132,486.016196479797,0.3,488.683858385086,0.716934204101562,489.408942928314,1,left,0.700425148010254,489.400792589188,604.477040519714,607.237040519714,1643042890.6879,1643042890.69024,1643042899.05769,1643042899.06012,1643042901.15847,1643042903.82613,1643042903.82894,1643042904.55122,1643042904.54307,1643043019.61932,1
100,4,2,3,27,5,3,c3_HowFace,1,looking at camera?,64,F_128.jpg,1643042412.38228,1643042412.38466,475.545625200272,8.35343480110168,483.915413370132,486.016196479797,0.3,489.717577447891,0.850316762924194,490.575399866104,1,left,0.832147121429443,490.567894210815,604.477040519714,607.237040519714,1643042890.6879,1643042890.69024,1643042899.05769,1643042899.06012,1643042901.15847,1643042904.85985,1643042904.86226,1643042905.71767,1643042905.71017,1643043019.61932,1
100,4,2,3,27,6,3,c3_HowFace,2,looking at camera?,57,F_582.jpg,1643042412.38228,1643042412.38466,475.545625200272,8.35343480110168,483.915413370132,486.016196479797,0.3,490.884679307938,0.917008876800537,491.809144964218,3,right,0.896889925003052,491.801688184738,604.477040519714,607.237040519714,1643042890.6879,1643042890.69024,1643042899.05769,1643042899.06012,1643042901.15847,1643042906.02695,1643042906.02957,1643042906.95142,1643042906.94396,1643043019.61932,0
100,4,2,3,27,7,3,c3_HowFace,1,looking at camera?,61,F_774.jpg,1643042412.38228,1643042412.38466,475.545625200272,8.35343480110168,483.915413370132,486.016196479797,0.3,492.118472328186,0.550205230712891,492.670907964706,1,left,0.523867845535278,492.668677558899,604.477040519714,607.237040519714,1643042890.6879,1643042890.69024,1643042899.05769,1643042899.06012,1643042901.15847,1643042907.26075,1643042907.26338,1643042907.81318,1643042907.81095,1643043019.61932,1
