src_subject_id,session_id,run_id,param_counterbalance_ver,param_block_num,param_trial_num,param_cond_type_num,param_cond_type_string,param_normative_response,param_ques_type_string,param_image_num,param_image_filename,param_trigger_onset,param_start_biopac,event01_fixation,event01_fixation_dur,event01_blockquestion_onset,event01_block_isi_blacksreen,event01_blockquestion_dur,event02_image_onset,event02_image_dur,event03_response_onset,event03_response_key,event03_response_keyname,event03_RT,event04_shortquestion_onset,param_end_instruct_onset,param_experiment_duration,RAW_e1_fixation,RAW_e1_fixation_biopac,RAW_e1_blockquestion_onset,RAW_e1_blockquestion_onset_biopac,RAW_e1_block_isi_blacksreen,RAW_e2_image_onset,RAW_e2_image_onset_biopac,RAW_e3_response_onset,RAW_e4_shortquestion_onset,RAW_param_end_instruct_onset,accuracy
50,4,2,3,1,1,4,c4_HowHand,1,reaching?,107,H_007.jpg,1629738092.85128,1629738092.85388,0.0154225730895994,0.054330587387085,0.0821144485473631,2.11620687484741,2.03409242630005,2.26626276016235,0.917007684707642,3.18811916351318,1,left,0.889122009277344,3.18327044486999,604.490845432282,607.250845432281,1629738095.6267,1629738095.63598,1629738095.6934,1629738095.69874,1629738097.72749,1629738097.87754,1629738097.88215,1629738098.7994,1629738098.79455,1629738700.10213,1
50,4,2,3,1,2,4,c4_HowHand,2,reaching?,108,H_532.jpg,1629738092.85128,1629738092.85388,0.0154225730895994,0.054330587387085,0.0821144485473631,2.11620687484741,0.3,3.50005554199219,1.40052199363708,4.90463708877563,3,right,1.38021206855774,4.90057753562927,604.490845432282,607.250845432281,1629738095.6267,1629738095.63598,1629738095.6934,1629738095.69874,1629738097.72749,1629738099.11134,1629738099.11561,1629738100.51592,1629738100.51186,1629738700.10213,0
50,4,2,3,1,3,4,c4_HowHand,1,reaching?,109,H_474.jpg,1629738092.85128,1629738092.85388,0.0154225730895994,0.054330587387085,0.0821144485473631,2.11620687484741,0.3,5.21736239433289,1.71730709075928,6.97252606391907,3,right,1.72637982368469,6.93466948509216,604.490845432282,607.250845432281,1629738095.6267,1629738095.63598,1629738095.6934,1629738095.69874,1629738097.72749,1629738100.82864,1629738100.83241,1629738102.58381,1629738102.54595,1629738700.10213,0
50,4,2,3,1,4,4,c4_HowHand,2,reaching?,105,H_438.jpg,1629738092.85128,1629738092.85388,0.0154225730895994,0.054330587387085,0.0821144485473631,2.11620687484741,0.3,7.25145482063293,1.40051960945129,8.65461110115051,3,right,1.38185620307922,8.65197443008423,604.490845432282,607.250845432281,1629738095.6267,1629738095.63598,1629738095.6934,1629738095.69874,1629738097.72749,1629738102.86274,1629738102.86562,1629738104.26589,1629738104.26326,1629738700.10213,0
50,4,2,3,1,5,4,c4_HowHand,1,reaching?,110,H_364.jpg,1629738092.85128,1629738092.85388,0.0154225730895994,0.054330587387085,0.0821144485473631,2.11620687484741,0.3,8.96876143455505,1.08373761177063,10.0575580501556,1,left,1.05596685409546,10.0524990463257,604.490845432282,607.250845432281,1629738095.6267,1629738095.63598,1629738095.6934,1629738095.69874,1629738097.72749,1629738104.58004,1629738104.58393,1629738105.66884,1629738105.66378,1629738700.10213,1
50,4,2,3,1,6,4,c4_HowHand,1,reaching?,106,H_006.jpg,1629738092.85128,1629738092.85388,0.0154225730895994,0.054330587387085,0.0821144485473631,2.11620687484741,0.3,10.3692839050293,1.0003719329834,11.3720161819458,1,left,0.976140022277832,11.3696558380127,604.490845432282,607.250845432281,1629738095.6267,1629738095.63598,1629738095.6934,1629738095.69874,1629738097.72749,1629738105.98056,1629738105.98264,1629738106.9833,1629738106.98094,1629738700.10213,1
50,4,2,3,1,7,4,c4_HowHand,1,reaching?,111,H_003.jpg,1629738092.85128,1629738092.85388,0.0154225730895994,0.054330587387085,0.0821144485473631,2.11620687484741,0.3,11.6864418888092,1.01704573631287,12.7054591083527,1,left,1.00587201118469,12.7034876251221,604.490845432282,607.250845432281,1629738095.6267,1629738095.63598,1629738095.6934,1629738095.69874,1629738097.72749,1629738107.29772,1629738107.3,1629738108.31674,1629738108.31477,1629738700.10213,1
50,4,2,3,1,8,4,c4_HowHand,2,reaching?,112,H_132.jpg,1629738092.85128,1629738092.85388,0.0154225730895994,0.054330587387085,0.0821144485473631,2.11620687484741,0.3,13.0202727222443,0.967026233673096,13.9893431568146,3,right,0.948728084564209,13.9872989559174,604.490845432282,607.250845432281,1629738095.6267,1629738095.63598,1629738095.6934,1629738095.69874,1629738097.72749,1629738108.63155,1629738108.63362,1629738109.60062,1629738109.59858,1629738700.10213,0
50,4,2,3,2,1,2,c2_WhyHand,1,healthy?,21,H_627.jpg,1629738092.85128,1629738092.85388,14.1707022094727,3.36053586006165,17.538624753952,19.6394073867798,2.10078263282776,19.7894635105133,0.96702766418457,20.7589411640167,1,left,0.949218034744263,20.7564911746979,604.490845432282,607.250845432281,1629738109.78198,1629738109.78449,1629738113.14991,1629738113.15215,1629738115.25069,1629738115.40074,1629738115.40316,1629738116.37022,1629738116.36777,1629738700.10213,1
50,4,2,3,2,2,2,c2_WhyHand,1,healthy?,18,H_438.jpg,1629738092.85128,1629738092.85388,14.1707022094727,3.36053586006165,17.538624753952,19.6394073867798,0.3,21.0732760334015,1.10041046142578,22.1874229812622,1,left,1.08656191825867,22.1736864948273,604.490845432282,607.250845432281,1629738109.78198,1629738109.78449,1629738113.14991,1629738113.15215,1629738115.25069,1629738116.68456,1629738116.68722,1629738117.7987,1629738117.78497,1629738700.10213,1
50,4,2,3,2,3,2,c2_WhyHand,1,healthy?,23,H_364.jpg,1629738092.85128,1629738092.85388,14.1707022094727,3.36053586006165,17.538624753952,19.6394073867798,0.3,22.4904706382751,1.06706547737122,23.5606760883331,1,left,1.04363107681274,23.5575361156464,604.490845432282,607.250845432281,1629738109.78198,1629738109.78449,1629738113.14991,1629738113.15215,1629738115.25069,1629738118.10175,1629738118.10415,1629738119.17196,1629738119.16882,1629738700.10213,1
50,4,2,3,2,4,2,c2_WhyHand,2,healthy?,22,H_130.jpg,1629738092.85128,1629738092.85388,14.1707022094727,3.36053586006165,17.538624753952,19.6394073867798,0.3,23.8743202590942,1.23379349708557,25.110227098465,3,right,1.20949697494507,25.1081137561798,604.490845432282,607.250845432281,1629738109.78198,1629738109.78449,1629738113.14991,1629738113.15215,1629738115.25069,1629738119.4856,1629738119.48762,1629738120.72151,1629738120.71939,1629738700.10213,0
50,4,2,3,2,5,2,c2_WhyHand,1,healthy?,17,H_362.jpg,1629738092.85128,1629738092.85388,14.1707022094727,3.36053586006165,17.538624753952,19.6394073867798,0.3,25.4248993301392,1.08373665809631,26.511054983139,1,left,1.06142020225525,26.5086359882355,604.490845432282,607.250845432281,1629738109.78198,1629738109.78449,1629738113.14991,1629738113.15215,1629738115.25069,1629738121.03618,1629738121.03866,1629738122.12234,1629738122.11992,1629738700.10213,1
50,4,2,3,2,6,2,c2_WhyHand,2,healthy?,20,H_007.jpg,1629738092.85128,1629738092.85388,14.1707022094727,3.36053586006165,17.538624753952,19.6394073867798,0.3,26.8254208469391,1.10041069984436,27.9376251602173,1,left,1.08677983283997,27.9258315467834,604.490845432282,607.250845432281,1629738109.78198,1629738109.78449,1629738113.14991,1629738113.15215,1629738115.25069,1629738122.4367,1629738122.43881,1629738123.54891,1629738123.53711,1629738700.10213,0
50,4,2,3,2,7,2,c2_WhyHand,1,healthy?,19,H_167.jpg,1629738092.85128,1629738092.85388,14.1707022094727,3.36053586006165,17.538624753952,19.6394073867798,0.3,28.2426152133942,1.10041117668152,29.3540539646149,1,left,1.08807802200317,29.3430263900757,604.490845432282,607.250845432281,1629738109.78198,1629738109.78449,1629738113.14991,1629738113.15215,1629738115.25069,1629738123.8539,1629738123.85679,1629738124.96533,1629738124.95431,1629738700.10213,1
50,4,2,3,2,8,2,c2_WhyHand,2,healthy?,24,H_019.jpg,1629738092.85128,1629738092.85388,14.1707022094727,3.36053586006165,17.538624753952,19.6394073867798,0.3,29.6598117256165,0.967026710510254,30.6376821899414,3,right,0.95119309425354,30.6268384361267,604.490845432282,607.250845432281,1629738109.78198,1629738109.78449,1629738113.14991,1629738113.15215,1629738115.25069,1629738125.27109,1629738125.27311,1629738126.24896,1629738126.23812,1629738700.10213,0
50,4,2,3,3,1,1,c1_WhyFace,1,admiring?,4,F_779.jpg,1629738092.85128,1629738092.85388,30.7435483837128,5.89575171470642,36.6457502746582,38.7465321922302,2.10078191757202,38.8965895080566,0.666914701461792,39.5656931304932,1,left,0.635696887969971,39.5635042095184,604.490845432282,607.250845432281,1629738126.35483,1629738126.3579,1629738132.25703,1629738132.26545,1629738134.35781,1629738134.50787,1629738134.51524,1629738135.17697,1629738135.17479,1629738700.10213,1
50,4,2,3,3,2,1,c1_WhyFace,1,admiring?,1,F_593.jpg,1629738092.85128,1629738092.85388,30.7435483837128,5.89575171470642,36.6457502746582,38.7465321922302,0.3,39.8802895450592,0.93368124961853,40.8210530185699,1,left,0.918283939361572,40.8139707946777,604.490845432282,607.250845432281,1629738126.35483,1629738126.3579,1629738132.25703,1629738132.26545,1629738134.35781,1629738135.49157,1629738135.49359,1629738136.43233,1629738136.42525,1629738700.10213,1
50,4,2,3,3,3,1,c1_WhyFace,2,admiring?,3,F_110.jpg,1629738092.85128,1629738092.85388,30.7435483837128,5.89575171470642,36.6457502746582,38.7465321922302,0.3,41.1307554149628,0.900336503982544,42.0376791858673,3,right,0.878843069076538,42.0310919189453,604.490845432282,607.250845432281,1629738126.35483,1629738126.3579,1629738132.25703,1629738132.26545,1629738134.35781,1629738136.74204,1629738136.74421,1629738137.64896,1629738137.64237,1629738700.10213,0
50,4,2,3,3,4,1,c1_WhyFace,1,admiring?,8,F_590.jpg,1629738092.85128,1629738092.85388,30.7435483837128,5.89575171470642,36.6457502746582,38.7465321922302,0.3,42.3478763008118,0.866990089416504,43.2218460941315,1,left,0.845695972442627,43.2148663902283,604.490845432282,607.250845432281,1629738126.35483,1629738126.3579,1629738132.25703,1629738132.26545,1629738134.35781,1629738137.95916,1629738137.96115,1629738138.83313,1629738138.82615,1629738700.10213,1
50,4,2,3,3,5,1,c1_WhyFace,2,admiring?,6,F_692.jpg,1629738092.85128,1629738092.85388,30.7435483837128,5.89575171470642,36.6457502746582,38.7465321922302,0.3,43.5316510105133,1.05039095878601,44.5873000526428,3,right,1.0361111164093,44.5820419692993,604.490845432282,607.250845432281,1629738126.35483,1629738126.3579,1629738132.25703,1629738132.26545,1629738134.35781,1629738139.14293,1629738139.14871,1629738140.19858,1629738140.19332,1629738700.10213,0
50,4,2,3,3,6,1,c1_WhyFace,1,admiring?,5,F_759.jpg,1629738092.85128,1629738092.85388,30.7435483837128,5.89575171470642,36.6457502746582,38.7465321922302,0.3,44.8988273048401,0.967026948928833,45.8709220790863,1,left,0.947417974472046,45.8658542537689,604.490845432282,607.250845432281,1629738126.35483,1629738126.3579,1629738132.25703,1629738132.26545,1629738134.35781,1629738140.51011,1629738140.51536,1629738141.4822,1629738141.47714,1629738700.10213,1
50,4,2,3,3,7,1,c1_WhyFace,1,admiring?,7,F_648.jpg,1629738092.85128,1629738092.85388,30.7435483837128,5.89575171470642,36.6457502746582,38.7465321922302,0.3,46.1826400661469,1.00037217140198,47.1879320049286,1,left,0.983767986297607,47.1830122375488,604.490845432282,607.250845432281,1629738126.35483,1629738126.3579,1629738132.25703,1629738132.26545,1629738134.35781,1629738141.79392,1629738141.79849,1629738142.79921,1629738142.79429,1629738700.10213,1
50,4,2,3,3,8,1,c1_WhyFace,2,admiring?,2,F_129.jpg,1629738092.85128,1629738092.85388,30.7435483837128,5.89575171470642,36.6457502746582,38.7465321922302,0.3,47.4997978115082,0.983699560165405,48.4874319934845,3,right,0.960860967636108,48.4834973716736,604.490845432282,607.250845432281,1629738126.35483,1629738126.3579,1629738132.25703,1629738132.26545,1629738134.35781,1629738143.11108,1629738143.11538,1629738144.09871,1629738144.09478,1629738700.10213,0
50,4,2,3,4,1,3,c3_HowFace,1,smiling?,119,F_139.jpg,1629738092.85128,1629738092.85388,48.5835356616974,7.01973938941956,55.6194927597046,57.7202746772766,2.10078191757202,57.8703312778473,0.933681488037109,58.8067519569397,1,left,0.91960883140564,58.8040127658844,604.490845432282,607.250845432281,1629738144.19482,1629738144.19931,1629738151.23077,1629738151.23302,1629738153.33156,1629738153.48161,1629738153.48371,1629738154.41803,1629738154.41529,1629738700.10213,1
50,4,2,3,4,2,3,c3_HowFace,2,smiling?,113,F_712.jpg,1629738092.85128,1629738092.85388,48.5835356616974,7.01973938941956,55.6194927597046,57.7202746772766,0.3,59.1207981014252,0.783625602722168,59.9209570789337,3,right,0.772958040237427,59.9044237041473,604.490845432282,607.250845432281,1629738144.19482,1629738144.19931,1629738151.23077,1629738151.23302,1629738153.33156,1629738154.73208,1629738154.73413,1629738155.53224,1629738155.5157,1629738700.10213,0
50,4,2,3,4,3,3,c3_HowFace,1,smiling?,115,F_695.jpg,1629738092.85128,1629738092.85388,48.5835356616974,7.01973938941956,55.6194927597046,57.7202746772766,0.3,60.221208562851,0.866989374160767,61.0903170013428,1,left,0.852891206741333,61.0881979370117,604.490845432282,607.250845432281,1629738144.19482,1629738144.19931,1629738151.23077,1629738151.23302,1629738153.33156,1629738155.83249,1629738155.83464,1629738156.7016,1629738156.69948,1629738700.10213,1
50,4,2,3,4,4,3,c3_HowFace,2,smiling?,120,F_758.jpg,1629738092.85128,1629738092.85388,48.5835356616974,7.01973938941956,55.6194927597046,57.7202746772766,0.3,61.4049827957153,0.0166730880737305,61.423413028717,1,left,0.000421047210693359,61.4216558837891,604.490845432282,607.250845432281,1629738144.19482,1629738144.19931,1629738151.23077,1629738151.23302,1629738153.33156,1629738157.01626,1629738157.01825,1629738157.03469,1629738157.03294,1629738700.10213,0
50,4,2,3,4,5,3,c3_HowFace,1,smiling?,116,F_083.jpg,1629738092.85128,1629738092.85388,48.5835356616974,7.01973938941956,55.6194927597046,57.7202746772766,0.3,61.7384405040741,0.850316762924194,62.5906009578705,1,left,0.826389074325562,62.5887572669983,604.490845432282,607.250845432281,1629738144.19482,1629738144.19931,1629738151.23077,1629738151.23302,1629738153.33156,1629738157.34972,1629738157.35177,1629738158.20188,1629738158.20004,1629738700.10213,1
50,4,2,3,4,6,3,c3_HowFace,1,smiling?,118,F_759.jpg,1629738092.85128,1629738092.85388,48.5835356616974,7.01973938941956,55.6194927597046,57.7202746772766,0.3,62.9055430793762,0.866989612579346,63.7747690582275,1,left,0.852056980133057,63.7725326919556,604.490845432282,607.250845432281,1629738144.19482,1629738144.19931,1629738151.23077,1629738151.23302,1629738153.33156,1629738158.51682,1629738158.51909,1629738159.38605,1629738159.38381,1629738700.10213,1
50,4,2,3,4,7,3,c3_HowFace,2,smiling?,114,F_412.jpg,1629738092.85128,1629738092.85388,48.5835356616974,7.01973938941956,55.6194927597046,57.7202746772766,0.3,64.0893175506592,0.733607053756714,64.8374450111389,3,right,0.720262050628662,64.8229246044159,604.490845432282,607.250845432281,1629738144.19482,1629738144.19931,1629738151.23077,1629738151.23302,1629738153.33156,1629738159.7006,1629738159.70272,1629738160.44873,1629738160.43421,1629738700.10213,0
50,4,2,3,4,8,3,c3_HowFace,1,smiling?,117,F_593.jpg,1629738092.85128,1629738092.85388,48.5835356616974,7.01973938941956,55.6194927597046,57.7202746772766,0.3,65.1397097015381,0.78362512588501,65.9254770183563,1,left,0.764703035354614,65.9233348274231,604.490845432282,607.250845432281,1629738144.19482,1629738144.19931,1629738151.23077,1629738151.23302,1629738153.33156,1629738160.75099,1629738160.75302,1629738161.53676,1629738161.53462,1629738700.10213,1
50,4,2,3,5,1,4,c4_HowHand,1,lifting?,56,H_136.jpg,1629738092.85128,1629738092.85388,66.0066988372803,7.12739133834839,73.142693271637,75.2434766197205,2.1007833480835,75.3935322666168,0.967027425765991,76.3624250793457,1,left,0.93928599357605,76.3605596923828,604.490845432282,607.250845432281,1629738161.61798,1629738161.63323,1629738168.75397,1629738168.76682,1629738170.85476,1629738171.00481,1629738171.01541,1629738171.97371,1629738171.97184,1629738700.10213,1
50,4,2,3,5,2,4,c4_HowHand,2,lifting?,51,H_038.jpg,1629738092.85128,1629738092.85388,66.0066988372803,7.12739133834839,73.142693271637,75.2434766197205,0.3,76.6773445510864,0.933681726455688,77.6213841342926,3,right,0.92103910446167,77.6110262775421,604.490845432282,607.250845432281,1629738161.61798,1629738161.63323,1629738168.75397,1629738168.76682,1629738170.85476,1629738172.28863,1629738172.29116,1629738173.23267,1629738173.22231,1629738700.10213,0
50,4,2,3,5,3,4,c4_HowHand,1,lifting?,52,H_189.jpg,1629738092.85128,1629738092.85388,66.0066988372803,7.12739133834839,73.142693271637,75.2434766197205,0.3,77.9278118515015,1.16710162162781,79.1041810417175,3,right,1.15277099609375,79.0949134731293,604.490845432282,607.250845432281,1629738161.61798,1629738161.63323,1629738168.75397,1629738168.76682,1629738170.85476,1629738173.53909,1629738173.54121,1629738174.71546,1629738174.70619,1629738700.10213,0
50,4,2,3,5,4,4,c4_HowHand,2,lifting?,53,H_077.jpg,1629738092.85128,1629738092.85388,66.0066988372803,7.12739133834839,73.142693271637,75.2434766197205,0.3,79.4116973781586,0.983700752258301,80.4043459796905,3,right,0.964640140533447,80.3953981304169,604.490845432282,607.250845432281,1629738161.61798,1629738161.63323,1629738168.75397,1629738168.76682,1629738170.85476,1629738175.02298,1629738175.02512,1629738176.01563,1629738176.00668,1629738700.10213,0
50,4,2,3,5,5,4,c4_HowHand,1,lifting?,50,H_443.jpg,1629738092.85128,1629738092.85388,66.0066988372803,7.12739133834839,73.142693271637,75.2434766197205,0.3,80.7121834659576,1.08373665809631,81.8043329620361,1,left,1.06429982185364,81.7959201240539,604.490845432282,607.250845432281,1629738161.61798,1629738161.63323,1629738168.75397,1629738168.76682,1629738170.85476,1629738176.32346,1629738176.32561,1629738177.41561,1629738177.4072,1629738700.10213,1
50,4,2,3,5,6,4,c4_HowHand,2,lifting?,55,H_012.jpg,1629738092.85128,1629738092.85388,66.0066988372803,7.12739133834839,73.142693271637,75.2434766197205,0.3,82.1127052211761,0.850317239761353,82.9652690792084,3,right,0.825396060943604,82.9630224609375,604.490845432282,607.250845432281,1629738161.61798,1629738161.63323,1629738168.75397,1629738168.76682,1629738170.85476,1629738177.72399,1629738177.72606,1629738178.57655,1629738178.5743,1629738700.10213,0
50,4,2,3,5,7,4,c4_HowHand,1,lifting?,49,H_362.jpg,1629738092.85128,1629738092.85388,66.0066988372803,7.12739133834839,73.142693271637,75.2434766197205,0.3,83.2798075580597,0.900335311889648,84.1874370479584,1,left,0.881065130233765,84.1801428699493,604.490845432282,607.250845432281,1629738161.61798,1629738161.63323,1629738168.75397,1629738168.76682,1629738170.85476,1629738178.89109,1629738178.89319,1629738179.79872,1629738179.79142,1629738700.10213,1
50,4,2,3,5,8,4,c4_HowHand,1,lifting?,54,H_170.jpg,1629738092.85128,1629738092.85388,66.0066988372803,7.12739133834839,73.142693271637,75.2434766197205,0.3,84.4969279670715,0.900335788726807,85.4043290519714,1,left,0.887185096740723,85.3972637557983,604.490845432282,607.250845432281,1629738161.61798,1629738161.63323,1629738168.75397,1629738168.76682,1629738170.85476,1629738180.10821,1629738180.11007,1629738181.01561,1629738181.00854,1629738700.10213,1
50,4,2,3,6,1,2,c2_WhyHand,1,helping?,38,H_077.jpg,1629738092.85128,1629738092.85388,85.4973008537292,10.1177361011505,95.6344141864777,97.7185242080688,2.08411002159119,97.8685820007324,1.15042734146118,99.0209870243072,1,left,1.13882899284363,99.0190093421936,604.490845432282,607.250845432281,1629738181.10858,1629738181.11108,1629738191.2457,1629738191.2477,1629738193.32981,1629738193.47986,1629738193.48208,1629738194.63227,1629738194.63029,1629738700.10213,1
50,4,2,3,6,2,2,c2_WhyHand,1,helping?,36,H_349.jpg,1629738092.85128,1629738092.85388,85.4973008537292,10.1177361011505,95.6344141864777,97.7185242080688,0.3,99.3357949161529,0.900335311889648,100.238481035233,1,left,0.878782987594604,100.236130228043,604.490845432282,607.250845432281,1629738181.10858,1629738181.11108,1629738191.2457,1629738191.2477,1629738193.32981,1629738194.94708,1629738194.9494,1629738195.84976,1629738195.84741,1629738700.10213,1
50,4,2,3,6,3,2,c2_WhyHand,1,helping?,37,H_474.jpg,1629738092.85128,1629738092.85388,85.4973008537292,10.1177361011505,95.6344141864777,97.7185242080688,0.3,100.552915563583,1.00037240982056,101.555194129944,1,left,0.985107898712158,101.553287973404,604.490845432282,607.250845432281,1629738181.10858,1629738181.11108,1629738191.2457,1629738191.2477,1629738193.32981,1629738196.1642,1629738196.16685,1629738197.16648,1629738197.16457,1629738700.10213,1
50,4,2,3,6,4,2,c2_WhyHand,1,helping?,39,H_024.jpg,1629738092.85128,1629738092.85388,85.4973008537292,10.1177361011505,95.6344141864777,97.7185242080688,0.3,101.870073547363,0.933681488037109,102.805783977509,3,right,0.919946193695068,102.8037550354,604.490845432282,607.250845432281,1629738181.10858,1629738181.11108,1629738191.2457,1629738191.2477,1629738193.32981,1629738197.48135,1629738197.48371,1629738198.41706,1629738198.41504,1629738700.10213,0
50,4,2,3,6,5,2,c2_WhyHand,2,helping?,40,H_012.jpg,1629738092.85128,1629738092.85388,85.4973008537292,10.1177361011505,95.6344141864777,97.7185242080688,0.3,103.120538702011,0.883663654327393,104.00633310318,3,right,0.862509965896606,104.004202356338,604.490845432282,607.250845432281,1629738181.10858,1629738181.11108,1629738191.2457,1629738191.2477,1629738193.32981,1629738198.73182,1629738198.73386,1629738199.61761,1629738199.61548,1629738700.10213,0
50,4,2,3,6,6,2,c2_WhyHand,2,helping?,35,H_159.jpg,1629738092.85128,1629738092.85388,85.4973008537292,10.1177361011505,95.6344141864777,97.7185242080688,0.3,104.320987453461,0.93368124961853,105.25709318161,3,right,0.909046173095703,105.254668703079,604.490845432282,607.250845432281,1629738181.10858,1629738181.11108,1629738191.2457,1629738191.2477,1629738193.32981,1629738199.93227,1629738199.93427,1629738200.86837,1629738200.86595,1629738700.10213,0
50,4,2,3,6,7,2,c2_WhyHand,1,helping?,34,H_111.jpg,1629738092.85128,1629738092.85388,85.4973008537292,10.1177361011505,95.6344141864777,97.7185242080688,0.3,105.571453561783,0.917008876800537,106.491070022583,1,left,0.89542293548584,106.488462438583,604.490845432282,607.250845432281,1629738181.10858,1629738181.11108,1629738191.2457,1629738191.2477,1629738193.32981,1629738201.18273,1629738201.18475,1629738202.10235,1629738202.09974,1629738700.10213,1
50,4,2,3,6,8,2,c2_WhyHand,2,helping?,33,H_091.jpg,1629738092.85128,1629738092.85388,85.4973008537292,10.1177361011505,95.6344141864777,97.7185242080688,0.3,106.805246343613,0.0166730880737305,106.82403801918,1,left,0.000309944152832031,106.821919431686,604.490845432282,607.250845432281,1629738181.10858,1629738181.11108,1629738191.2457,1629738191.2477,1629738193.32981,1629738202.41653,1629738202.41898,1629738202.43532,1629738202.4332,1629738700.10213,0
50,4,2,3,7,1,1,c1_WhyFace,1,proud?,104,F_598.jpg,1629738092.85128,1629738092.85388,106.921957244873,6.56816387176514,113.507746210098,115.608530750275,2.10078454017639,115.758585681915,1.08373785018921,116.844799032211,1,left,1.06702589988708,116.842323532104,604.490845432282,607.250845432281,1629738202.53324,1629738202.53561,1629738209.11903,1629738209.12123,1629738211.21981,1629738211.36987,1629738211.37202,1629738212.45608,1629738212.4536,1629738700.10213,1
50,4,2,3,7,2,1,c1_WhyFace,2,proud?,102,F_760.jpg,1629738092.85128,1629738092.85388,106.921957244873,6.56816387176514,113.507746210098,115.608530750275,0.3,117.159108390808,0.0166723728179932,117.187443962097,1,left,0.00031280517578125,117.175780763626,604.490845432282,607.250845432281,1629738202.53324,1629738202.53561,1629738209.11903,1629738209.12123,1629738211.21981,1629738212.77039,1629738212.77262,1629738212.79872,1629738212.78706,1629738700.10213,0
50,4,2,3,7,3,1,c1_WhyFace,1,proud?,97,F_582.jpg,1629738092.85128,1629738092.85388,106.921957244873,6.56816387176514,113.507746210098,115.608530750275,0.3,117.492566814423,0.933681011199951,118.428189983368,1,left,0.91020393371582,118.426247825623,604.490845432282,607.250845432281,1629738202.53324,1629738202.53561,1629738209.11903,1629738209.12123,1629738211.21981,1629738213.10385,1629738213.10613,1629738214.03947,1629738214.03753,1629738700.10213,1
50,4,2,3,7,4,1,c1_WhyFace,2,proud?,98,F_412.jpg,1629738092.85128,1629738092.85388,106.921957244873,6.56816387176514,113.507746210098,115.608530750275,0.3,118.74303196907,0.866990804672241,119.612601985931,3,right,0.841772079467773,119.610022773743,604.490845432282,607.250845432281,1629738202.53324,1629738202.53561,1629738209.11903,1629738209.12123,1629738211.21981,1629738214.35431,1629738214.35636,1629738215.22388,1629738215.2213,1629738700.10213,0
50,4,2,3,7,5,1,c1_WhyFace,1,proud?,101,F_083.jpg,1629738092.85128,1629738092.85388,106.921957244873,6.56816387176514,113.507746210098,115.608530750275,0.3,119.926807394028,0.933680772781372,120.870932092667,1,left,0.923763990402222,120.860488166809,604.490845432282,607.250845432281,1629738202.53324,1629738202.53561,1629738209.11903,1629738209.12123,1629738211.21981,1629738215.53809,1629738215.54032,1629738216.48221,1629738216.47177,1629738700.10213,1
50,4,2,3,7,6,1,c1_WhyFace,2,proud?,100,F_776.jpg,1629738092.85128,1629738092.85388,106.921957244873,6.56816387176514,113.507746210098,115.608530750275,0.3,121.177273263931,1.03371906280518,122.213232984543,3,right,1.01254987716675,122.210992326736,604.490845432282,607.250845432281,1629738202.53324,1629738202.53561,1629738209.11903,1629738209.12123,1629738211.21981,1629738216.78855,1629738216.79072,1629738217.82451,1629738217.82227,1629738700.10213,0
50,4,2,3,7,7,1,c1_WhyFace,1,proud?,103,F_618.jpg,1629738092.85128,1629738092.85388,106.921957244873,6.56816387176514,113.507746210098,115.608530750275,0.3,122.52777718544,0.95035457611084,123.488103141785,1,left,0.933120965957642,123.478131761551,604.490845432282,607.250845432281,1629738202.53324,1629738202.53561,1629738209.11903,1629738209.12123,1629738211.21981,1629738218.13906,1629738218.14132,1629738219.09938,1629738219.08941,1629738700.10213,1
50,4,2,3,7,8,1,c1_WhyFace,1,proud?,99,F_695.jpg,1629738092.85128,1629738092.85388,106.921957244873,6.56816387176514,113.507746210098,115.608530750275,0.3,123.794916858673,1.00037288665771,124.804145088196,1,left,0.987035989761353,124.795289745331,604.490845432282,607.250845432281,1629738202.53324,1629738202.53561,1629738209.11903,1629738209.12123,1629738211.21981,1629738219.4062,1629738219.40872,1629738220.41543,1629738220.40657,1629738700.10213,1
50,4,2,3,8,1,3,c3_HowFace,1,looking to side?,72,F_590.jpg,1629738092.85128,1629738092.85388,124.895326366425,6.12478375434875,131.030947675705,133.131731023788,2.1007833480835,133.281787385941,0.80029821395874,134.084393014908,1,left,0.769685983657837,134.082085599899,604.490845432282,607.250845432281,1629738220.50661,1629738220.51544,1629738226.64223,1629738226.64871,1629738228.74301,1629738228.89307,1629738228.89873,1629738229.69567,1629738229.69337,1629738700.10213,1
50,4,2,3,8,2,3,c3_HowFace,1,looking to side?,71,F_433.jpg,1629738092.85128,1629738092.85388,124.895326366425,6.12478375434875,131.030947675705,133.131731023788,0.3,134.398871173859,0.883662700653076,135.287270059586,1,left,0.870158910751343,135.282533874512,604.490845432282,607.250845432281,1629738220.50661,1629738220.51544,1629738226.64223,1629738226.64871,1629738228.74301,1629738230.01015,1629738230.01556,1629738230.89855,1629738230.89381,1629738700.10213,1
50,4,2,3,8,3,3,c3_HowFace,1,looking to side?,67,F_716.jpg,1629738092.85128,1629738092.85388,124.895326366425,6.12478375434875,131.030947675705,133.131731023788,0.3,135.599318494797,0.917008399963379,136.520687093735,1,left,0.902716159820557,136.51632689476,604.490845432282,607.250845432281,1629738220.50661,1629738220.51544,1629738226.64223,1629738226.64871,1629738228.74301,1629738231.2106,1629738231.21538,1629738232.13197,1629738232.12761,1629738700.10213,1
50,4,2,3,8,4,3,c3_HowFace,2,looking to side?,70,F_779.jpg,1629738092.85128,1629738092.85388,124.895326366425,6.12478375434875,131.030947675705,133.131731023788,0.3,136.833111038208,1.08373832702637,137.920835008621,3,right,1.06284499168396,137.916849365234,604.490845432282,607.250845432281,1629738220.50661,1629738220.51544,1629738226.64223,1629738226.64871,1629738228.74301,1629738232.44439,1629738232.44909,1629738233.53212,1629738233.52813,1629738700.10213,0
50,4,2,3,8,5,3,c3_HowFace,1,looking to side?,68,F_760.jpg,1629738092.85128,1629738092.85388,124.895326366425,6.12478375434875,131.030947675705,133.131731023788,0.3,138.233633270264,1.05039215087891,139.287240972519,1,left,1.03598809242249,139.284025421143,604.490845432282,607.250845432281,1629738220.50661,1629738220.51544,1629738226.64223,1629738226.64871,1629738228.74301,1629738233.84491,1629738233.84868,1629738234.89852,1629738234.89531,1629738700.10213,1
50,4,2,3,8,6,3,c3_HowFace,2,looking to side?,66,F_111.jpg,1629738092.85128,1629738092.85388,124.895326366425,6.12478375434875,131.030947675705,133.131731023788,0.3,139.600810279846,0.950353860855103,140.554149141312,3,right,0.933940887451172,140.551164140701,604.490845432282,607.250845432281,1629738220.50661,1629738220.51544,1629738226.64223,1629738226.64871,1629738228.74301,1629738235.21209,1629738235.21518,1629738236.16543,1629738236.16245,1629738700.10213,0
50,4,2,3,8,7,3,c3_HowFace,1,looking to side?,69,F_110.jpg,1629738092.85128,1629738092.85388,124.895326366425,6.12478375434875,131.030947675705,133.131731023788,0.3,140.867948999405,1.1837751865387,142.05414604187,1,left,1.17301297187805,142.051724185944,604.490845432282,607.250845432281,1629738220.50661,1629738220.51544,1629738226.64223,1629738226.64871,1629738228.74301,1629738236.47923,1629738236.48189,1629738237.66543,1629738237.66301,1629738700.10213,1
50,4,2,3,8,8,3,c3_HowFace,2,looking to side?,65,F_798.jpg,1629738092.85128,1629738092.85388,124.895326366425,6.12478375434875,131.030947675705,133.131731023788,0.3,142.368509044647,1.00037407875061,143.371149053574,3,right,0.973664999008179,143.368883123398,604.490845432282,607.250845432281,1629738220.50661,1629738220.51544,1629738226.64223,1629738226.64871,1629738228.74301,1629738237.97979,1629738237.982,1629738238.98243,1629738238.98016,1629738700.10213,0
50,4,2,3,9,1,1,c1_WhyFace,1,argument?,43,F_716.jpg,1629738092.85128,1629738092.85388,143.452246417999,6.67587471008301,150.138073911667,152.238856782913,2.10078287124634,152.388911714554,1.51723432540894,153.908555021286,1,left,1.4996509552002,153.906146039963,604.490845432282,607.250845432281,1629738239.06353,1629738239.08251,1629738245.74935,1629738245.75161,1629738247.85014,1629738248.00019,1629738248.00215,1629738249.51984,1629738249.51743,1629738700.10213,1
50,4,2,3,9,2,1,c1_WhyFace,2,argument?,44,F_139.jpg,1629738092.85128,1629738092.85388,143.452246417999,6.67587471008301,150.138073911667,152.238856782913,0.3,154.222929706573,0.900336027145386,155.12546705246,3,right,0.885702133178711,155.123265733719,604.490845432282,607.250845432281,1629738239.06353,1629738239.08251,1629738245.74935,1629738245.75161,1629738247.85014,1629738249.83421,1629738249.83631,1629738250.73675,1629738250.73455,1629738700.10213,0
50,4,2,3,9,3,1,c1_WhyFace,1,argument?,41,F_712.jpg,1629738092.85128,1629738092.85388,143.452246417999,6.67587471008301,150.138073911667,152.238856782913,0.3,155.440050592422,1.00037312507629,156.442402114868,1,left,0.986004829406738,156.440423717499,604.490845432282,607.250845432281,1629738239.06353,1629738239.08251,1629738245.74935,1629738245.75161,1629738247.85014,1629738251.05133,1629738251.05328,1629738252.05368,1629738252.0517,1629738700.10213,1
50,4,2,3,9,4,1,c1_WhyFace,2,argument?,45,F_433.jpg,1629738092.85128,1629738092.85388,143.452246417999,6.67587471008301,150.138073911667,152.238856782913,0.3,156.757208814621,0.967026472091675,157.737498035431,3,right,0.956785202026367,157.724235286713,604.490845432282,607.250845432281,1629738239.06353,1629738239.08251,1629738245.74935,1629738245.75161,1629738247.85014,1629738252.36849,1629738252.37066,1629738253.34878,1629738253.33552,1629738700.10213,0
50,4,2,3,9,5,1,c1_WhyFace,1,argument?,42,F_403.jpg,1629738092.85128,1629738092.85388,143.452246417999,6.67587471008301,150.138073911667,152.238856782913,0.3,158.041020383835,0.866990089416504,158.92093419075,1,left,0.856223821640015,158.908010473251,604.490845432282,607.250845432281,1629738239.06353,1629738239.08251,1629738245.74935,1629738245.75161,1629738247.85014,1629738253.6523,1629738253.65422,1629738254.53222,1629738254.51929,1629738700.10213,1
50,4,2,3,9,6,1,c1_WhyFace,2,argument?,46,F_844.jpg,1629738092.85128,1629738092.85388,143.452246417999,6.67587471008301,150.138073911667,152.238856782913,0.3,159.224795808792,1.08373689651489,160.320980062485,3,right,1.0732889175415,160.308532705307,604.490845432282,607.250845432281,1629738239.06353,1629738239.08251,1629738245.74935,1629738245.75161,1629738247.85014,1629738254.83608,1629738254.83877,1629738255.93226,1629738255.91981,1629738700.10213,0
50,4,2,3,9,7,1,c1_WhyFace,1,argument?,47,F_743.jpg,1629738092.85128,1629738092.85388,143.452246417999,6.67587471008301,150.138073911667,152.238856782913,0.3,160.625317802429,0.950355052947998,161.577885141373,1,left,0.93116307258606,161.575672855377,604.490845432282,607.250845432281,1629738239.06353,1629738239.08251,1629738245.74935,1629738245.75161,1629738247.85014,1629738256.2366,1629738256.23923,1629738257.18917,1629738257.18695,1629738700.10213,1
50,4,2,3,9,8,1,c1_WhyFace,1,argument?,48,F_758.jpg,1629738092.85128,1629738092.85388,143.452246417999,6.67587471008301,150.138073911667,152.238856782913,0.3,161.892457237244,1.23379302024841,163.137799968719,1,left,1.22043704986572,163.126250257492,604.490845432282,607.250845432281,1629738239.06353,1629738239.08251,1629738245.74935,1629738245.75161,1629738247.85014,1629738257.50374,1629738257.50621,1629738258.74908,1629738258.73753,1629738700.10213,1
50,4,2,3,10,1,3,c3_HowFace,1,open mouth?,80,F_844.jpg,1629738092.85128,1629738092.85388,163.226287593842,4.74179339408875,167.978059282303,170.078843107224,2.10078382492065,170.228899707794,0.816971302032471,171.054102172852,1,left,0.795456171035767,171.045871009827,604.490845432282,607.250845432281,1629738258.83757,1629738258.84896,1629738263.58934,1629738263.5985,1629738265.69012,1629738265.84018,1629738265.84903,1629738266.66538,1629738266.65715,1629738700.10213,1
50,4,2,3,10,2,3,c3_HowFace,1,open mouth?,74,F_776.jpg,1629738092.85128,1629738092.85388,163.226287593842,4.74179339408875,167.978059282303,170.078843107224,0.3,171.36265586853,0.816970825195312,172.187577953339,1,left,0.804279088973999,172.179626693726,604.490845432282,607.250845432281,1629738258.83757,1629738258.84896,1629738263.58934,1629738263.5985,1629738265.69012,1629738266.97394,1629738266.97643,1629738267.79886,1629738267.79091,1629738700.10213,1
50,4,2,3,10,3,3,c3_HowFace,2,open mouth?,76,F_544.jpg,1629738092.85128,1629738092.85388,163.226287593842,4.74179339408875,167.978059282303,170.078843107224,0.3,172.496411552429,0.93368124961853,173.437340965271,3,right,0.924843072891235,173.430092802048,604.490845432282,607.250845432281,1629738258.83757,1629738258.84896,1629738263.58934,1629738263.5985,1629738265.69012,1629738268.10769,1629738268.1096,1629738269.04862,1629738269.04137,1629738700.10213,0
50,4,2,3,10,4,3,c3_HowFace,1,open mouth?,78,F_692.jpg,1629738092.85128,1629738092.85388,163.226287593842,4.74179339408875,167.978059282303,170.078843107224,0.3,173.746877660751,0.700261116027832,174.454533090591,1,left,0.678624868392944,174.447138776779,604.490845432282,607.250845432281,1629738258.83757,1629738258.84896,1629738263.58934,1629738263.5985,1629738265.69012,1629738269.35816,1629738269.3606,1629738270.06581,1629738270.05842,1629738700.10213,1
50,4,2,3,10,5,3,c3_HowFace,2,open mouth?,77,F_584.jpg,1629738092.85128,1629738092.85388,163.226287593842,4.74179339408875,167.978059282303,170.078843107224,0.3,174.763923397064,0.816970825195312,175.583039989471,3,right,0.793723106384277,175.58089422226,604.490845432282,607.250845432281,1629738258.83757,1629738258.84896,1629738263.58934,1629738263.5985,1629738265.69012,1629738270.3752,1629738270.37736,1629738271.19432,1629738271.19218,1629738700.10213,0
50,4,2,3,10,6,3,c3_HowFace,1,open mouth?,73,F_403.jpg,1629738092.85128,1629738092.85388,163.226287593842,4.74179339408875,167.978059282303,170.078843107224,0.3,175.8976795578,0.716933965682983,176.616783132553,1,left,0.691954135894775,176.614613523483,604.490845432282,607.250845432281,1629738258.83757,1629738258.84896,1629738263.58934,1629738263.5985,1629738265.69012,1629738271.50896,1629738271.51126,1629738272.22806,1629738272.22589,1629738700.10213,1
50,4,2,3,10,7,3,c3_HowFace,1,open mouth?,75,F_086.jpg,1629738092.85128,1629738092.85388,163.226287593842,4.74179339408875,167.978059282303,170.078843107224,0.3,176.931399097443,0.683587789535522,177.620753040314,1,left,0.669262170791626,177.614986886978,604.490845432282,607.250845432281,1629738258.83757,1629738258.84896,1629738263.58934,1629738263.5985,1629738265.69012,1629738272.54268,1629738272.54479,1629738273.23203,1629738273.22627,1629738700.10213,1
50,4,2,3,10,8,3,c3_HowFace,2,open mouth?,79,F_648.jpg,1629738092.85128,1629738092.85388,163.226287593842,4.74179339408875,167.978059282303,170.078843107224,0.3,177.931770792007,0.750280380249023,178.684518089294,3,right,0.722039937973022,178.682051172256,604.490845432282,607.250845432281,1629738258.83757,1629738258.84896,1629738263.58934,1629738263.5985,1629738265.69012,1629738273.54305,1629738273.54849,1629738274.2958,1629738274.29333,1629738700.10213,0
50,4,2,3,11,1,4,c4_HowHand,1,pressing button?,88,H_019.jpg,1629738092.85128,1629738092.85388,178.782088508606,7.07589244842529,185.868064155579,187.968847503662,2.1007833480835,188.118903865814,0.917009115219116,189.038122167587,1,left,0.898888826370239,189.035912981033,604.490845432282,607.250845432281,1629738274.39337,1629738274.39864,1629738281.47935,1629738281.48182,1629738283.58013,1629738283.73018,1629738283.7322,1629738284.6494,1629738284.64719,1629738700.10213,1
50,4,2,3,11,2,4,c4_HowHand,2,pressing button?,87,H_024.jpg,1629738092.85128,1629738092.85388,178.782088508606,7.07589244842529,185.868064155579,187.968847503662,0.3,189.352698078156,0.833643674850464,190.188909044266,3,right,0.811154842376709,190.186341753006,604.490845432282,607.250845432281,1629738274.39337,1629738274.39864,1629738281.47935,1629738281.48182,1629738283.58013,1629738284.96398,1629738284.96601,1629738285.80019,1629738285.79762,1629738700.10213,0
50,4,2,3,11,3,4,c4_HowHand,2,pressing button?,85,H_130.jpg,1629738092.85128,1629738092.85388,178.782088508606,7.07589244842529,185.868064155579,187.968847503662,0.3,190.503126850128,0.850317001342773,191.355375995636,3,right,0.834796905517578,191.353443851471,604.490845432282,607.250845432281,1629738274.39337,1629738274.39864,1629738281.47935,1629738281.48182,1629738283.58013,1629738286.11441,1629738286.11645,1629738286.96666,1629738286.96472,1629738700.10213,0
50,4,2,3,11,4,4,c4_HowHand,1,pressing button?,83,H_502.jpg,1629738092.85128,1629738092.85388,178.782088508606,7.07589244842529,185.868064155579,187.968847503662,0.3,191.670227994919,0.650242567062378,192.322434177399,1,left,0.633339881896973,192.320470561981,604.490845432282,607.250845432281,1629738274.39337,1629738274.39864,1629738281.47935,1629738281.48182,1629738283.58013,1629738287.28151,1629738287.28371,1629738287.93372,1629738287.93175,1629738700.10213,1
50,4,2,3,11,5,4,c4_HowHand,2,pressing button?,81,H_261.jpg,1629738092.85128,1629738092.85388,178.782088508606,7.07589244842529,185.868064155579,187.968847503662,0.3,192.637255420685,0.783625364303589,193.43849896431,3,right,0.773350954055786,193.420880784988,604.490845432282,607.250845432281,1629738274.39337,1629738274.39864,1629738281.47935,1629738281.48182,1629738283.58013,1629738288.24854,1629738288.25111,1629738289.04978,1629738289.03216,1629738700.10213,0
50,4,2,3,11,6,4,c4_HowHand,1,pressing button?,86,H_332.jpg,1629738092.85128,1629738092.85388,178.782088508606,7.07589244842529,185.868064155579,187.968847503662,0.3,193.737665166855,0.600224256515503,194.340018978119,1,left,0.584585905075073,194.33788942337,604.490845432282,607.250845432281,1629738274.39337,1629738274.39864,1629738281.47935,1629738281.48182,1629738283.58013,1629738289.34895,1629738289.35115,1629738289.9513,1629738289.94917,1629738700.10213,1
50,4,2,3,11,7,4,c4_HowHand,1,pressing button?,82,H_126.jpg,1629738092.85128,1629738092.85388,178.782088508606,7.07589244842529,185.868064155579,187.968847503662,0.3,194.654674282074,1.05039215087891,195.720729103088,1,left,1.03807401657104,195.705066432953,604.490845432282,607.250845432281,1629738274.39337,1629738274.39864,1629738281.47935,1629738281.48182,1629738283.58013,1629738290.26596,1629738290.26823,1629738291.33201,1629738291.31635,1629738700.10213,1
50,4,2,3,11,8,4,c4_HowHand,1,pressing button?,84,H_483.jpg,1629738092.85128,1629738092.85388,178.782088508606,7.07589244842529,185.868064155579,187.968847503662,0.3,196.021851530075,0.95035457611084,196.974390974045,1,left,0.935262203216553,196.972206106186,604.490845432282,607.250845432281,1629738274.39337,1629738274.39864,1629738281.47935,1629738281.48182,1629738283.58013,1629738291.63313,1629738291.63536,1629738292.58567,1629738292.58349,1629738700.10213,1
50,4,2,3,12,1,2,c2_WhyHand,1,competing?,9,H_261.jpg,1629738092.85128,1629738092.85388,197.072242965698,6.57582902908325,203.658032646179,205.758816232681,2.10078358650208,205.908871641159,0.600224733352661,206.511339178085,1,left,0.576910018920898,206.509096374512,604.490845432282,607.250845432281,1629738292.68352,1629738292.69944,1629738299.26931,1629738299.27192,1629738301.3701,1629738301.52015,1629738301.52207,1629738302.12262,1629738302.12038,1629738700.10213,1
50,4,2,3,12,2,2,c2_WhyHand,2,competing?,12,H_483.jpg,1629738092.85128,1629738092.85388,197.072242965698,6.57582902908325,203.658032646179,205.758816232681,0.3,206.82588051796,0.866988897323608,207.695576181412,3,right,0.847246885299683,207.692869415283,604.490845432282,607.250845432281,1629738292.68352,1629738292.69944,1629738299.26931,1629738299.27192,1629738301.3701,1629738302.43716,1629738302.43968,1629738303.30686,1629738303.30415,1629738700.10213,0
50,4,2,3,12,3,2,c2_WhyHand,1,competing?,14,H_132.jpg,1629738092.85128,1629738092.85388,197.072242965698,6.57582902908325,203.658032646179,205.758816232681,0.3,208.009655227661,0.716933727264404,208.728962173462,1,left,0.699590921401978,208.726588954926,604.490845432282,607.250845432281,1629738292.68352,1629738292.69944,1629738299.26931,1629738299.27192,1629738301.3701,1629738303.62094,1629738303.62315,1629738304.34024,1629738304.33787,1629738700.10213,1
50,4,2,3,12,4,2,c2_WhyHand,2,competing?,10,H_126.jpg,1629738092.85128,1629738092.85388,197.072242965698,6.57582902908325,203.658032646179,205.758816232681,0.3,209.043373575211,0.883662700653076,209.937816133499,3,right,0.873370885848999,209.927036275864,604.490845432282,607.250845432281,1629738292.68352,1629738292.69944,1629738299.26931,1629738299.27192,1629738301.3701,1629738304.65465,1629738304.65678,1629738305.5491,1629738305.53832,1629738700.10213,0
50,4,2,3,12,5,2,c2_WhyHand,1,competing?,16,H_136.jpg,1629738092.85128,1629738092.85388,197.072242965698,6.57582902908325,203.658032646179,205.758816232681,0.3,210.243822088242,0.800297737121582,211.046487083435,1,left,0.778082132339478,211.044119825363,604.490845432282,607.250845432281,1629738292.68352,1629738292.69944,1629738299.26931,1629738299.27192,1629738301.3701,1629738305.8551,1629738305.85713,1629738306.65777,1629738306.6554,1629738700.10213,1
50,4,2,3,12,6,2,c2_WhyHand,2,competing?,11,H_502.jpg,1629738092.85128,1629738092.85388,197.072242965698,6.57582902908325,203.658032646179,205.758816232681,0.3,211.360903968811,0.917009115219116,212.280315151215,3,right,0.894690036773682,212.27791308403,604.490845432282,607.250845432281,1629738292.68352,1629738292.69944,1629738299.26931,1629738299.27192,1629738301.3701,1629738306.97218,1629738306.97418,1629738307.8916,1629738307.88919,1629738700.10213,0
50,4,2,3,12,7,2,c2_WhyHand,1,competing?,13,H_003.jpg,1629738092.85128,1629738092.85388,197.072242965698,6.57582902908325,203.658032646179,205.758816232681,0.3,212.594698181152,0.800298690795898,213.4042100811,1,left,0.783041954040527,213.394996871948,604.490845432282,607.250845432281,1629738292.68352,1629738292.69944,1629738299.26931,1629738299.27192,1629738301.3701,1629738308.20598,1629738308.20822,1629738309.01549,1629738309.00628,1629738700.10213,1
50,4,2,3,12,8,2,c2_WhyHand,1,competing?,15,H_170.jpg,1629738092.85128,1629738092.85388,197.072242965698,6.57582902908325,203.658032646179,205.758816232681,0.3,213.711781492233,0.733606338500977,214.447425117493,1,left,0.712586879730225,214.445387830734,604.490845432282,607.250845432281,1629738292.68352,1629738292.69944,1629738299.26931,1629738299.27192,1629738301.3701,1629738309.32306,1629738309.32516,1629738310.05871,1629738310.05667,1629738700.10213,1
50,4,2,3,13,1,1,c1_WhyFace,1,self-doubt?,29,F_544.jpg,1629738092.85128,1629738092.85388,214.545425405502,7.17256665229797,221.731438627243,223.832222452164,2.10078382492065,223.982277622223,0.933682680130005,224.920979013443,1,left,0.913586854934692,224.915960302353,604.490845432282,607.250845432281,1629738310.15671,1629738310.16534,1629738317.34272,1629738317.34846,1629738319.4435,1629738319.59356,1629738319.59855,1629738320.53226,1629738320.52724,1629738700.10213,1
50,4,2,3,13,2,1,c1_WhyFace,2,self-doubt?,27,F_086.jpg,1629738092.85128,1629738092.85388,214.545425405502,7.17256665229797,221.731438627243,223.832222452164,0.3,225.232744922638,1.06706476211548,226.302047958374,1,left,1.04120302200317,226.299809684753,604.490845432282,607.250845432281,1629738310.15671,1629738310.16534,1629738317.34272,1629738317.34846,1629738319.4435,1629738320.84403,1629738320.84844,1629738321.91333,1629738321.91109,1629738700.10213,0
50,4,2,3,13,3,1,c1_WhyFace,1,self-doubt?,25,F_798.jpg,1629738092.85128,1629738092.85388,214.545425405502,7.17256665229797,221.731438627243,223.832222452164,0.3,226.616593351364,0.833645343780518,227.45391916275,1,left,0.819399833679199,227.450238695145,604.490845432282,607.250845432281,1629738310.15671,1629738310.16534,1629738317.34272,1629738317.34846,1629738319.4435,1629738322.22787,1629738322.23184,1629738323.0652,1629738323.06152,1629738700.10213,1
50,4,2,3,13,4,1,c1_WhyFace,1,self-doubt?,26,F_111.jpg,1629738092.85128,1629738092.85388,214.545425405502,7.17256665229797,221.731438627243,223.832222452164,0.3,227.767023077011,0.683587312698364,228.453752985001,1,left,0.672333955764771,228.450610389709,604.490845432282,607.250845432281,1629738310.15671,1629738310.16534,1629738317.34272,1629738317.34846,1629738319.4435,1629738323.3783,1629738323.38184,1629738324.06503,1629738324.06189,1629738700.10213,1
50,4,2,3,13,5,1,c1_WhyFace,2,self-doubt?,31,F_774.jpg,1629738092.85128,1629738092.85388,214.545425405502,7.17256665229797,221.731438627243,223.832222452164,0.3,228.767396440506,0.750278949737549,229.520733108521,3,right,0.727784156799316,229.517675390244,604.490845432282,607.250845432281,1629738310.15671,1629738310.16534,1629738317.34272,1629738317.34846,1629738319.4435,1629738324.37868,1629738324.38191,1629738325.13201,1629738325.12896,1629738700.10213,0
50,4,2,3,13,6,1,c1_WhyFace,1,self-doubt?,28,F_754.jpg,1629738092.85128,1629738092.85388,214.545425405502,7.17256665229797,221.731438627243,223.832222452164,0.3,229.834460248947,0.700261354446411,230.537388076782,1,left,0.684692859649658,230.534721603394,604.490845432282,607.250845432281,1629738310.15671,1629738310.16534,1629738317.34272,1629738317.34846,1629738319.4435,1629738325.44574,1629738325.44849,1629738326.14867,1629738326.146,1629738700.10213,1
50,4,2,3,13,7,1,c1_WhyFace,2,self-doubt?,32,F_128.jpg,1629738092.85128,1629738092.85388,214.545425405502,7.17256665229797,221.731438627243,223.832222452164,0.3,230.851506462097,1.01704573631287,231.871222963333,3,right,1.00103092193604,231.86855219841,604.490845432282,607.250845432281,1629738310.15671,1629738310.16534,1629738317.34272,1629738317.34846,1629738319.4435,1629738326.46279,1629738326.46539,1629738327.4825,1629738327.47983,1629738700.10213,0
50,4,2,3,13,8,1,c1_WhyFace,1,self-doubt?,30,F_584.jpg,1629738092.85128,1629738092.85388,214.545425405502,7.17256665229797,221.731438627243,223.832222452164,0.3,232.185337533951,1.05039143562317,233.237903108597,1,left,1.03207397460938,233.235728969574,604.490845432282,607.250845432281,1629738310.15671,1629738310.16534,1629738317.34272,1629738317.34846,1629738319.4435,1629738327.79662,1629738327.79878,1629738328.84918,1629738328.84701,1629738700.10213,1
50,4,2,3,14,1,3,c3_HowFace,1,looking at camera?,64,F_128.jpg,1629738092.85128,1629738092.85388,233.335766067505,7.43626499176025,240.788545598984,242.889329185486,2.10078358650208,243.039385786057,0.633568525314331,243.674931993485,1,left,0.618986845016479,243.672954311371,604.490845432282,607.250845432281,1629738328.94705,1629738328.94916,1629738336.39983,1629738336.40191,1629738338.50061,1629738338.65067,1629738338.65331,1629738339.28621,1629738339.28424,1629738700.10213,1
50,4,2,3,14,2,3,c3_HowFace,1,looking at camera?,60,F_618.jpg,1629738092.85128,1629738092.85388,233.335766067505,7.43626499176025,240.788545598984,242.889329185486,0.3,243.989739170074,0.633570432662964,244.625511159897,1,left,0.609776973724365,244.623309602737,604.490845432282,607.250845432281,1629738328.94705,1629738328.94916,1629738336.39983,1629738336.40191,1629738338.50061,1629738339.60102,1629738339.60316,1629738340.23679,1629738340.23459,1629738700.10213,1
50,4,2,3,14,3,3,c3_HowFace,1,looking at camera?,62,F_598.jpg,1629738092.85128,1629738092.85388,233.335766067505,7.43626499176025,240.788545598984,242.889329185486,0.3,244.940094223022,0.800297975540161,245.742567052841,1,left,0.782788991928101,245.740392198563,604.490845432282,607.250845432281,1629738328.94705,1629738328.94916,1629738336.39983,1629738336.40191,1629738338.50061,1629738340.55138,1629738340.55333,1629738341.35385,1629738341.35167,1629738700.10213,1
50,4,2,3,14,4,3,c3_HowFace,2,looking at camera?,63,F_743.jpg,1629738092.85128,1629738092.85388,233.335766067505,7.43626499176025,240.788545598984,242.889329185486,0.3,246.057177534103,0.766952037811279,246.837390174866,3,right,0.754844903945923,246.824129571915,604.490845432282,607.250845432281,1629738328.94705,1629738328.94916,1629738336.39983,1629738336.40191,1629738338.50061,1629738341.66846,1629738341.67047,1629738342.44867,1629738342.43541,1629738700.10213,0
50,4,2,3,14,5,3,c3_HowFace,1,looking at camera?,61,F_774.jpg,1629738092.85128,1629738092.85388,233.335766067505,7.43626499176025,240.788545598984,242.889329185486,0.3,247.140914430618,0.616896867752075,247.770722141266,1,left,0.605304956436157,247.75781129837,604.490845432282,607.250845432281,1629738328.94705,1629738328.94916,1629738336.39983,1629738336.40191,1629738338.50061,1629738342.7522,1629738342.75425,1629738343.382,1629738343.36909,1629738700.10213,1
50,4,2,3,14,6,3,c3_HowFace,2,looking at camera?,57,F_582.jpg,1629738092.85128,1629738092.85388,233.335766067505,7.43626499176025,240.788545598984,242.889329185486,0.3,248.0745952034,1.01704740524292,249.094063987732,3,right,0.998594999313354,249.091642608643,604.490845432282,607.250845432281,1629738328.94705,1629738328.94916,1629738336.39983,1629738336.40191,1629738338.50061,1629738343.68588,1629738343.68807,1629738344.70534,1629738344.70292,1629738700.10213,0
50,4,2,3,14,7,3,c3_HowFace,2,looking at camera?,58,F_754.jpg,1629738092.85128,1629738092.85388,233.335766067505,7.43626499176025,240.788545598984,242.889329185486,0.3,249.408426513672,0.917009592056274,250.337436189651,3,right,0.904831886291504,250.325436105728,604.490845432282,607.250845432281,1629738328.94705,1629738328.94916,1629738336.39983,1629738336.40191,1629738338.50061,1629738345.01971,1629738345.02182,1629738345.94872,1629738345.93672,1629738700.10213,0
50,4,2,3,14,8,3,c3_HowFace,1,looking at camera?,59,F_129.jpg,1629738092.85128,1629738092.85388,233.335766067505,7.43626499176025,240.788545598984,242.889329185486,0.3,250.642220249176,0.900336027145386,251.54507516861,1,left,0.88015604019165,251.542556276321,604.490845432282,607.250845432281,1629738328.94705,1629738328.94916,1629738336.39983,1629738336.40191,1629738338.50061,1629738346.2535,1629738346.2558,1629738347.15636,1629738347.15384,1629738700.10213,1
50,4,2,3,15,1,4,c4_HowHand,1,both hands?,123,H_167.jpg,1629738092.85128,1629738092.85388,251.642593851089,7.91942524909973,259.578886260986,261.679669370651,2.10078310966492,261.829725494385,0.900336265563965,262.737682094574,1,left,0.880084991455078,262.730061759949,604.490845432282,607.250845432281,1629738347.25387,1629738347.26548,1629738355.19017,1629738355.19229,1629738357.29095,1629738357.44101,1629738357.4432,1629738358.34896,1629738358.34134,1629738700.10213,1
50,4,2,3,15,2,4,c4_HowHand,2,both hands?,121,H_091.jpg,1629738092.85128,1629738092.85388,251.642593851089,7.91942524909973,259.578886260986,261.679669370651,0.3,263.046846857071,1.1170825958252,264.170920124054,3,right,1.09757208824158,264.163929452896,604.490845432282,607.250845432281,1629738347.25387,1629738347.26548,1629738355.19017,1629738355.19229,1629738357.29095,1629738358.65813,1629738358.6605,1629738359.7822,1629738359.77521,1629738700.10213,0
50,4,2,3,15,3,4,c4_HowHand,2,both hands?,125,H_627.jpg,1629738092.85128,1629738092.85388,251.642593851089,7.91942524909973,259.578886260986,261.679669370651,0.3,264.480714788437,1.06706428527832,265.549972047806,3,right,1.04198813438416,265.547779073715,604.490845432282,607.250845432281,1629738347.25387,1629738347.26548,1629738355.19017,1629738355.19229,1629738357.29095,1629738360.092,1629738360.09426,1629738361.16125,1629738361.15906,1629738700.10213,0
50,4,2,3,15,4,4,c4_HowHand,1,both hands?,128,H_027.jpg,1629738092.85128,1629738092.85388,251.642593851089,7.91942524909973,259.578886260986,261.679669370651,0.3,265.864563455582,0.816972017288208,266.687491168976,1,left,0.802733898162842,266.68153547287,604.490845432282,607.250845432281,1629738347.25387,1629738347.26548,1629738355.19017,1629738355.19229,1629738357.29095,1629738361.47584,1629738361.47806,1629738362.29877,1629738362.29282,1629738700.10213,1
50,4,2,3,15,5,4,c4_HowHand,1,both hands?,122,H_111.jpg,1629738092.85128,1629738092.85388,251.642593851089,7.91942524909973,259.578886260986,261.679669370651,0.3,266.998320569992,0.816973209381104,267.82087515831,1,left,0.799668073654175,267.815293779373,604.490845432282,607.250845432281,1629738347.25387,1629738347.26548,1629738355.19017,1629738355.19229,1629738357.29095,1629738362.6096,1629738362.61548,1629738363.43216,1629738363.42657,1629738700.10213,1
50,4,2,3,15,6,4,c4_HowHand,2,both hands?,126,H_159.jpg,1629738092.85128,1629738092.85388,251.642593851089,7.91942524909973,259.578886260986,261.679669370651,0.3,268.132076253891,0.917008399963379,269.054305067062,3,right,0.894880056381226,269.049084653854,604.490845432282,607.250845432281,1629738347.25387,1629738347.26548,1629738355.19017,1629738355.19229,1629738357.29095,1629738363.74336,1629738363.74848,1629738364.66559,1629738364.66037,1629738700.10213,0
50,4,2,3,15,7,4,c4_HowHand,1,both hands?,124,H_581.jpg,1629738092.85128,1629738092.85388,251.642593851089,7.91942524909973,259.578886260986,261.679669370651,0.3,269.365869989395,0.900335788726807,270.270699968338,1,left,0.885510921478271,270.266205778122,604.490845432282,607.250845432281,1629738347.25387,1629738347.26548,1629738355.19017,1629738355.19229,1629738357.29095,1629738364.97715,1629738364.98253,1629738365.88198,1629738365.87749,1629738700.10213,1
50,4,2,3,15,8,4,c4_HowHand,1,both hands?,127,H_349.jpg,1629738092.85128,1629738092.85388,251.642593851089,7.91942524909973,259.578886260986,261.679669370651,0.3,270.582989683151,0.75028395652771,271.337203969955,1,left,0.72694993019104,271.333273639679,604.490845432282,607.250845432281,1629738347.25387,1629738347.26548,1629738355.19017,1629738355.19229,1629738357.29095,1629738366.19427,1629738366.19878,1629738366.94848,1629738366.94455,1629738700.10213,1
50,4,2,3,16,1,2,c2_WhyHand,1,self-protection?,89,H_443.jpg,1629738092.85128,1629738092.85388,271.43330739975,6.91879367828369,278.369226922989,280.470010271072,2.1007833480835,280.620066633224,0.750279664993286,281.37325715065,1,left,0.725069999694824,281.370346298218,604.490845432282,607.250845432281,1629738367.04459,1629738367.04829,1629738373.98051,1629738373.98287,1629738376.08129,1629738376.23135,1629738376.23337,1629738376.98454,1629738376.98163,1629738700.10213,1
50,4,2,3,16,2,2,c2_WhyHand,2,self-protection?,90,H_006.jpg,1629738092.85128,1629738092.85388,271.43330739975,6.91879367828369,278.369226922989,280.470010271072,0.3,281.687131872177,0.833644390106201,282.538429965973,3,right,0.822309970855713,282.520776262283,604.490845432282,607.250845432281,1629738367.04459,1629738367.04829,1629738373.98051,1629738373.98287,1629738376.08129,1629738377.29841,1629738377.30044,1629738378.14971,1629738378.13206,1629738700.10213,0
50,4,2,3,16,3,2,c2_WhyHand,1,self-protection?,91,H_581.jpg,1629738092.85128,1629738092.85388,271.43330739975,6.91879367828369,278.369226922989,280.470010271072,0.3,282.837560405731,0.883662223815918,283.723272075653,1,left,0.858739137649536,283.721222629547,604.490845432282,607.250845432281,1629738367.04459,1629738367.04829,1629738373.98051,1629738373.98287,1629738376.08129,1629738378.44884,1629738378.4513,1629738379.33455,1629738379.3325,1629738700.10213,1
50,4,2,3,16,4,2,c2_WhyHand,2,self-protection?,92,H_532.jpg,1629738092.85128,1629738092.85388,271.43330739975,6.91879367828369,278.369226922989,280.470010271072,0.3,284.038007488251,0.917009353637695,284.957099189758,3,right,0.903017997741699,284.955016841888,604.490845432282,607.250845432281,1629738367.04459,1629738367.04829,1629738373.98051,1629738373.98287,1629738376.08129,1629738379.64929,1629738379.6512,1629738380.56838,1629738380.5663,1629738700.10213,0
50,4,2,3,16,5,2,c2_WhyHand,1,self-protection?,96,H_027.jpg,1629738092.85128,1629738092.85388,271.43330739975,6.91879367828369,278.369226922989,280.470010271072,0.3,285.271801462173,0.866990566253662,286.141121139526,1,left,0.849167108535767,286.138792028427,604.490845432282,607.250845432281,1629738367.04459,1629738367.04829,1629738373.98051,1629738373.98287,1629738376.08129,1629738380.88308,1629738380.88525,1629738381.7524,1629738381.75007,1629738700.10213,1
50,4,2,3,16,6,2,c2_WhyHand,1,self-protection?,93,H_038.jpg,1629738092.85128,1629738092.85388,271.43330739975,6.91879367828369,278.369226922989,280.470010271072,0.3,286.455575218201,0.850318193435669,287.320919027329,1,left,0.837261915206909,287.305893411636,604.490845432282,607.250845432281,1629738367.04459,1629738367.04829,1629738373.98051,1629738373.98287,1629738376.08129,1629738382.06686,1629738382.06921,1629738382.9322,1629738382.91717,1629738700.10213,1
50,4,2,3,16,7,2,c2_WhyHand,2,self-protection?,95,H_332.jpg,1629738092.85128,1629738092.85388,271.43330739975,6.91879367828369,278.369226922989,280.470010271072,0.3,287.622677078247,1.01704668998718,288.641919126511,3,right,0.993963003158569,288.639723768234,604.490845432282,607.250845432281,1629738367.04459,1629738367.04829,1629738373.98051,1629738373.98287,1629738376.08129,1629738383.23396,1629738383.23668,1629738384.2532,1629738384.251,1629738700.10213,0
50,4,2,3,16,8,2,c2_WhyHand,1,self-protection?,94,H_189.jpg,1629738092.85128,1629738092.85388,271.43330739975,6.91879367828369,278.369226922989,280.470010271072,0.3,288.956508388519,0.850317478179932,289.809082975388,1,left,0.833200931549072,289.806825866699,604.490845432282,607.250845432281,1629738367.04459,1629738367.04829,1629738373.98051,1629738373.98287,1629738376.08129,1629738384.56779,1629738384.57003,1629738385.42036,1629738385.41811,1629738700.10213,1
50,4,2,3,17,1,3,c3_HowFace,1,smiling?,118,F_759.jpg,1629738092.85128,1629738092.85388,289.906862249374,9.92523789405823,299.843902578354,301.944684972763,2.10078239440918,302.094741573334,0.850317001342773,302.947393169403,1,left,0.824381828308105,302.945058574677,604.490845432282,607.250845432281,1629738385.51814,1629738385.53271,1629738395.45518,1629738395.46536,1629738397.55597,1629738397.70602,1629738397.70849,1629738398.55867,1629738398.55634,1629738700.10213,1
50,4,2,3,17,2,3,c3_HowFace,2,smiling?,114,F_412.jpg,1629738092.85128,1629738092.85388,289.906862249374,9.92523789405823,299.843902578354,301.944684972763,0.3,303.261843194962,0.883663892745972,304.153954973221,3,right,0.864506006240845,304.145507087708,604.490845432282,607.250845432281,1629738385.51814,1629738385.53271,1629738395.45518,1629738395.46536,1629738397.55597,1629738398.87312,1629738398.87563,1629738399.76524,1629738399.75679,1629738700.10213,0
50,4,2,3,17,3,3,c3_HowFace,1,smiling?,117,F_593.jpg,1629738092.85128,1629738092.85388,289.906862249374,9.92523789405823,299.843902578354,301.944684972763,0.3,304.462289800644,0.750280380249023,305.22104596138,1,left,0.735621929168701,305.212570180893,604.490845432282,607.250845432281,1629738385.51814,1629738385.53271,1629738395.45518,1629738395.46536,1629738397.55597,1629738400.07357,1629738400.0762,1629738400.83233,1629738400.82385,1629738700.10213,1
50,4,2,3,17,4,3,c3_HowFace,2,smiling?,113,F_712.jpg,1629738092.85128,1629738092.85388,289.906862249374,9.92523789405823,299.843902578354,301.944684972763,0.3,305.529355516434,0.816972017288208,306.348880996704,3,right,0.794394016265869,306.346327533722,604.490845432282,607.250845432281,1629738385.51814,1629738385.53271,1629738395.45518,1629738395.46536,1629738397.55597,1629738401.14064,1629738401.14285,1629738401.96016,1629738401.95761,1629738700.10213,0
50,4,2,3,17,5,3,c3_HowFace,1,smiling?,115,F_695.jpg,1629738092.85128,1629738092.85388,289.906862249374,9.92523789405823,299.843902578354,301.944684972763,0.3,306.663111200333,0.70026159286499,307.370587100983,1,left,0.684407949447632,307.363372793198,604.490845432282,607.250845432281,1629738385.51814,1629738385.53271,1629738395.45518,1629738395.46536,1629738397.55597,1629738402.27439,1629738402.27676,1629738402.98187,1629738402.97465,1629738700.10213,1
50,4,2,3,17,6,3,c3_HowFace,1,smiling?,119,F_139.jpg,1629738092.85128,1629738092.85388,289.906862249374,9.92523789405823,299.843902578354,301.944684972763,0.3,307.680157413483,0.750280618667603,308.437394132614,1,left,0.733700037002563,308.43043803215,604.490845432282,607.250845432281,1629738385.51814,1629738385.53271,1629738395.45518,1629738395.46536,1629738397.55597,1629738403.29144,1629738403.29343,1629738404.04868,1629738404.04172,1629738700.10213,1
50,4,2,3,17,7,3,c3_HowFace,1,smiling?,116,F_083.jpg,1629738092.85128,1629738092.85388,289.906862249374,9.92523789405823,299.843902578354,301.944684972763,0.3,308.747222414017,0.716934442520142,309.470802059174,1,left,0.702806949615479,309.464156856537,604.490845432282,607.250845432281,1629738385.51814,1629738385.53271,1629738395.45518,1629738395.46536,1629738397.55597,1629738404.3585,1629738404.36072,1629738405.08208,1629738405.07544,1629738700.10213,1
50,4,2,3,17,8,3,c3_HowFace,2,smiling?,120,F_758.jpg,1629738092.85128,1629738092.85388,289.906862249374,9.92523789405823,299.843902578354,301.944684972763,0.3,309.780941953659,0.783624887466431,310.570931186676,3,right,0.765899896621704,310.564566841125,604.490845432282,607.250845432281,1629738385.51814,1629738385.53271,1629738395.45518,1629738395.46536,1629738397.55597,1629738405.39222,1629738405.39446,1629738406.18221,1629738406.17585,1629738700.10213,0
50,4,2,3,18,1,1,c1_WhyFace,1,admiring?,1,F_593.jpg,1629738092.85128,1629738092.85388,310.681276550293,6.94078254699707,317.633869400024,319.734653224945,2.10078382492065,319.884708395004,0.700261354446411,320.587249031067,1,left,0.686558961868286,320.584969749451,604.490845432282,607.250845432281,1629738406.29256,1629738406.29492,1629738413.24515,1629738413.24825,1629738415.34593,1629738415.49599,1629738415.4983,1629738416.19853,1629738416.19625,1629738700.10213,1
50,4,2,3,18,2,1,c1_WhyFace,2,admiring?,2,F_129.jpg,1629738092.85128,1629738092.85388,310.681276550293,6.94078254699707,317.633869400024,319.734653224945,0.3,320.901753892899,0.750280141830444,321.654067983627,3,right,0.730201005935669,321.652034034729,604.490845432282,607.250845432281,1629738406.29256,1629738406.29492,1629738413.24515,1629738413.24825,1629738415.34593,1629738416.51303,1629738416.51567,1629738417.26535,1629738417.26331,1629738700.10213,0
50,4,2,3,18,3,1,c1_WhyFace,1,admiring?,5,F_759.jpg,1629738092.85128,1629738092.85388,310.681276550293,6.94078254699707,317.633869400024,319.734653224945,0.3,321.968819847107,0.716933965682983,322.687986125946,1,left,0.69950008392334,322.68575381279,604.490845432282,607.250845432281,1629738406.29256,1629738406.29492,1629738413.24515,1629738413.24825,1629738415.34593,1629738417.5801,1629738417.58221,1629738418.29927,1629738418.29703,1629738700.10213,1
50,4,2,3,18,4,1,c1_WhyFace,2,admiring?,6,F_692.jpg,1629738092.85128,1629738092.85388,310.681276550293,6.94078254699707,317.633869400024,319.734653224945,0.3,323.002538433075,0.850317239761353,323.854675045013,3,right,0.826564073562622,323.852855672836,604.490845432282,607.250845432281,1629738406.29256,1629738406.29492,1629738413.24515,1629738413.24825,1629738415.34593,1629738418.61382,1629738418.61578,1629738419.46596,1629738419.46414,1629738700.10213,0
50,4,2,3,18,5,1,c1_WhyFace,1,admiring?,4,F_779.jpg,1629738092.85128,1629738092.85388,310.681276550293,6.94078254699707,317.633869400024,319.734653224945,0.3,324.169640769959,0.666914701461792,324.838450183868,1,left,0.655896902084351,324.83655547142,604.490845432282,607.250845432281,1629738406.29256,1629738406.29492,1629738413.24515,1629738413.24825,1629738415.34593,1629738419.78092,1629738419.78302,1629738420.44973,1629738420.44784,1629738700.10213,1
50,4,2,3,18,6,1,c1_WhyFace,1,admiring?,8,F_590.jpg,1629738092.85128,1629738092.85388,310.681276550293,6.94078254699707,317.633869400024,319.734653224945,0.3,325.15334104538,0.700260877609253,325.855705966949,1,left,0.679868936538696,325.853601922989,604.490845432282,607.250845432281,1629738406.29256,1629738406.29492,1629738413.24515,1629738413.24825,1629738415.34593,1629738420.76462,1629738420.76664,1629738421.46699,1629738421.46488,1629738700.10213,1
50,4,2,3,18,7,1,c1_WhyFace,1,admiring?,7,F_648.jpg,1629738092.85128,1629738092.85388,310.681276550293,6.94078254699707,317.633869400024,319.734653224945,0.3,326.170386304855,0.783625841140747,326.956048955917,1,left,0.767587900161743,326.954012145996,604.490845432282,607.250845432281,1629738406.29256,1629738406.29492,1629738413.24515,1629738413.24825,1629738415.34593,1629738421.78167,1629738421.78373,1629738422.56733,1629738422.56529,1629738700.10213,1
50,4,2,3,18,8,1,c1_WhyFace,2,admiring?,3,F_110.jpg,1629738092.85128,1629738092.85388,310.681276550293,6.94078254699707,317.633869400024,319.734653224945,0.3,327.270796766281,0.716934680938721,327.989793052673,3,right,0.704541921615601,327.98773144722,604.490845432282,607.250845432281,1629738406.29256,1629738406.29492,1629738413.24515,1629738413.24825,1629738415.34593,1629738422.88208,1629738422.88467,1629738423.60107,1629738423.59901,1629738700.10213,0
50,4,2,3,19,1,2,c2_WhyHand,1,competing?,9,H_261.jpg,1629738092.85128,1629738092.85388,328.10444067955,7.4076714515686,335.523874750137,337.624659051895,2.10078430175781,337.774713983536,0.650242805480957,338.426803102493,1,left,0.632654905319214,338.424956789017,604.490845432282,607.250845432281,1629738423.71572,1629738423.7182,1629738431.13516,1629738431.13741,1629738433.23594,1629738433.38599,1629738433.38812,1629738434.03808,1629738434.03624,1629738700.10213,1
50,4,2,3,19,2,2,c2_WhyHand,1,competing?,15,H_170.jpg,1629738092.85128,1629738092.85388,328.10444067955,7.4076714515686,335.523874750137,337.624659051895,0.3,338.741741409302,0.566878318786621,339.310827960968,1,left,0.549523115158081,339.308619728088,604.490845432282,607.250845432281,1629738423.71572,1629738423.7182,1629738431.13516,1629738431.13741,1629738433.23594,1629738434.35302,1629738434.35533,1629738434.92211,1629738434.9199,1629738700.10213,1
50,4,2,3,19,3,2,c2_WhyHand,2,competing?,12,H_483.jpg,1629738092.85128,1629738092.85388,328.10444067955,7.4076714515686,335.523874750137,337.624659051895,0.3,339.625404348373,0.9170081615448,340.544687976837,3,right,0.898429155349731,340.542412509918,604.490845432282,607.250845432281,1629738423.71572,1629738423.7182,1629738431.13516,1629738431.13741,1629738433.23594,1629738435.23669,1629738435.23893,1629738436.15597,1629738436.15369,1629738700.10213,0
50,4,2,3,19,4,2,c2_WhyHand,1,competing?,14,H_132.jpg,1629738092.85128,1629738092.85388,328.10444067955,7.4076714515686,335.523874750137,337.624659051895,0.3,340.85919760704,0.967027425765991,341.828402986526,1,left,0.943880081176758,341.826225032806,604.490845432282,607.250845432281,1629738423.71572,1629738423.7182,1629738431.13516,1629738431.13741,1629738433.23594,1629738436.47048,1629738436.47337,1629738437.43968,1629738437.43751,1629738700.10213,1
50,4,2,3,19,5,2,c2_WhyHand,1,competing?,16,H_136.jpg,1629738092.85128,1629738092.85388,328.10444067955,7.4076714515686,335.523874750137,337.624659051895,0.3,342.14300989151,0.833643674850464,342.978787174225,1,left,0.810528993606567,342.97665356636,604.490845432282,607.250845432281,1629738423.71572,1629738423.7182,1629738431.13516,1629738431.13741,1629738433.23594,1629738437.75429,1629738437.75633,1629738438.59007,1629738438.58793,1629738700.10213,1
50,4,2,3,19,6,2,c2_WhyHand,1,competing?,13,H_003.jpg,1629738092.85128,1629738092.85388,328.10444067955,7.4076714515686,335.523874750137,337.624659051895,0.3,343.293438663483,0.666914939880371,343.962566127777,1,left,0.648581981658936,343.960353603363,604.490845432282,607.250845432281,1629738423.71572,1629738423.7182,1629738431.13516,1629738431.13741,1629738433.23594,1629738438.90472,1629738438.907,1629738439.57385,1629738439.57163,1629738700.10213,1
50,4,2,3,19,7,2,c2_WhyHand,2,competing?,10,H_126.jpg,1629738092.85128,1629738092.85388,328.10444067955,7.4076714515686,335.523874750137,337.624659051895,0.3,344.277139177322,0.0166723728179932,344.304387083054,1,left,0.000339984893798828,344.29381155014,604.490845432282,607.250845432281,1629738423.71572,1629738423.7182,1629738431.13516,1629738431.13741,1629738433.23594,1629738439.88842,1629738439.89067,1629738439.91567,1629738439.90509,1629738700.10213,0
50,4,2,3,19,8,2,c2_WhyHand,2,competing?,11,H_502.jpg,1629738092.85128,1629738092.85388,328.10444067955,7.4076714515686,335.523874750137,337.624659051895,0.3,344.610596885681,0.80029821395874,345.413429965973,3,right,0.780827045440674,345.41089509964,604.490845432282,607.250845432281,1629738423.71572,1629738423.7182,1629738431.13516,1629738431.13741,1629738433.23594,1629738440.22188,1629738440.22405,1629738441.02471,1629738441.02218,1629738700.10213,0
50,4,2,3,20,1,4,c4_HowHand,1,reaching?,111,H_003.jpg,1629738092.85128,1629738092.85388,345.527605285645,11.4644117355347,356.998549213409,359.099332323074,2.10078310966492,359.249389638901,0.900335073471069,360.154128065109,1,left,0.884416818618774,360.149724712372,604.490845432282,607.250845432281,1629738441.13889,1629738441.14109,1629738452.60983,1629738452.61537,1629738454.71061,1629738454.86067,1629738454.86543,1629738455.76541,1629738455.76101,1629738700.10213,1
50,4,2,3,20,2,4,c4_HowHand,1,reaching?,110,H_364.jpg,1629738092.85128,1629738092.85388,345.527605285645,11.4644117355347,356.998549213409,359.099332323074,0.3,360.466510047913,0.766952276229858,361.237341156006,1,left,0.748426914215088,361.233462324142,604.490845432282,607.250845432281,1629738441.13889,1629738441.14109,1629738452.60983,1629738452.61537,1629738454.71061,1629738456.07779,1629738456.08193,1629738456.84862,1629738456.84474,1629738700.10213,1
50,4,2,3,20,3,4,c4_HowHand,2,reaching?,108,H_532.jpg,1629738092.85128,1629738092.85388,345.527605285645,11.4644117355347,356.998549213409,359.099332323074,0.3,361.550245275497,0.0166735649108887,361.57141708374,1,left,0.000503063201904297,361.566918840408,604.490845432282,607.250845432281,1629738441.13889,1629738441.14109,1629738452.60983,1629738452.61537,1629738454.71061,1629738457.16153,1629738457.16533,1629738457.1827,1629738457.1782,1629738700.10213,0
50,4,2,3,20,4,4,c4_HowHand,1,reaching?,106,H_006.jpg,1629738092.85128,1629738092.85388,345.527605285645,11.4644117355347,356.998549213409,359.099332323074,0.3,361.883704175949,0.716933250427246,362.603830089569,3,right,0.703280925750732,362.600637426376,604.490845432282,607.250845432281,1629738441.13889,1629738441.14109,1629738452.60983,1629738452.61537,1629738454.71061,1629738457.49499,1629738457.49867,1629738458.21511,1629738458.21192,1629738700.10213,0
50,4,2,3,20,5,4,c4_HowHand,2,reaching?,105,H_438.jpg,1629738092.85128,1629738092.85388,345.527605285645,11.4644117355347,356.998549213409,359.099332323074,0.3,362.917423238754,1.50056028366089,364.420787086487,3,right,1.47894096374512,364.417983522415,604.490845432282,607.250845432281,1629738441.13889,1629738441.14109,1629738452.60983,1629738452.61537,1629738454.71061,1629738458.5287,1629738458.53173,1629738460.03207,1629738460.02926,1629738700.10213,0
50,4,2,3,20,6,4,c4_HowHand,1,reaching?,107,H_007.jpg,1629738092.85128,1629738092.85388,345.527605285645,11.4644117355347,356.998549213409,359.099332323074,0.3,364.734767665863,0.683589220046997,365.420902004242,1,left,0.664757966995239,365.41835688591,604.490845432282,607.250845432281,1629738441.13889,1629738441.14109,1629738452.60983,1629738452.61537,1629738454.71061,1629738460.34605,1629738460.34825,1629738461.03218,1629738461.02964,1629738700.10213,1
50,4,2,3,20,7,4,c4_HowHand,1,reaching?,109,H_474.jpg,1629738092.85128,1629738092.85388,345.527605285645,11.4644117355347,356.998549213409,359.099332323074,0.3,365.735140552521,1.00037264823914,366.737536182404,3,right,0.981703042984009,366.73551320076,604.490845432282,607.250845432281,1629738441.13889,1629738441.14109,1629738452.60983,1629738452.61537,1629738454.71061,1629738461.34642,1629738461.34863,1629738462.34882,1629738462.34679,1629738700.10213,0
50,4,2,3,20,8,4,c4_HowHand,2,reaching?,112,H_132.jpg,1629738092.85128,1629738092.85388,345.527605285645,11.4644117355347,356.998549213409,359.099332323074,0.3,367.052298536301,0.800299167633057,367.854695072174,1,left,0.77667498588562,367.852597703934,604.490845432282,607.250845432281,1629738441.13889,1629738441.14109,1629738452.60983,1629738452.61537,1629738454.71061,1629738462.66358,1629738462.66587,1629738463.46598,1629738463.46388,1629738700.10213,0
50,4,2,3,21,1,3,c3_HowFace,1,open mouth?,73,F_403.jpg,1629738092.85128,1629738092.85388,367.952634086609,6.87946605682373,374.83853553772,376.939320077896,2.10078454017639,377.089375486374,0.750280141830444,377.841709127426,1,left,0.734767913818359,377.839655628204,604.490845432282,607.250845432281,1629738463.56392,1629738463.58192,1629738470.44982,1629738470.4654,1629738472.5506,1629738472.70066,1629738472.70266,1629738473.45299,1629738473.45094,1629738700.10213,1
50,4,2,3,21,2,3,c3_HowFace,2,open mouth?,79,F_648.jpg,1629738092.85128,1629738092.85388,367.952634086609,6.87946605682373,374.83853553772,376.939320077896,0.3,378.156439533234,0.750279426574707,378.90899895668,3,right,0.728460788726807,378.906718959808,604.490845432282,607.250845432281,1629738463.56392,1629738463.58192,1629738470.44982,1629738470.4654,1629738472.5506,1629738473.76772,1629738473.76988,1629738474.52028,1629738474.518,1629738700.10213,0
50,4,2,3,21,3,3,c3_HowFace,1,open mouth?,74,F_776.jpg,1629738092.85128,1629738092.85388,367.952634086609,6.87946605682373,374.83853553772,376.939320077896,0.3,379.223504772186,0.600223541259766,379.837516059875,1,left,0.591011047363281,379.823728313446,604.490845432282,607.250845432281,1629738463.56392,1629738463.58192,1629738470.44982,1629738470.4654,1629738472.5506,1629738474.83479,1629738474.83672,1629738475.4488,1629738475.43501,1629738700.10213,1
50,4,2,3,21,4,3,c3_HowFace,2,open mouth?,77,F_584.jpg,1629738092.85128,1629738092.85388,367.952634086609,6.87946605682373,374.83853553772,376.939320077896,0.3,380.140513648987,0.78362512588501,380.926369180679,3,right,0.758822917938232,380.924138774872,604.490845432282,607.250845432281,1629738463.56392,1629738463.58192,1629738470.44982,1629738470.4654,1629738472.5506,1629738475.75179,1629738475.75376,1629738476.53765,1629738476.53542,1629738700.10213,0
50,4,2,3,21,5,3,c3_HowFace,1,open mouth?,80,F_844.jpg,1629738092.85128,1629738092.85388,367.952634086609,6.87946605682373,374.83853553772,376.939320077896,0.3,381.24092458725,0.600223064422607,381.843311061859,1,left,0.578648090362549,381.841147651672,604.490845432282,607.250845432281,1629738463.56392,1629738463.58192,1629738470.44982,1629738470.4654,1629738472.5506,1629738476.85221,1629738476.8541,1629738477.45459,1629738477.45243,1629738700.10213,1
50,4,2,3,21,6,3,c3_HowFace,1,open mouth?,78,F_692.jpg,1629738092.85128,1629738092.85388,367.952634086609,6.87946605682373,374.83853553772,376.939320077896,0.3,382.157931079865,0.666916131973267,382.83757399559,1,left,0.652436017990112,382.824847211838,604.490845432282,607.250845432281,1629738463.56392,1629738463.58192,1629738470.44982,1629738470.4654,1629738472.5506,1629738477.76921,1629738477.77144,1629738478.44885,1629738478.43613,1629738700.10213,1
50,4,2,3,21,7,3,c3_HowFace,1,open mouth?,75,F_086.jpg,1629738092.85128,1629738092.85388,367.952634086609,6.87946605682373,374.83853553772,376.939320077896,0.3,383.141633024216,0.616895437240601,383.770997037888,1,left,0.602445125579834,383.758528461456,604.490845432282,607.250845432281,1629738463.56392,1629738463.58192,1629738470.44982,1629738470.4654,1629738472.5506,1629738478.75291,1629738478.75463,1629738479.38228,1629738479.36981,1629738700.10213,1
50,4,2,3,21,8,3,c3_HowFace,2,open mouth?,76,F_544.jpg,1629738092.85128,1629738092.85388,367.952634086609,6.87946605682373,374.83853553772,376.939320077896,0.3,384.07531332016,0.733607530593872,384.820820083618,3,right,0.721719026565552,384.808920850754,604.490845432282,607.250845432281,1629738463.56392,1629738463.58192,1629738470.44982,1629738470.4654,1629738472.5506,1629738479.68659,1629738479.68901,1629738480.4321,1629738480.4202,1629738700.10213,0
50,4,2,3,22,1,1,c1_WhyFace,1,argument?,42,F_403.jpg,1629738092.85128,1629738092.85388,384.925630559921,8.58238554000854,393.512166728973,395.612949838638,2.10078310966492,395.763005962372,0.666915893554688,396.432232131958,1,left,0.636908054351807,396.429921855927,604.490845432282,607.250845432281,1629738480.53691,1629738480.54868,1629738489.12345,1629738489.1323,1629738491.22423,1629738491.37429,1629738491.3821,1629738492.04351,1629738492.0412,1629738700.10213,1
50,4,2,3,22,2,1,c1_WhyFace,2,argument?,46,F_844.jpg,1629738092.85128,1629738092.85388,384.925630559921,8.58238554000854,393.512166728973,395.612949838638,0.3,396.746705522537,0.716933727264404,397.467063179016,3,right,0.692370176315308,397.463639249802,604.490845432282,607.250845432281,1629738480.53691,1629738480.54868,1629738489.12345,1629738489.1323,1629738491.22423,1629738492.35799,1629738492.36048,1629738493.07834,1629738493.07492,1629738700.10213,0
50,4,2,3,22,3,1,c1_WhyFace,1,argument?,41,F_712.jpg,1629738092.85128,1629738092.85388,384.925630559921,8.58238554000854,393.512166728973,395.612949838638,0.3,397.780424346924,0.900335788726807,398.687479963303,1,left,0.880263090133667,398.680760135651,604.490845432282,607.250845432281,1629738480.53691,1629738480.54868,1629738489.12345,1629738489.1323,1629738491.22423,1629738493.39171,1629738493.39365,1629738494.29876,1629738494.29204,1629738700.10213,1
50,4,2,3,22,4,1,c1_WhyFace,1,argument?,48,F_758.jpg,1629738092.85128,1629738092.85388,384.925630559921,8.58238554000854,393.512166728973,395.612949838638,0.3,398.997544994354,1.06706476211548,400.066580047607,1,left,1.04373216629028,400.06460975647,604.490845432282,607.250845432281,1629738480.53691,1629738480.54868,1629738489.12345,1629738489.1323,1629738491.22423,1629738494.60883,1629738494.61095,1629738495.67786,1629738495.67589,1629738700.10213,1
50,4,2,3,22,5,1,c1_WhyFace,2,argument?,45,F_433.jpg,1629738092.85128,1629738092.85388,384.925630559921,8.58238554000854,393.512166728973,395.612949838638,0.3,400.381394615173,0.816972255706787,401.204265108109,3,right,0.799346923828125,401.19836687088,604.490845432282,607.250845432281,1629738480.53691,1629738480.54868,1629738489.12345,1629738489.1323,1629738491.22423,1629738495.99268,1629738495.99489,1629738496.81555,1629738496.80965,1629738700.10213,0
50,4,2,3,22,6,1,c1_WhyFace,1,argument?,43,F_716.jpg,1629738092.85128,1629738092.85388,384.925630559921,8.58238554000854,393.512166728973,395.612949838638,0.3,401.515150537491,1.20044875144958,402.719241132736,1,left,1.17107391357422,402.71559928894,604.490845432282,607.250845432281,1629738480.53691,1629738480.54868,1629738489.12345,1629738489.1323,1629738491.22423,1629738497.12643,1629738497.13205,1629738498.33052,1629738498.32688,1629738700.10213,1
50,4,2,3,22,7,1,c1_WhyFace,2,argument?,44,F_139.jpg,1629738092.85128,1629738092.85388,384.925630559921,8.58238554000854,393.512166728973,395.612949838638,0.3,403.03238319397,0.700261116027832,403.737475147247,3,right,0.680414915084839,403.732644309998,604.490845432282,607.250845432281,1629738480.53691,1629738480.54868,1629738489.12345,1629738489.1323,1629738491.22423,1629738498.64366,1629738498.64881,1629738499.34876,1629738499.34393,1629738700.10213,0
50,4,2,3,22,8,1,c1_WhyFace,1,argument?,47,F_743.jpg,1629738092.85128,1629738092.85388,384.925630559921,8.58238554000854,393.512166728973,395.612949838638,0.3,404.04942940712,0.783624887466431,404.837192049026,1,left,0.772162914276123,404.833054294586,604.490845432282,607.250845432281,1629738480.53691,1629738480.54868,1629738489.12345,1629738489.1323,1629738491.22423,1629738499.66071,1629738499.66531,1629738500.44847,1629738500.44434,1629738700.10213,1
50,4,2,3,23,1,2,c2_WhyHand,1,helping?,39,H_024.jpg,1629738092.85128,1629738092.85388,404.949765195847,6.77832698822021,411.735629787445,413.836412420273,2.10078263282776,413.986468305588,0.983699798583984,414.972331037521,3,right,0.961994886398315,414.970168104172,604.490845432282,607.250845432281,1629738500.56105,1629738500.56546,1629738507.34691,1629738507.34891,1629738509.44769,1629738509.59775,1629738509.59986,1629738510.58361,1629738510.58145,1629738700.10213,0
50,4,2,3,23,2,2,c2_WhyHand,1,helping?,36,H_349.jpg,1629738092.85128,1629738092.85388,404.949765195847,6.77832698822021,411.735629787445,413.836412420273,0.3,415.286953439713,0.850317239761353,416.139525165558,1,left,0.829677104949951,416.137270679474,604.490845432282,607.250845432281,1629738500.56105,1629738500.56546,1629738507.34691,1629738507.34891,1629738509.44769,1629738510.89823,1629738510.90038,1629738511.75081,1629738511.74855,1629738700.10213,1
50,4,2,3,23,3,2,c2_WhyHand,1,helping?,38,H_077.jpg,1629738092.85128,1629738092.85388,404.949765195847,6.77832698822021,411.735629787445,413.836412420273,0.3,416.454055776596,1.25046491622925,417.706900110245,3,right,1.23508906364441,417.704520692825,604.490845432282,607.250845432281,1629738500.56105,1629738500.56546,1629738507.34691,1629738507.34891,1629738509.44769,1629738512.06534,1629738512.06765,1629738513.31818,1629738513.3158,1629738700.10213,0
50,4,2,3,23,4,2,c2_WhyHand,1,helping?,37,H_474.jpg,1629738092.85128,1629738092.85388,404.949765195847,6.77832698822021,411.735629787445,413.836412420273,0.3,418.021306743622,0.800297737121582,418.838035097122,1,left,0.788860082626343,418.821604480743,604.490845432282,607.250845432281,1629738500.56105,1629738500.56546,1629738507.34691,1629738507.34891,1629738509.44769,1629738513.63259,1629738513.63474,1629738514.44932,1629738514.43289,1629738700.10213,1
50,4,2,3,23,5,2,c2_WhyHand,2,helping?,33,H_091.jpg,1629738092.85128,1629738092.85388,404.949765195847,6.77832698822021,411.735629787445,413.836412420273,0.3,419.138389816284,0.800298690795898,419.941039075851,1,left,0.784075021743774,419.93868850708,604.490845432282,607.250845432281,1629738500.56105,1629738500.56546,1629738507.34691,1629738507.34891,1629738509.44769,1629738514.74967,1629738514.75183,1629738515.55232,1629738515.54997,1629738700.10213,0
50,4,2,3,23,6,2,c2_WhyHand,2,helping?,35,H_159.jpg,1629738092.85128,1629738092.85388,404.949765195847,6.77832698822021,411.735629787445,413.836412420273,0.3,420.255473604202,0.766951322555542,421.024747123718,3,right,0.742968082427979,421.022424926758,604.490845432282,607.250845432281,1629738500.56105,1629738500.56546,1629738507.34691,1629738507.34891,1629738509.44769,1629738515.86675,1629738515.86909,1629738516.63603,1629738516.63371,1629738700.10213,0
50,4,2,3,23,7,2,c2_WhyHand,1,helping?,34,H_111.jpg,1629738092.85128,1629738092.85388,404.949765195847,6.77832698822021,411.735629787445,413.836412420273,0.3,421.339210739136,0.950353860855103,422.291707983017,1,left,0.92739200592041,422.289564599991,604.490845432282,607.250845432281,1629738500.56105,1629738500.56546,1629738507.34691,1629738507.34891,1629738509.44769,1629738516.95049,1629738516.95267,1629738517.90299,1629738517.90085,1629738700.10213,1
50,4,2,3,23,8,2,c2_WhyHand,2,helping?,40,H_012.jpg,1629738092.85128,1629738092.85388,404.949765195847,6.77832698822021,411.735629787445,413.836412420273,0.3,422.606349697113,0.933681488037109,423.554166069031,3,right,0.922273874282837,423.54003118515,604.490845432282,607.250845432281,1629738500.56105,1629738500.56546,1629738507.34691,1629738507.34891,1629738509.44769,1629738518.21763,1629738518.21981,1629738519.16545,1629738519.15131,1629738700.10213,0
50,4,2,3,24,1,4,c4_HowHand,1,both hands?,122,H_111.jpg,1629738092.85128,1629738092.85388,423.673414459229,6.1246235370636,429.80903553009,431.909819116592,2.10078358650208,432.059875001907,0.917008399963379,432.987917175293,1,left,0.902004957199097,432.976883401871,604.490845432282,607.250845432281,1629738519.2847,1629738519.28693,1629738525.42032,1629738525.42268,1629738527.5211,1629738527.67116,1629738527.67333,1629738528.5992,1629738528.58816,1629738700.10213,1
50,4,2,3,24,2,4,c4_HowHand,1,both hands?,128,H_027.jpg,1629738092.85128,1629738092.85388,423.673414459229,6.1246235370636,429.80903553009,431.909819116592,0.3,433.293668737412,0.766952991485596,434.071050157547,1,left,0.749650955200195,434.060621728897,604.490845432282,607.250845432281,1629738519.2847,1629738519.28693,1629738525.42032,1629738525.42268,1629738527.5211,1629738528.90495,1629738528.90723,1629738529.68233,1629738529.6719,1629738700.10213,1
50,4,2,3,24,3,4,c4_HowHand,2,both hands?,121,H_091.jpg,1629738092.85128,1629738092.85388,423.673414459229,6.1246235370636,429.80903553009,431.909819116592,0.3,434.377405872345,0.883663415908813,435.270925989151,3,right,0.871148109436035,435.261069288254,604.490845432282,607.250845432281,1629738519.2847,1629738519.28693,1629738525.42032,1629738525.42268,1629738527.5211,1629738529.98869,1629738529.9909,1629738530.88221,1629738530.87235,1629738700.10213,0
50,4,2,3,24,4,4,c4_HowHand,1,both hands?,123,H_167.jpg,1629738092.85128,1629738092.85388,423.673414459229,6.1246235370636,429.80903553009,431.909819116592,0.3,435.577853431702,0.866990566253662,436.447086086273,1,left,0.842414855957031,436.444843997955,604.490845432282,607.250845432281,1629738519.2847,1629738519.28693,1629738525.42032,1629738525.42268,1629738527.5211,1629738531.18913,1629738531.19188,1629738532.05837,1629738532.05612,1629738700.10213,1
50,4,2,3,24,5,4,c4_HowHand,1,both hands?,124,H_581.jpg,1629738092.85128,1629738092.85388,423.673414459229,6.1246235370636,429.80903553009,431.909819116592,0.3,436.76162861824,0.716933727264404,437.480945100784,1,left,0.696190118789673,437.478562345505,604.490845432282,607.250845432281,1629738519.2847,1629738519.28693,1629738525.42032,1629738525.42268,1629738527.5211,1629738532.37291,1629738532.37514,1629738533.09223,1629738533.08984,1629738700.10213,1
50,4,2,3,24,6,4,c4_HowHand,2,both hands?,126,H_159.jpg,1629738092.85128,1629738092.85388,423.673414459229,6.1246235370636,429.80903553009,431.909819116592,0.3,437.795347919464,0.816971063613892,438.614483108521,3,right,0.792670965194702,438.612318983078,604.490845432282,607.250845432281,1629738519.2847,1629738519.28693,1629738525.42032,1629738525.42268,1629738527.5211,1629738533.40663,1629738533.40884,1629738534.22576,1629738534.2236,1629738700.10213,0
50,4,2,3,24,7,4,c4_HowHand,1,both hands?,127,H_349.jpg,1629738092.85128,1629738092.85388,423.673414459229,6.1246235370636,429.80903553009,431.909819116592,0.3,438.929103603363,0.866989612579346,439.804280033112,1,left,0.850482940673828,439.796093215942,604.490845432282,607.250845432281,1629738519.2847,1629738519.28693,1629738525.42032,1629738525.42268,1629738527.5211,1629738534.54038,1629738534.54233,1629738535.41556,1629738535.40737,1629738700.10213,1
50,4,2,3,24,8,4,c4_HowHand,2,both hands?,125,H_627.jpg,1629738092.85128,1629738092.85388,423.673414459229,6.1246235370636,429.80903553009,431.909819116592,0.3,440.112878313065,0.90033483505249,441.015815963745,3,right,0.877886056900024,441.013213148117,604.490845432282,607.250845432281,1629738519.2847,1629738519.28693,1629738525.42032,1629738525.42268,1629738527.5211,1629738535.72416,1629738535.72631,1629738536.6271,1629738536.62449,1629738700.10213,0
50,4,2,3,25,1,2,c2_WhyHand,1,healthy?,18,H_438.jpg,1629738092.85128,1629738092.85388,441.129924764633,6.18510222434998,447.332236280441,449.433020582199,2.10078430175781,449.583076467514,0.850317001342773,450.437843074799,1,left,0.830642938613892,450.433393468857,604.490845432282,607.250845432281,1629738536.74121,1629738536.74871,1629738542.94352,1629738542.94568,1629738545.0443,1629738545.19436,1629738545.19659,1629738546.04912,1629738546.04467,1629738700.10213,1
50,4,2,3,25,2,2,c2_WhyHand,1,healthy?,23,H_364.jpg,1629738092.85128,1629738092.85388,441.129924764633,6.18510222434998,447.332236280441,449.433020582199,0.3,450.750178804398,0.750279426574707,451.504358043671,1,left,0.738273143768311,451.500458230972,604.490845432282,607.250845432281,1629738536.74121,1629738536.74871,1629738542.94352,1629738542.94568,1629738545.0443,1629738546.36146,1629738546.36538,1629738547.11564,1629738547.11174,1629738700.10213,1
50,4,2,3,25,3,2,c2_WhyHand,1,healthy?,17,H_362.jpg,1629738092.85128,1629738092.85388,441.129924764633,6.18510222434998,447.332236280441,449.433020582199,0.3,451.817242851257,0.683588743209839,452.504188051224,1,left,0.660355091094971,452.500831594467,604.490845432282,607.250845432281,1629738536.74121,1629738536.74871,1629738542.94352,1629738542.94568,1629738545.0443,1629738547.42852,1629738547.43182,1629738548.11547,1629738548.11211,1629738700.10213,1
50,4,2,3,25,4,2,c2_WhyHand,2,healthy?,24,H_019.jpg,1629738092.85128,1629738092.85388,441.129924764633,6.18510222434998,447.332236280441,449.433020582199,0.3,452.817615261078,0.833645582199097,453.653815021515,3,right,0.821038007736206,453.651260843277,604.490845432282,607.250845432281,1629738536.74121,1629738536.74871,1629738542.94352,1629738542.94568,1629738545.0443,1629738548.4289,1629738548.43194,1629738549.2651,1629738549.26254,1629738700.10213,0
50,4,2,3,25,5,2,c2_WhyHand,1,healthy?,19,H_167.jpg,1629738092.85128,1629738092.85388,441.129924764633,6.18510222434998,447.332236280441,449.433020582199,0.3,453.968044748306,0.666915893554688,454.637668123245,1,left,0.648710966110229,454.634960641861,604.490845432282,607.250845432281,1629738536.74121,1629738536.74871,1629738542.94352,1629738542.94568,1629738545.0443,1629738549.57933,1629738549.582,1629738550.24895,1629738550.24624,1629738700.10213,1
50,4,2,3,25,6,2,c2_WhyHand,2,healthy?,20,H_007.jpg,1629738092.85128,1629738092.85388,441.129924764633,6.18510222434998,447.332236280441,449.433020582199,0.3,454.951744308472,0.700262069702148,455.653925170898,1,left,0.688514947891235,455.652006378174,604.490845432282,607.250845432281,1629738536.74121,1629738536.74871,1629738542.94352,1629738542.94568,1629738545.0443,1629738550.56303,1629738550.56539,1629738551.26521,1629738551.26329,1629738700.10213,0
50,4,2,3,25,7,2,c2_WhyHand,1,healthy?,21,H_627.jpg,1629738092.85128,1629738092.85388,441.129924764633,6.18510222434998,447.332236280441,449.433020582199,0.3,455.968791236877,1.30048537254333,457.271413078308,3,right,1.28308200836182,457.269276609421,604.490845432282,607.250845432281,1629738536.74121,1629738536.74871,1629738542.94352,1629738542.94568,1629738545.0443,1629738551.58007,1629738551.58223,1629738552.88269,1629738552.88056,1629738700.10213,0
50,4,2,3,25,8,2,c2_WhyHand,2,healthy?,22,H_130.jpg,1629738092.85128,1629738092.85388,441.129924764633,6.18510222434998,447.332236280441,449.433020582199,0.3,457.586060037613,1.20044851303101,458.804282178879,3,right,1.19100284576416,458.786508550644,604.490845432282,607.250845432281,1629738536.74121,1629738536.74871,1629738542.94352,1629738542.94568,1629738545.0443,1629738553.19734,1629738553.19936,1629738554.41556,1629738554.39779,1629738700.10213,0
50,4,2,3,26,1,4,c4_HowHand,1,pressing button?,82,H_126.jpg,1629738092.85128,1629738092.85388,458.919891347885,7.44916081428528,466.372671833038,468.473454704285,2.10078287124634,468.6235105896,0.833643674850464,469.470882167816,1,left,0.811498165130615,469.45715426445,604.490845432282,607.250845432281,1629738554.53117,1629738554.53321,1629738561.98395,1629738561.99891,1629738564.08474,1629738564.23479,1629738564.24874,1629738565.08216,1629738565.06844,1629738700.10213,1
50,4,2,3,26,2,4,c4_HowHand,2,pressing button?,85,H_130.jpg,1629738092.85128,1629738092.85388,458.919891347885,7.44916081428528,466.372671833038,468.473454704285,0.3,469.773939123154,0.700261831283569,470.476747026443,3,right,0.681973934173584,470.474200954437,604.490845432282,607.250845432281,1629738554.53117,1629738554.53321,1629738561.98395,1629738561.99891,1629738564.08474,1629738565.38522,1629738565.3875,1629738566.08803,1629738566.08548,1629738700.10213,0
50,4,2,3,26,3,4,c4_HowHand,1,pressing button?,84,H_483.jpg,1629738092.85128,1629738092.85388,458.919891347885,7.44916081428528,466.372671833038,468.473454704285,0.3,470.790985574722,0.683588266372681,471.477293958664,1,left,0.661643981933594,471.474573841095,604.490845432282,607.250845432281,1629738554.53117,1629738554.53321,1629738561.98395,1629738561.99891,1629738564.08474,1629738566.40227,1629738566.40474,1629738567.08857,1629738567.08585,1629738700.10213,1
50,4,2,3,26,4,4,c4_HowHand,2,pressing button?,87,H_024.jpg,1629738092.85128,1629738092.85388,458.919891347885,7.44916081428528,466.372671833038,468.473454704285,0.3,471.791358222961,0.766952514648438,472.560649147034,3,right,0.746104955673218,472.55831073761,604.490845432282,607.250845432281,1629738554.53117,1629738554.53321,1629738561.98395,1629738561.99891,1629738564.08474,1629738567.40264,1629738567.40499,1629738568.17193,1629738568.16959,1629738700.10213,0
50,4,2,3,26,5,4,c4_HowHand,1,pressing button?,86,H_332.jpg,1629738092.85128,1629738092.85388,458.919891347885,7.44916081428528,466.372671833038,468.473454704285,0.3,472.875095834732,0.733606576919556,473.61069606781,1,left,0.708893060684204,473.608702411652,604.490845432282,607.250845432281,1629738554.53117,1629738554.53321,1629738561.98395,1629738561.99891,1629738564.08474,1629738568.48638,1629738568.48838,1629738569.22198,1629738569.21998,1629738700.10213,1
50,4,2,3,26,6,4,c4_HowHand,1,pressing button?,88,H_019.jpg,1629738092.85128,1629738092.85388,458.919891347885,7.44916081428528,466.372671833038,468.473454704285,0.3,473.925487747192,0.816971778869629,474.754026165009,1,left,0.800504922866821,474.742459526062,604.490845432282,607.250845432281,1629738554.53117,1629738554.53321,1629738561.98395,1629738561.99891,1629738564.08474,1629738569.53677,1629738569.53858,1629738570.36531,1629738570.35374,1629738700.10213,1
50,4,2,3,26,7,4,c4_HowHand,2,pressing button?,81,H_261.jpg,1629738092.85128,1629738092.85388,458.919891347885,7.44916081428528,466.372671833038,468.473454704285,0.3,475.059242954254,0.917009830474854,475.987662067413,3,right,0.903527021408081,475.976252784729,604.490845432282,607.250845432281,1629738554.53117,1629738554.53321,1629738561.98395,1629738561.99891,1629738564.08474,1629738570.67052,1629738570.67264,1629738571.59894,1629738571.58753,1629738700.10213,0
50,4,2,3,26,8,4,c4_HowHand,1,pressing button?,83,H_502.jpg,1629738092.85128,1629738092.85388,458.919891347885,7.44916081428528,466.372671833038,468.473454704285,0.3,476.293037643433,0.683588027954102,476.978816022873,1,left,0.666063785552979,476.976625671387,604.490845432282,607.250845432281,1629738554.53117,1629738554.53321,1629738561.98395,1629738561.99891,1629738564.08474,1629738571.90432,1629738571.90649,1629738572.5901,1629738572.58791,1629738700.10213,1
50,4,2,3,27,1,3,c3_HowFace,1,looking at camera?,60,F_618.jpg,1629738092.85128,1629738092.85388,477.093335618973,6.80569434165955,483.912545433044,486.013328542709,2.10078310966492,486.163384666443,0.633570432662964,486.804340114594,1,left,0.617916107177734,486.796955099106,604.490845432282,607.250845432281,1629738572.70462,1629738572.71554,1629738579.52383,1629738579.53176,1629738581.62461,1629738581.77467,1629738581.78281,1629738582.41562,1629738582.40824,1629738700.10213,1
50,4,2,3,27,2,3,c3_HowFace,2,looking at camera?,58,F_754.jpg,1629738092.85128,1629738092.85388,477.093335618973,6.80569434165955,483.912545433044,486.013328542709,0.3,487.113738765717,0.733607769012451,487.849898090363,3,right,0.710038185119629,487.847346534729,604.490845432282,607.250845432281,1629738572.70462,1629738572.71554,1629738579.52383,1629738579.53176,1629738581.62461,1629738582.72502,1629738582.72723,1629738583.46118,1629738583.45863,1629738700.10213,0
50,4,2,3,27,3,3,c3_HowFace,1,looking at camera?,59,F_129.jpg,1629738092.85128,1629738092.85388,477.093335618973,6.80569434165955,483.912545433044,486.013328542709,0.3,488.16413020134,0.600224256515503,488.771213998795,1,left,0.588513851165771,488.764354457855,604.490845432282,607.250845432281,1629738572.70462,1629738572.71554,1629738579.52383,1629738579.53176,1629738581.62461,1629738583.77541,1629738583.77752,1629738584.38249,1629738584.37564,1629738700.10213,1
50,4,2,3,27,4,3,c3_HowFace,1,looking at camera?,62,F_598.jpg,1629738092.85128,1629738092.85388,477.093335618973,6.80569434165955,483.912545433044,486.013328542709,0.3,489.081139554977,0.666914939880371,489.754278173447,1,left,0.648439168930054,489.748054494858,604.490845432282,607.250845432281,1629738572.70462,1629738572.71554,1629738579.52383,1629738579.53176,1629738581.62461,1629738584.69242,1629738584.69455,1629738585.36556,1629738585.35934,1629738700.10213,1
50,4,2,3,27,5,3,c3_HowFace,1,looking at camera?,64,F_128.jpg,1629738092.85128,1629738092.85388,477.093335618973,6.80569434165955,483.912545433044,486.013328542709,0.3,490.06483959198,0.750280618667603,490.820757141113,1,left,0.727425813674927,490.815120210648,604.490845432282,607.250845432281,1629738572.70462,1629738572.71554,1629738579.52383,1629738579.53176,1629738581.62461,1629738585.67612,1629738585.67857,1629738586.43204,1629738586.4264,1629738700.10213,1
50,4,2,3,27,6,3,c3_HowFace,2,looking at camera?,57,F_582.jpg,1629738092.85128,1629738092.85388,477.093335618973,6.80569434165955,483.912545433044,486.013328542709,0.3,491.131904354095,0.917008399963379,492.05402015686,3,right,0.903141975402832,492.048912754059,604.490845432282,607.250845432281,1629738572.70462,1629738572.71554,1629738579.52383,1629738579.53176,1629738581.62461,1629738586.74319,1629738586.74894,1629738587.6653,1629738587.66019,1629738700.10213,0
50,4,2,3,27,7,3,c3_HowFace,1,looking at camera?,61,F_774.jpg,1629738092.85128,1629738092.85388,477.093335618973,6.80569434165955,483.912545433044,486.013328542709,0.3,492.365698566437,0.633569240570068,493.002120008469,1,left,0.606536149978638,492.999267807007,604.490845432282,607.250845432281,1629738572.70462,1629738572.71554,1629738579.52383,1629738579.53176,1629738581.62461,1629738587.97698,1629738587.98227,1629738588.6134,1629738588.61055,1629738700.10213,1
