src_subject_id,session_id,run_id,param_counterbalance_ver,param_block_num,param_trial_num,param_cond_type_num,param_cond_type_string,param_normative_response,param_ques_type_string,param_image_num,param_image_filename,param_trigger_onset,param_start_biopac,event01_fixation,event01_fixation_dur,event01_blockquestion_onset,event01_block_isi_blacksreen,event01_blockquestion_dur,event02_image_onset,event02_image_dur,event03_response_onset,event03_response_key,event03_response_keyname,event03_RT,event04_shortquestion_onset,param_end_instruct_onset,param_experiment_duration,RAW_e1_fixation,RAW_e1_fixation_biopac,RAW_e1_blockquestion_onset,RAW_e1_blockquestion_onset_biopac,RAW_e1_block_isi_blacksreen,RAW_e2_image_onset,RAW_e2_image_onset_biopac,RAW_e3_response_onset,RAW_e4_shortquestion_onset,RAW_param_end_instruct_onset,accuracy
124,4,2,2,1,1,3,c3_HowFace,1,smiling?,115,F_695.jpg,1653599630.38601,1653599630.38834,0.0282397174835203,0.0252041816711426,0.061585416793823,2.11241101264954,2.05082559585571,2.26246999740601,1.16713666915894,3.43145393371582,1,left,1.14263582229614,3.42960666656494,604.471220722198,607.231220722198,1653599633.17425,1653599633.17991,1653599633.2076,1653599633.2088,1653599635.25842,1653599635.40848,1653599635.41056,1653599636.57747,1653599636.57562,1653600237.61723,1
124,4,2,2,1,2,3,c3_HowFace,2,smiling?,114,F_412.jpg,1653599630.38601,1653599630.38834,0.0282397174835203,0.0252041816711426,0.061585416793823,2.11241101264954,0.3,3.74640034675598,0.733627796173096,4.48145603179932,3,right,0.711694002151489,4.48002814292908,604.471220722198,607.231220722198,1653599633.17425,1653599633.17991,1653599633.2076,1653599633.2088,1653599635.25842,1653599636.89241,1653599636.89394,1653599637.62747,1653599637.62604,1653600237.61723,0
124,4,2,2,1,3,3,c3_HowFace,1,smiling?,117,F_593.jpg,1653599630.38601,1653599630.38834,0.0282397174835203,0.0252041816711426,0.061585416793823,2.11241101264954,0.3,4.79682253837585,0.633588075637817,5.4323680305481,1,left,0.609910011291504,5.43041061401367,604.471220722198,607.231220722198,1653599633.17425,1653599633.17991,1653599633.2076,1653599633.2088,1653599635.25842,1653599637.94284,1653599637.94454,1653599638.57838,1653599638.57642,1653600237.61723,1
124,4,2,2,1,4,3,c3_HowFace,1,smiling?,119,F_139.jpg,1653599630.38601,1653599630.38834,0.0282397174835203,0.0252041816711426,0.061585416793823,2.11241101264954,0.3,5.74720429420471,0.583568096160889,6.33203791618347,1,left,0.563742160797119,6.3307723903656,604.471220722198,607.231220722198,1653599633.17425,1653599633.17991,1653599633.2076,1653599633.2088,1653599635.25842,1653599638.89322,1653599638.89487,1653599639.47805,1653599639.47679,1653600237.61723,1
124,4,2,2,1,5,3,c3_HowFace,2,smiling?,113,F_712.jpg,1653599630.38601,1653599630.38834,0.0282397174835203,0.0252041816711426,0.061585416793823,2.11241101264954,0.3,6.6475665473938,0.516875267028809,7.16677593231201,3,right,0.489968061447144,7.16444181442261,604.471220722198,607.231220722198,1653599633.17425,1653599633.17991,1653599633.2076,1653599633.2088,1653599635.25842,1653599639.79358,1653599639.79639,1653599640.31279,1653599640.31045,1653600237.61723,0
124,4,2,2,1,6,3,c3_HowFace,1,smiling?,118,F_759.jpg,1653599630.38601,1653599630.38834,0.0282397174835203,0.0252041816711426,0.061585416793823,2.11241101264954,0.3,7.48123501777649,0.466854572296143,7.94926403999329,1,left,0.447256088256836,7.94808959007263,604.471220722198,607.231220722198,1653599633.17425,1653599633.17991,1653599633.2076,1653599633.2088,1653599635.25842,1653599640.62725,1653599640.62922,1653599641.09528,1653599641.0941,1653600237.61723,1
124,4,2,2,1,7,3,c3_HowFace,2,smiling?,120,F_758.jpg,1653599630.38601,1653599630.38834,0.0282397174835203,0.0252041816711426,0.061585416793823,2.11241101264954,0.3,8.26488303184509,0.650261640548706,8.92528389930725,3,right,0.642717123031616,8.9151446723938,604.471220722198,607.231220722198,1653599633.17425,1653599633.17991,1653599633.2076,1653599633.2088,1653599635.25842,1653599641.4109,1653599641.41272,1653599642.0713,1653599642.06116,1653600237.61723,0
124,4,2,2,1,8,3,c3_HowFace,1,smiling?,116,F_083.jpg,1653599630.38601,1653599630.38834,0.0282397174835203,0.0252041816711426,0.061585416793823,2.11241101264954,0.3,9.23193906784058,0.466854572296143,9.70864986419678,1,left,0.454222917556763,9.69879364013672,604.471220722198,607.231220722198,1653599633.17425,1653599633.17991,1653599633.2076,1653599633.2088,1653599635.25842,1653599642.37795,1653599642.37942,1653599642.85466,1653599642.84481,1653600237.61723,1
124,4,2,2,2,1,1,c1_WhyFace,1,admiring?,4,F_779.jpg,1653599630.38601,1653599630.38834,9.81550597190857,8.02567005157471,17.8520705604553,19.9529154205322,2.1008448600769,20.1029751205444,0.616915464401245,20.7218570613861,1,left,0.590846061706543,20.7198905849457,604.471220722198,607.231220722198,1653599642.96152,1653599642.97172,1653599650.99808,1653599651.00588,1653599653.09893,1653599653.24899,1653599653.25595,1653599653.86787,1653599653.8659,1653600237.61723,1
124,4,2,2,2,2,1,c1_WhyFace,2,admiring?,3,F_110.jpg,1653599630.38601,1653599630.38834,9.81550597190857,8.02567005157471,17.8520705604553,19.9529154205322,0.3,21.0366842651367,0.633588314056396,21.6760480308533,3,right,0.615226030349731,21.6702725791931,604.471220722198,607.231220722198,1653599642.96152,1653599642.97172,1653599650.99808,1653599651.00588,1653599653.09893,1653599654.1827,1653599654.18463,1653599654.82206,1653599654.81629,1653600237.61723,0
124,4,2,2,2,3,1,c1_WhyFace,1,admiring?,8,F_590.jpg,1653599630.38601,1653599630.38834,9.81550597190857,8.02567005157471,17.8520705604553,19.9529154205322,0.3,21.9870664978027,0.500201225280762,22.4929509067535,1,left,0.484471082687378,22.4872677230835,604.471220722198,607.231220722198,1653599642.96152,1653599642.97172,1653599650.99808,1653599651.00588,1653599653.09893,1653599655.13308,1653599655.13503,1653599655.63896,1653599655.63328,1653600237.61723,1
124,4,2,2,2,4,1,c1_WhyFace,1,admiring?,7,F_648.jpg,1653599630.38601,1653599630.38834,9.81550597190857,8.02567005157471,17.8520705604553,19.9529154205322,0.3,22.8040614032745,0.616914033889771,23.4257268810272,1,left,0.597670078277588,23.4209754371643,604.471220722198,607.231220722198,1653599642.96152,1653599642.97172,1653599650.99808,1653599651.00588,1653599653.09893,1653599655.95007,1653599655.95206,1653599656.57174,1653599656.56699,1653600237.61723,1
124,4,2,2,2,5,1,c1_WhyFace,1,admiring?,5,F_759.jpg,1653599630.38601,1653599630.38834,9.81550597190857,8.02567005157471,17.8520705604553,19.9529154205322,0.3,23.7377707862854,0.483526468276978,24.2263059520721,1,left,0.47086501121521,24.2212972545624,604.471220722198,607.231220722198,1653599642.96152,1653599642.97172,1653599650.99808,1653599651.00588,1653599653.09893,1653599656.88378,1653599656.88553,1653599657.37232,1653599657.36731,1653600237.61723,1
124,4,2,2,2,6,1,c1_WhyFace,2,admiring?,2,F_129.jpg,1653599630.38601,1653599630.38834,9.81550597190857,8.02567005157471,17.8520705604553,19.9529154205322,0.3,24.538092842102,0.533546447753906,25.0755960845947,3,right,0.525720119476318,25.071639289856,604.471220722198,607.231220722198,1653599642.96152,1653599642.97172,1653599650.99808,1653599651.00588,1653599653.09893,1653599657.68411,1653599657.68576,1653599658.22161,1653599658.21765,1653600237.61723,0
124,4,2,2,2,7,1,c1_WhyFace,1,admiring?,1,F_593.jpg,1653599630.38601,1653599630.38834,9.81550597190857,8.02567005157471,17.8520705604553,19.9529154205322,0.3,25.3884332084656,0.433507204055786,25.8263909721374,1,left,0.421247005462646,25.8219404125214,604.471220722198,607.231220722198,1653599642.96152,1653599642.97172,1653599650.99808,1653599651.00588,1653599653.09893,1653599658.53445,1653599658.53875,1653599658.9724,1653599658.96795,1653600237.61723,1
124,4,2,2,2,8,1,c1_WhyFace,2,admiring?,6,F_692.jpg,1653599630.38601,1653599630.38834,9.81550597190857,8.02567005157471,17.8520705604553,19.9529154205322,0.3,26.1387352848053,0.550220966339111,26.6931669616699,3,right,0.530373096466064,26.6889562511444,604.471220722198,607.231220722198,1653599642.96152,1653599642.97172,1653599650.99808,1653599651.00588,1653599653.09893,1653599659.28475,1653599659.28895,1653599659.83918,1653599659.83497,1653600237.61723,0
124,4,2,2,3,1,2,c2_WhyHand,1,healthy?,23,H_364.jpg,1653599630.38601,1653599630.38834,26.7889959716797,10.1060779094696,36.9097316169739,39.010575761795,2.10084414482117,39.1606373691559,1.26717472076416,40.4295310878754,1,left,1.25056910514832,40.42781208992,604.471220722198,607.231220722198,1653599659.93501,1653599659.93927,1653599670.05574,1653599670.05787,1653599672.15659,1653599672.30665,1653599672.30838,1653599673.57554,1653599673.57383,1653600237.61723,1
124,4,2,2,3,2,2,c2_WhyHand,2,healthy?,20,H_007.jpg,1653599630.38601,1653599630.38834,26.7889959716797,10.1060779094696,36.9097316169739,39.010575761795,0.3,40.7446060085297,1.71735739707947,42.4691259765625,3,right,1.70282096862793,42.4619634056091,604.471220722198,607.231220722198,1653599659.93501,1653599659.93927,1653599670.05574,1653599670.05787,1653599672.15659,1653599673.89062,1653599673.89212,1653599675.61514,1653599675.60798,1653600237.61723,0
124,4,2,2,3,3,2,c2_WhyHand,1,healthy?,19,H_167.jpg,1653599630.38601,1653599630.38834,26.7889959716797,10.1060779094696,36.9097316169739,39.010575761795,0.3,42.7787589931488,0.833667278289795,43.6141779327393,1,left,0.821202039718628,43.6124262714386,604.471220722198,607.231220722198,1653599659.93501,1653599659.93927,1653599670.05574,1653599670.05787,1653599672.15659,1653599675.92477,1653599675.92693,1653599676.76019,1653599676.75844,1653600237.61723,1
124,4,2,2,3,4,2,c2_WhyHand,2,healthy?,22,H_130.jpg,1653599630.38601,1653599630.38834,26.7889959716797,10.1060779094696,36.9097316169739,39.010575761795,0.3,43.9292204284668,1.1004421710968,45.0308430099487,3,right,1.0859739780426,45.0296625995636,604.471220722198,607.231220722198,1653599659.93501,1653599659.93927,1653599670.05574,1653599670.05787,1653599672.15659,1653599677.07523,1653599677.0769,1653599678.17686,1653599678.17568,1653600237.61723,0
124,4,2,2,3,5,2,c2_WhyHand,1,healthy?,18,H_438.jpg,1653599630.38601,1653599630.38834,26.7889959716797,10.1060779094696,36.9097316169739,39.010575761795,0.3,45.3464562797546,0.733628034591675,46.0935459041595,1,left,0.725813150405884,46.0800843143463,604.471220722198,607.231220722198,1653599659.93501,1653599659.93927,1653599670.05574,1653599670.05787,1653599672.15659,1653599678.49247,1653599678.49406,1653599679.23956,1653599679.2261,1653600237.61723,1
124,4,2,2,3,6,2,c2_WhyHand,2,healthy?,24,H_019.jpg,1653599630.38601,1653599630.38834,26.7889959716797,10.1060779094696,36.9097316169739,39.010575761795,0.3,46.3968784713745,0.850342988967896,47.2490570449829,3,right,0.829192161560059,47.2472214603424,604.471220722198,607.231220722198,1653599659.93501,1653599659.93927,1653599670.05574,1653599670.05787,1653599672.15659,1653599679.54289,1653599679.5445,1653599680.39507,1653599680.39323,1653600237.61723,0
124,4,2,2,3,7,2,c2_WhyHand,1,healthy?,17,H_362.jpg,1653599630.38601,1653599630.38834,26.7889959716797,10.1060779094696,36.9097316169739,39.010575761795,0.3,47.5640141868591,0.583568334579468,48.1602179908752,1,left,0.572265863418579,48.1475825214386,604.471220722198,607.231220722198,1653599659.93501,1653599659.93927,1653599670.05574,1653599670.05787,1653599672.15659,1653599680.71003,1653599680.712,1653599681.30623,1653599681.2936,1653600237.61723,1
124,4,2,2,3,8,2,c2_WhyHand,1,healthy?,21,H_627.jpg,1653599630.38601,1653599630.38834,26.7889959716797,10.1060779094696,36.9097316169739,39.010575761795,0.3,48.4643764400482,0.950381755828857,49.4264440441132,1,left,0.939412117004395,49.4147581958771,604.471220722198,607.231220722198,1653599659.93501,1653599659.93927,1653599670.05574,1653599670.05787,1653599672.15659,1653599681.61039,1653599681.61214,1653599682.57246,1653599682.56077,1653600237.61723,1
124,4,2,2,4,1,4,c4_HowHand,1,pressing button?,82,H_126.jpg,1653599630.38601,1653599630.38834,49.4981253051758,6.36100172996521,55.86735247612,57.9681970977783,2.10084462165833,58.1182570362091,0.683608293533325,58.8102729225159,1,left,0.667819023132324,58.8018653297424,604.471220722198,607.231220722198,1653599682.64414,1653599682.64591,1653599689.01337,1653599689.02379,1653599691.11421,1653599691.26427,1653599691.27355,1653599691.95629,1653599691.94788,1653600237.61723,1
124,4,2,2,4,2,4,c4_HowHand,1,pressing button?,86,H_332.jpg,1653599630.38601,1653599630.38834,49.4981253051758,6.36100172996521,55.86735247612,57.9681970977783,0.3,59.118657579422,0.550223112106323,59.6768569850922,1,left,0.538541078567505,59.6688806915283,604.471220722198,607.231220722198,1653599682.64414,1653599682.64591,1653599689.01337,1653599689.02379,1653599691.11421,1653599692.26467,1653599692.26631,1653599692.82287,1653599692.81489,1653600237.61723,1
124,4,2,2,4,3,4,c4_HowHand,2,pressing button?,81,H_261.jpg,1653599630.38601,1653599630.38834,49.4981253051758,6.36100172996521,55.86735247612,57.9681970977783,0.3,59.9856743717194,0.566895246505737,60.554110994339,3,right,0.54866099357605,60.5525696182251,604.471220722198,607.231220722198,1653599682.64414,1653599682.64591,1653599689.01337,1653599689.02379,1653599691.11421,1653599693.13169,1653599693.13334,1653599693.70012,1653599693.69858,1653600237.61723,0
124,4,2,2,4,4,4,c4_HowHand,2,pressing button?,87,H_024.jpg,1653599630.38601,1653599630.38834,49.4981253051758,6.36100172996521,55.86735247612,57.9681970977783,0.3,60.8693637752533,0.550220727920532,61.4269130134583,1,left,0.538764953613281,61.4195845031738,604.471220722198,607.231220722198,1653599682.64414,1653599682.64591,1653599689.01337,1653599689.02379,1653599691.11421,1653599694.01538,1653599694.01717,1653599694.57293,1653599694.5656,1653600237.61723,0
124,4,2,2,4,5,4,c4_HowHand,1,pressing button?,83,H_502.jpg,1653599630.38601,1653599630.38834,49.4981253051758,6.36100172996521,55.86735247612,57.9681970977783,0.3,61.736378660202,0.566894769668579,62.3101489448547,1,left,0.549827098846436,62.3032734298706,604.471220722198,607.231220722198,1653599682.64414,1653599682.64591,1653599689.01337,1653599689.02379,1653599691.11421,1653599694.88239,1653599694.88395,1653599695.45616,1653599695.44929,1653600237.61723,1
124,4,2,2,4,6,4,c4_HowHand,2,pressing button?,85,H_130.jpg,1653599630.38601,1653599630.38834,49.4981253051758,6.36100172996521,55.86735247612,57.9681970977783,0.3,62.6200673484802,0.616914987564087,63.243613948822,3,right,0.603799104690552,63.2369823360443,604.471220722198,607.231220722198,1653599682.64414,1653599682.64591,1653599689.01337,1653599689.02379,1653599691.11421,1653599695.76608,1653599695.76738,1653599696.38963,1653599696.383,1653600237.61723,0
124,4,2,2,4,7,4,c4_HowHand,1,pressing button?,88,H_019.jpg,1653599630.38601,1653599630.38834,49.4981253051758,6.36100172996521,55.86735247612,57.9681970977783,0.3,63.5537764930725,0.63358736038208,64.1935200595856,1,left,0.618755102157593,64.1873638534546,604.471220722198,607.231220722198,1653599682.64414,1653599682.64591,1653599689.01337,1653599689.02379,1653599691.11421,1653599696.69979,1653599696.70137,1653599697.33953,1653599697.33338,1653600237.61723,1
124,4,2,2,4,8,4,c4_HowHand,1,pressing button?,84,H_483.jpg,1653599630.38601,1653599630.38834,49.4981253051758,6.36100172996521,55.86735247612,57.9681970977783,0.3,64.504157295227,0.900362253189087,65.4102380180359,1,left,0.880612134933472,65.4045195484161,604.471220722198,607.231220722198,1653599682.64414,1653599682.64591,1653599689.01337,1653599689.02379,1653599691.11421,1653599697.65017,1653599697.65204,1653599698.55625,1653599698.55053,1653600237.61723,1
124,4,2,2,5,1,3,c3_HowFace,1,looking to side?,72,F_590.jpg,1653599630.38601,1653599630.38834,65.4712130928039,8.17869591712952,73.6578376197815,75.7586822414398,2.10084462165833,75.9087412261963,0.500202178955078,76.4100098514557,1,left,0.476116895675659,76.4089434051514,604.471220722198,607.231220722198,1653599698.61723,1653599698.62007,1653599706.80385,1653599706.80846,1653599708.9047,1653599709.05475,1653599709.05738,1653599709.55602,1653599709.55496,1653600237.61723,1
124,4,2,2,5,2,3,c3_HowFace,1,looking to side?,69,F_110.jpg,1653599630.38601,1653599630.38834,65.4712130928039,8.17869591712952,73.6578376197815,75.7586822414398,0.3,76.725737323761,0.733628749847412,77.461137046814,1,left,0.716871976852417,77.4593660736084,604.471220722198,607.231220722198,1653599698.61723,1653599698.62007,1653599706.80385,1653599706.80846,1653599708.9047,1653599709.87175,1653599709.87368,1653599710.60715,1653599710.60538,1653600237.61723,1
124,4,2,2,5,3,3,c3_HowFace,1,looking to side?,68,F_760.jpg,1653599630.38601,1653599630.38834,65.4712130928039,8.17869591712952,73.6578376197815,75.7586822414398,0.3,77.7761597537994,0.733627557754517,78.5108189487457,3,right,0.722803115844727,78.5097873115539,604.471220722198,607.231220722198,1653599698.61723,1653599698.62007,1653599706.80385,1653599706.80846,1653599708.9047,1653599710.92217,1653599710.92396,1653599711.65683,1653599711.6558,1653600237.61723,0
124,4,2,2,5,4,3,c3_HowFace,2,looking to side?,70,F_779.jpg,1653599630.38601,1653599630.38834,65.4712130928039,8.17869591712952,73.6578376197815,75.7586822414398,0.3,78.8265814685821,0.666935920715332,79.4945628547668,1,left,0.651998996734619,79.4935173892975,604.471220722198,607.231220722198,1653599698.61723,1653599698.62007,1653599706.80385,1653599706.80846,1653599708.9047,1653599711.97259,1653599711.97461,1653599712.64058,1653599712.63953,1653600237.61723,0
124,4,2,2,5,5,3,c3_HowFace,1,looking to side?,71,F_433.jpg,1653599630.38601,1653599630.38834,65.4712130928039,8.17869591712952,73.6578376197815,75.7586822414398,0.3,79.8103103542328,0.683607816696167,80.4950330162048,1,left,0.673758029937744,80.4939181709289,604.471220722198,607.231220722198,1653599698.61723,1653599698.62007,1653599706.80385,1653599706.80846,1653599708.9047,1653599712.95632,1653599712.95783,1653599713.64105,1653599713.63993,1653600237.61723,1
124,4,2,2,5,6,3,c3_HowFace,2,looking to side?,65,F_798.jpg,1653599630.38601,1653599630.38834,65.4712130928039,8.17869591712952,73.6578376197815,75.7586822414398,0.3,80.8107137584686,0.766973257064819,81.5787100696564,3,right,0.753822803497314,81.5776870155334,604.471220722198,607.231220722198,1653599698.61723,1653599698.62007,1653599706.80385,1653599706.80846,1653599708.9047,1653599713.95673,1653599713.95842,1653599714.72472,1653599714.7237,1653600237.61723,0
124,4,2,2,5,7,3,c3_HowFace,1,looking to side?,67,F_716.jpg,1653599630.38601,1653599630.38834,65.4712130928039,8.17869591712952,73.6578376197815,75.7586822414398,0.3,81.8944818878174,0.600241422653198,82.4959869289398,1,left,0.577230930328369,82.4947233104706,604.471220722198,607.231220722198,1653599698.61723,1653599698.62007,1653599706.80385,1653599706.80846,1653599708.9047,1653599715.04049,1653599715.04235,1653599715.642,1653599715.64074,1653600237.61723,1
124,4,2,2,5,8,3,c3_HowFace,2,looking to side?,66,F_111.jpg,1653599630.38601,1653599630.38834,65.4712130928039,8.17869591712952,73.6578376197815,75.7586822414398,0.3,82.8115172290802,0.650261163711548,83.4633860492706,3,right,0.637256860733032,83.4617783927917,604.471220722198,607.231220722198,1653599698.61723,1653599698.62007,1653599706.80385,1653599706.80846,1653599708.9047,1653599715.95753,1653599715.95921,1653599716.6094,1653599716.60779,1653600237.61723,0
124,4,2,2,6,1,1,c1_WhyFace,1,argument?,42,F_403.jpg,1653599630.38601,1653599630.38834,83.5284724140167,9.17442345619202,92.7154986763,94.8163432979584,2.10084462165833,94.9664039516449,0.483527421951294,95.4515879058838,1,left,0.465777158737183,95.4499313735962,604.471220722198,607.231220722198,1653599716.67449,1653599716.69071,1653599725.86151,1653599725.86338,1653599727.96236,1653599728.11242,1653599728.11415,1653599728.5976,1653599728.59594,1653600237.61723,1
124,4,2,2,6,2,1,c1_WhyFace,2,argument?,44,F_139.jpg,1653599630.38601,1653599630.38834,83.5284724140167,9.17442345619202,92.7154986763,94.8163432979584,0.3,95.7667255306244,0.516873836517334,96.2852868938446,3,right,0.50134801864624,96.2835993671417,604.471220722198,607.231220722198,1653599716.67449,1653599716.69071,1653599725.86151,1653599725.86338,1653599727.96236,1653599728.91274,1653599728.91467,1653599729.4313,1653599729.42961,1653600237.61723,0
124,4,2,2,6,3,1,c1_WhyFace,1,argument?,47,F_743.jpg,1653599630.38601,1653599630.38834,83.5284724140167,9.17442345619202,92.7154986763,94.8163432979584,0.3,96.6003935241699,0.683607339859009,97.2850689792633,1,left,0.668915033340454,97.2840008640289,604.471220722198,607.231220722198,1653599716.67449,1653599716.69071,1653599725.86151,1653599725.86338,1653599727.96236,1653599729.74641,1653599729.74821,1653599730.43108,1653599730.43001,1653600237.61723,1
124,4,2,2,6,4,1,c1_WhyFace,2,argument?,45,F_433.jpg,1653599630.38601,1653599630.38834,83.5284724140167,9.17442345619202,92.7154986763,94.8163432979584,0.3,97.6007966899872,0.616913557052612,98.2194380664825,3,right,0.596922874450684,98.2177102470398,604.471220722198,607.231220722198,1653599716.67449,1653599716.69071,1653599725.86151,1653599725.86338,1653599727.96236,1653599730.74681,1653599730.74838,1653599731.36545,1653599731.36372,1653600237.61723,0
124,4,2,2,6,5,1,c1_WhyFace,1,argument?,43,F_716.jpg,1653599630.38601,1653599630.38834,83.5284724140167,9.17442345619202,92.7154986763,94.8163432979584,0.3,98.5345046424866,0.616915225982666,99.1619589233398,1,left,0.604739904403687,99.1514198684692,604.471220722198,607.231220722198,1653599716.67449,1653599716.69071,1653599725.86151,1653599725.86338,1653599727.96236,1653599731.68052,1653599731.68218,1653599732.30797,1653599732.29743,1653600237.61723,1
124,4,2,2,6,6,1,c1_WhyFace,1,argument?,48,F_758.jpg,1653599630.38601,1653599630.38834,83.5284724140167,9.17442345619202,92.7154986763,94.8163432979584,0.3,99.4682130718231,0.650261163711548,100.120270957947,1,left,0.629887819290161,100.118474235535,604.471220722198,607.231220722198,1653599716.67449,1653599716.69071,1653599725.86151,1653599725.86338,1653599727.96236,1653599732.61423,1653599732.61634,1653599733.26628,1653599733.26449,1653600237.61723,1
124,4,2,2,6,7,1,c1_WhyFace,2,argument?,46,F_844.jpg,1653599630.38601,1653599630.38834,83.5284724140167,9.17442345619202,92.7154986763,94.8163432979584,0.3,100.435268392563,0.500200748443604,100.945227851868,3,right,0.489394903182983,100.935469141006,604.471220722198,607.231220722198,1653599716.67449,1653599716.69071,1653599725.86151,1653599725.86338,1653599727.96236,1653599733.58128,1653599733.58333,1653599734.09124,1653599734.08148,1653600237.61723,0
124,4,2,2,6,8,1,c1_WhyFace,1,argument?,41,F_712.jpg,1653599630.38601,1653599630.38834,83.5284724140167,9.17442345619202,92.7154986763,94.8163432979584,0.3,101.25226401329,0.483526706695557,101.737616052628,1,left,0.463644981384277,101.735790719986,604.471220722198,607.231220722198,1653599716.67449,1653599716.69071,1653599725.86151,1653599725.86338,1653599727.96236,1653599734.39828,1653599734.40009,1653599734.88363,1653599734.8818,1653600237.61723,1
124,4,2,2,7,1,2,c2_WhyHand,1,self-protection?,94,H_189.jpg,1653599630.38601,1653599630.38834,101.802484502792,13.3824374675751,115.191200008392,117.292044630051,2.10084462165833,117.442105760574,0.933707475662231,118.37884806633,1,left,0.910935163497925,118.375813236237,604.471220722198,607.231220722198,1653599734.9485,1653599734.94947,1653599748.33721,1653599748.34162,1653599750.43806,1653599750.58812,1653599750.59142,1653599751.52486,1653599751.52183,1653600237.61723,1
124,4,2,2,7,2,2,c2_WhyHand,1,self-protection?,93,H_038.jpg,1653599630.38601,1653599630.38834,101.802484502792,13.3824374675751,115.191200008392,117.292044630051,0.3,118.692607154846,0.933709144592285,119.628475894928,1,left,0.916507005691528,119.626316299438,604.471220722198,607.231220722198,1653599734.9485,1653599734.94947,1653599748.33721,1653599748.34162,1653599750.43806,1653599751.83862,1653599751.84182,1653599752.77449,1653599752.77233,1653600237.61723,1
124,4,2,2,7,3,2,c2_WhyHand,1,self-protection?,91,H_581.jpg,1653599630.38601,1653599630.38834,101.802484502792,13.3824374675751,115.191200008392,117.292044630051,0.3,119.943110694885,1.00040173530579,120.945203056335,1,left,0.987910985946655,120.943512430191,604.471220722198,607.231220722198,1653599734.9485,1653599734.94947,1653599748.33721,1653599748.34162,1653599750.43806,1653599753.08912,1653599753.09167,1653599754.09122,1653599754.08953,1653600237.61723,1
124,4,2,2,7,4,2,c2_WhyHand,2,self-protection?,90,H_006.jpg,1653599630.38601,1653599630.38834,101.802484502792,13.3824374675751,115.191200008392,117.292044630051,0.3,121.260306110382,0.700281858444214,121.961941947937,3,right,0.680016994476318,121.960587968826,604.471220722198,607.231220722198,1653599734.9485,1653599734.94947,1653599748.33721,1653599748.34162,1653599750.43806,1653599754.40632,1653599754.40872,1653599755.10795,1653599755.1066,1653600237.61723,0
124,4,2,2,7,5,2,c2_WhyHand,1,self-protection?,96,H_027.jpg,1653599630.38601,1653599630.38834,101.802484502792,13.3824374675751,115.191200008392,117.292044630051,0.3,122.277382125854,0.766973257064819,123.062699069977,1,left,0.759568929672241,123.044355382919,604.471220722198,607.231220722198,1653599734.9485,1653599734.94947,1653599748.33721,1653599748.34162,1653599750.43806,1653599755.4234,1653599755.42536,1653599756.20871,1653599756.19037,1653600237.61723,1
124,4,2,2,7,6,2,c2_WhyHand,2,self-protection?,95,H_332.jpg,1653599630.38601,1653599630.38834,101.802484502792,13.3824374675751,115.191200008392,117.292044630051,0.3,123.361151208878,0.683608293533325,124.045820941925,3,right,0.664155006408691,124.044759502411,604.471220722198,607.231220722198,1653599734.9485,1653599734.94947,1653599748.33721,1653599748.34162,1653599750.43806,1653599756.50716,1653599756.50874,1653599757.19183,1653599757.19077,1653600237.61723,0
124,4,2,2,7,7,2,c2_WhyHand,1,self-protection?,89,H_443.jpg,1653599630.38601,1653599630.38834,101.802484502792,13.3824374675751,115.191200008392,117.292044630051,0.3,124.361552944183,0.516874313354492,124.895849933624,1,left,0.510619878768921,124.878427257538,604.471220722198,607.231220722198,1653599734.9485,1653599734.94947,1653599748.33721,1653599748.34162,1653599750.43806,1653599757.50757,1653599757.5091,1653599758.04186,1653599758.02444,1653600237.61723,1
124,4,2,2,7,8,2,c2_WhyHand,2,self-protection?,92,H_532.jpg,1653599630.38601,1653599630.38834,101.802484502792,13.3824374675751,115.191200008392,117.292044630051,0.3,125.195221414566,0.650262117385864,125.846740951538,3,right,0.635623931884766,125.845483531952,604.471220722198,607.231220722198,1653599734.9485,1653599734.94947,1653599748.33721,1653599748.34162,1653599750.43806,1653599758.34123,1653599758.34281,1653599758.99275,1653599758.9915,1653600237.61723,0
124,4,2,2,8,1,4,c4_HowHand,1,both hands?,124,H_581.jpg,1653599630.38601,1653599630.38834,125.912176599503,7.11296939849854,133.031705846787,135.132549514771,2.10084366798401,135.282610168457,0.700281381607056,135.984369029999,1,left,0.680954933166504,135.982891550064,604.471220722198,607.231220722198,1653599759.05819,1653599759.05961,1653599766.17772,1653599766.19223,1653599768.27856,1653599768.42862,1653599768.43048,1653599769.13038,1653599769.1289,1653600237.61723,1
124,4,2,2,8,2,4,c4_HowHand,1,both hands?,127,H_349.jpg,1653599630.38601,1653599630.38834,125.912176599503,7.11296939849854,133.031705846787,135.132549514771,0.3,136.299684991837,0.566895723342896,136.868166913986,1,left,0.543869972229004,136.866580715179,604.471220722198,607.231220722198,1653599759.05819,1653599759.05961,1653599766.17772,1653599766.19223,1653599768.27856,1653599769.4457,1653599769.44737,1653599770.01418,1653599770.01259,1653600237.61723,1
124,4,2,2,8,3,4,c4_HowHand,2,both hands?,126,H_159.jpg,1653599630.38601,1653599630.38834,125.912176599503,7.11296939849854,133.031705846787,135.132549514771,0.3,137.18337439537,0.56689453125,137.763094892502,3,right,0.558700084686279,137.75026892662,604.471220722198,607.231220722198,1653599759.05819,1653599759.05961,1653599766.17772,1653599766.19223,1653599768.27856,1653599770.32939,1653599770.331,1653599770.90911,1653599770.89628,1653600237.61723,0
124,4,2,2,8,4,4,c4_HowHand,1,both hands?,122,H_111.jpg,1653599630.38601,1653599630.38834,125.912176599503,7.11296939849854,133.031705846787,135.132549514771,0.3,138.067062368393,0.516875028610229,138.585756053925,1,left,0.498285055160522,138.583937397003,604.471220722198,607.231220722198,1653599759.05819,1653599759.05961,1653599766.17772,1653599766.19223,1653599768.27856,1653599771.21308,1653599771.21491,1653599771.73177,1653599771.72995,1653600237.61723,1
124,4,2,2,8,5,4,c4_HowHand,2,both hands?,125,H_627.jpg,1653599630.38601,1653599630.38834,125.912176599503,7.11296939849854,133.031705846787,135.132549514771,0.3,138.900730361938,0.583569049835205,139.485401859283,3,right,0.561035871505737,139.484299411774,604.471220722198,607.231220722198,1653599759.05819,1653599759.05961,1653599766.17772,1653599766.19223,1653599768.27856,1653599772.04674,1653599772.04829,1653599772.63141,1653599772.63031,1653600237.61723,0
124,4,2,2,8,6,4,c4_HowHand,1,both hands?,123,H_167.jpg,1653599630.38601,1653599630.38834,125.912176599503,7.11296939849854,133.031705846787,135.132549514771,0.3,139.801093568802,0.500201225280762,140.312875022888,1,left,0.49193000793457,140.301294794083,604.471220722198,607.231220722198,1653599759.05819,1653599759.05961,1653599766.17772,1653599766.19223,1653599768.27856,1653599772.94711,1653599772.94876,1653599773.45889,1653599773.44731,1653600237.61723,1
124,4,2,2,8,7,4,c4_HowHand,1,both hands?,128,H_027.jpg,1653599630.38601,1653599630.38834,125.912176599503,7.11296939849854,133.031705846787,135.132549514771,0.3,140.618088235855,0.766975402832031,141.386631002426,1,left,0.750726938247681,141.385063638687,604.471220722198,607.231220722198,1653599759.05819,1653599759.05961,1653599766.17772,1653599766.19223,1653599768.27856,1653599773.7641,1653599773.7656,1653599774.53264,1653599774.53108,1653600237.61723,1
124,4,2,2,8,8,4,c4_HowHand,2,both hands?,121,H_091.jpg,1653599630.38601,1653599630.38834,125.912176599503,7.11296939849854,133.031705846787,135.132549514771,0.3,141.701857557297,0.733627796173096,142.437316884995,3,right,0.717971801757812,142.43548535347,604.471220722198,607.231220722198,1653599759.05819,1653599759.05961,1653599766.17772,1653599766.19223,1653599768.27856,1653599774.84787,1653599774.8495,1653599775.58333,1653599775.5815,1653600237.61723,0
124,4,2,2,9,1,2,c2_WhyHand,1,competing?,15,H_170.jpg,1653599630.38601,1653599630.38834,142.502179136276,8.31272578239441,150.822190275192,152.923035612106,2.10084533691406,153.073095312119,0.850342273712158,153.924530973434,1,left,0.822014093399048,153.923437585831,604.471220722198,607.231220722198,1653599775.64819,1653599775.6591,1653599783.9682,1653599783.97624,1653599786.06905,1653599786.21911,1653599786.22614,1653599787.07054,1653599787.06945,1653600237.61723,1
124,4,2,2,9,2,2,c2_WhyHand,1,competing?,14,H_132.jpg,1653599630.38601,1653599630.38834,142.502179136276,8.31272578239441,150.822190275192,152.923035612106,0.3,154.24023150444,0.516873836517334,154.758816947937,1,left,0.495475053787231,154.757105340958,604.471220722198,607.231220722198,1653599775.64819,1653599775.6591,1653599783.9682,1653599783.97624,1653599786.06905,1653599787.38624,1653599787.38784,1653599787.90483,1653599787.90312,1653600237.61723,1
124,4,2,2,9,3,2,c2_WhyHand,2,competing?,10,H_126.jpg,1653599630.38601,1653599630.38834,142.502179136276,8.31272578239441,150.822190275192,152.923035612106,0.3,155.073899259567,0.683608531951904,155.762942066193,1,left,0.665893077850342,155.757507791519,604.471220722198,607.231220722198,1653599775.64819,1653599775.6591,1653599783.9682,1653599783.97624,1653599786.06905,1653599788.21991,1653599788.22145,1653599788.90896,1653599788.90352,1653600237.61723,0
124,4,2,2,9,4,2,c2_WhyHand,1,competing?,13,H_003.jpg,1653599630.38601,1653599630.38834,142.502179136276,8.31272578239441,150.822190275192,152.923035612106,0.3,156.074301710129,0.483527660369873,156.562888851166,1,left,0.463873147964478,156.557829370499,604.471220722198,607.231220722198,1653599775.64819,1653599775.6591,1653599783.9682,1653599783.97624,1653599786.06905,1653599789.22031,1653599789.22201,1653599789.7089,1653599789.70384,1653600237.61723,1
124,4,2,2,9,5,2,c2_WhyHand,2,competing?,11,H_502.jpg,1653599630.38601,1653599630.38834,142.502179136276,8.31272578239441,150.822190275192,152.923035612106,0.3,156.874623765945,0.633587837219238,157.513534059525,3,right,0.617748022079468,157.508211603165,604.471220722198,607.231220722198,1653599775.64819,1653599775.6591,1653599783.9682,1653599783.97624,1653599786.06905,1653599790.02064,1653599790.02248,1653599790.65955,1653599790.65422,1653600237.61723,0
124,4,2,2,9,6,2,c2_WhyHand,1,competing?,16,H_136.jpg,1653599630.38601,1653599630.38834,142.502179136276,8.31272578239441,150.822190275192,152.923035612106,0.3,157.825004329681,0.700282573699951,158.529561986923,1,left,0.683196783065796,158.525286903381,604.471220722198,607.231220722198,1653599775.64819,1653599775.6591,1653599783.9682,1653599783.97624,1653599786.06905,1653599790.97102,1653599790.97242,1653599791.67558,1653599791.6713,1653600237.61723,1
124,4,2,2,9,7,2,c2_WhyHand,2,competing?,12,H_483.jpg,1653599630.38601,1653599630.38834,142.502179136276,8.31272578239441,150.822190275192,152.923035612106,0.3,158.84208106041,0.58356761932373,159.426701059341,3,right,0.561958074569702,159.425648679733,604.471220722198,607.231220722198,1653599775.64819,1653599775.6591,1653599783.9682,1653599783.97624,1653599786.06905,1653599791.98809,1653599791.98923,1653599792.57271,1653599792.57166,1653600237.61723,0
124,4,2,2,9,8,2,c2_WhyHand,1,competing?,9,H_261.jpg,1653599630.38601,1653599630.38834,142.502179136276,8.31272578239441,150.822190275192,152.923035612106,0.3,159.742442598343,0.483528137207031,160.229577054977,1,left,0.472319841384888,160.22597073555,604.471220722198,607.231220722198,1653599775.64819,1653599775.6591,1653599783.9682,1653599783.97624,1653599786.06905,1653599792.88846,1653599792.89292,1653599793.37559,1653599793.37198,1653600237.61723,1
124,4,2,2,10,1,4,c4_HowHand,1,lifting?,49,H_362.jpg,1653599630.38601,1653599630.38834,160.309337844849,8.39559602737427,168.712715377808,170.813560476303,2.10084509849548,170.963620176315,0.53354811668396,171.513406028748,1,left,0.526895046234131,171.497168292999,604.471220722198,607.231220722198,1653599793.45535,1653599793.45961,1653599801.85873,1653599801.86047,1653599803.95957,1653599804.10963,1653599804.11128,1653599804.65942,1653599804.64318,1653600237.61723,1
124,4,2,2,10,2,4,c4_HowHand,2,lifting?,55,H_012.jpg,1653599630.38601,1653599630.38834,160.309337844849,8.39559602737427,168.712715377808,170.813560476303,0.3,171.813962926865,0.666933536529541,172.48196100235,3,right,0.643501996994019,172.480896463394,604.471220722198,607.231220722198,1653599793.45535,1653599793.45961,1653599801.85873,1653599801.86047,1653599803.95957,1653599804.95998,1653599804.96167,1653599805.62797,1653599805.62691,1653600237.61723,0
124,4,2,2,10,3,4,c4_HowHand,1,lifting?,56,H_136.jpg,1653599630.38601,1653599630.38834,160.309337844849,8.39559602737427,168.712715377808,170.813560476303,0.3,172.797690143585,0.533548355102539,173.346687068939,1,left,0.526971101760864,173.331238498688,604.471220722198,607.231220722198,1653599793.45535,1653599793.45961,1653599801.85873,1653599801.86047,1653599803.95957,1653599805.9437,1653599805.94531,1653599806.4927,1653599806.47725,1653600237.61723,1
124,4,2,2,10,4,4,c4_HowHand,1,lifting?,52,H_189.jpg,1653599630.38601,1653599630.38834,160.309337844849,8.39559602737427,168.712715377808,170.813560476303,0.3,173.648032417297,0.733628988265991,174.397432079315,1,left,0.725276947021484,174.381661405563,604.471220722198,607.231220722198,1653599793.45535,1653599793.45961,1653599801.85873,1653599801.86047,1653599803.95957,1653599806.79405,1653599806.79529,1653599807.54345,1653599807.52767,1653600237.61723,1
124,4,2,2,10,5,4,c4_HowHand,1,lifting?,54,H_170.jpg,1653599630.38601,1653599630.38834,160.309337844849,8.39559602737427,168.712715377808,170.813560476303,0.3,174.698455324173,0.566894054412842,175.280256023407,1,left,0.558260917663574,175.265349378586,604.471220722198,607.231220722198,1653599793.45535,1653599793.45961,1653599801.85873,1653599801.86047,1653599803.95957,1653599807.84447,1653599807.84597,1653599808.42627,1653599808.41136,1653600237.61723,1
124,4,2,2,10,6,4,c4_HowHand,2,lifting?,53,H_077.jpg,1653599630.38601,1653599630.38834,160.309337844849,8.39559602737427,168.712715377808,170.813560476303,0.3,175.582143297195,0.56689453125,176.164285888672,1,left,0.557928085327148,176.149037828445,604.471220722198,607.231220722198,1653599793.45535,1653599793.45961,1653599801.85873,1653599801.86047,1653599803.95957,1653599808.72816,1653599808.72971,1653599809.3103,1653599809.29505,1653600237.61723,0
124,4,2,2,10,7,4,c4_HowHand,1,lifting?,50,H_443.jpg,1653599630.38601,1653599630.38834,160.309337844849,8.39559602737427,168.712715377808,170.813560476303,0.3,176.465832223892,0.600241422653198,177.067501058579,1,left,0.588551998138428,177.066073646545,604.471220722198,607.231220722198,1653599793.45535,1653599793.45961,1653599801.85873,1653599801.86047,1653599803.95957,1653599809.61185,1653599809.61368,1653599810.21351,1653599810.21209,1653600237.61723,1
124,4,2,2,10,8,4,c4_HowHand,2,lifting?,51,H_038.jpg,1653599630.38601,1653599630.38834,160.309337844849,8.39559602737427,168.712715377808,170.813560476303,0.3,177.382867565155,0.666934490203857,178.051560869217,3,right,0.648607969284058,178.049802055359,604.471220722198,607.231220722198,1653599793.45535,1653599793.45961,1653599801.85873,1653599801.86047,1653599803.95957,1653599810.52888,1653599810.53034,1653599811.19757,1653599811.19582,1653600237.61723,0
124,4,2,2,11,1,3,c3_HowFace,1,open mouth?,73,F_403.jpg,1653599630.38601,1653599630.38834,178.116495361328,8.65841960906982,186.786648263931,188.887492647171,2.10084438323975,189.03755449295,0.400158882141113,189.447201957703,1,left,0.384023904800415,189.437713375092,604.471220722198,607.231220722198,1653599811.26251,1653599811.26358,1653599819.93266,1653599819.93482,1653599822.03351,1653599822.18357,1653599822.18559,1653599822.59321,1653599822.58373,1653600237.61723,1
124,4,2,2,11,2,3,c3_HowFace,1,open mouth?,75,F_086.jpg,1653599630.38601,1653599630.38834,178.116495361328,8.65841960906982,186.786648263931,188.887492647171,0.3,189.754508008957,0.450180292129517,190.206088056564,1,left,0.435400009155273,190.204688301086,604.471220722198,607.231220722198,1653599811.26251,1653599811.26358,1653599819.93266,1653599819.93482,1653599822.03351,1653599822.90052,1653599822.90144,1653599823.3521,1653599823.3507,1653600237.61723,1
124,4,2,2,11,3,3,c3_HowFace,1,open mouth?,80,F_844.jpg,1653599630.38601,1653599630.38834,178.116495361328,8.65841960906982,186.786648263931,188.887492647171,0.3,190.521482219696,0.466854810714722,190.998228063583,1,left,0.454385995864868,190.988337030411,604.471220722198,607.231220722198,1653599811.26251,1653599811.26358,1653599819.93266,1653599819.93482,1653599822.03351,1653599823.6675,1653599823.66908,1653599824.14424,1653599824.13435,1653600237.61723,1
124,4,2,2,11,4,3,c3_HowFace,2,open mouth?,76,F_544.jpg,1653599630.38601,1653599630.38834,178.116495361328,8.65841960906982,186.786648263931,188.887492647171,0.3,191.305131902695,0.483526229858398,191.789726009369,3,right,0.465065002441406,191.788658132553,604.471220722198,607.231220722198,1653599811.26251,1653599811.26358,1653599819.93266,1653599819.93482,1653599822.03351,1653599824.45114,1653599824.45285,1653599824.93574,1653599824.93467,1653600237.61723,0
124,4,2,2,11,5,3,c3_HowFace,1,open mouth?,74,F_776.jpg,1653599630.38601,1653599630.38834,178.116495361328,8.65841960906982,186.786648263931,188.887492647171,0.3,192.105452766418,0.366814374923706,192.480690946579,1,left,0.356840133666992,192.472267141342,604.471220722198,607.231220722198,1653599811.26251,1653599811.26358,1653599819.93266,1653599819.93482,1653599822.03351,1653599825.25147,1653599825.25316,1653599825.6267,1653599825.61828,1653600237.61723,1
124,4,2,2,11,6,3,c3_HowFace,2,open mouth?,79,F_648.jpg,1653599630.38601,1653599630.38834,178.116495361328,8.65841960906982,186.786648263931,188.887492647171,0.3,192.789060344696,0.600241899490356,193.390325059891,3,right,0.579586982727051,193.389302244186,604.471220722198,607.231220722198,1653599811.26251,1653599811.26358,1653599819.93266,1653599819.93482,1653599822.03351,1653599825.93507,1653599825.93633,1653599826.53634,1653599826.53532,1653600237.61723,0
124,4,2,2,11,7,3,c3_HowFace,1,open mouth?,78,F_692.jpg,1653599630.38601,1653599630.38834,178.116495361328,8.65841960906982,186.786648263931,188.887492647171,0.3,193.706096401215,0.383486986160278,194.090710868835,1,left,0.364557981491089,194.089583387375,604.471220722198,607.231220722198,1653599811.26251,1653599811.26358,1653599819.93266,1653599819.93482,1653599822.03351,1653599826.85211,1653599826.85355,1653599827.23672,1653599827.2356,1653600237.61723,1
124,4,2,2,11,8,3,c3_HowFace,2,open mouth?,77,F_584.jpg,1653599630.38601,1653599630.38834,178.116495361328,8.65841960906982,186.786648263931,188.887492647171,0.3,194.406377067566,0.600241422653198,195.008399953842,3,right,0.580913066864014,195.006618490219,604.471220722198,607.231220722198,1653599811.26251,1653599811.26358,1653599819.93266,1653599819.93482,1653599822.03351,1653599827.55239,1653599827.55384,1653599828.15441,1653599828.15263,1653600237.61723,0
124,4,2,2,12,1,1,c1_WhyFace,1,proud?,97,F_582.jpg,1653599630.38601,1653599630.38834,195.089985599518,9.20191144943237,204.310358276367,206.394530525208,2.08417224884033,206.54459022522,0.700281143188477,207.248049964905,1,left,0.681487083435059,207.244871368408,604.471220722198,607.231220722198,1653599828.236,1653599828.2441,1653599837.45637,1653599837.45821,1653599839.54054,1653599839.6906,1653599839.69442,1653599840.39406,1653599840.39088,1653600237.61723,1
124,4,2,2,12,2,1,c1_WhyFace,2,proud?,100,F_776.jpg,1653599630.38601,1653599630.38834,195.089985599518,9.20191144943237,204.310358276367,206.394530525208,0.3,207.561665287018,0.483527898788452,208.048484077454,1,left,0.463356971740723,208.045193185806,604.471220722198,607.231220722198,1653599828.236,1653599828.2441,1653599837.45637,1653599837.45821,1653599839.54054,1653599840.70768,1653599840.711,1653599841.1945,1653599841.19121,1653600237.61723,0
124,4,2,2,12,3,1,c1_WhyFace,1,proud?,104,F_598.jpg,1653599630.38601,1653599630.38834,195.089985599518,9.20191144943237,204.310358276367,206.394530525208,0.3,208.361986865997,0.516875028610229,208.881648054123,1,left,0.503952980041504,208.878861894608,604.471220722198,607.231220722198,1653599828.236,1653599828.2441,1653599837.45637,1653599837.45821,1653599839.54054,1653599841.508,1653599841.51122,1653599842.02766,1653599842.02487,1653600237.61723,1
124,4,2,2,12,4,1,c1_WhyFace,2,proud?,98,F_412.jpg,1653599630.38601,1653599630.38834,195.089985599518,9.20191144943237,204.310358276367,206.394530525208,0.3,209.195656528473,0.466853857040405,209.664376964569,3,right,0.45637583732605,209.662510385513,604.471220722198,607.231220722198,1653599828.236,1653599828.2441,1653599837.45637,1653599837.45821,1653599839.54054,1653599842.34167,1653599842.34434,1653599842.81039,1653599842.80852,1653600237.61723,0
124,4,2,2,12,5,1,c1_WhyFace,1,proud?,103,F_618.jpg,1653599630.38601,1653599630.38834,195.089985599518,9.20191144943237,204.310358276367,206.394530525208,0.3,209.979304304123,0.416834115982056,210.398211946487,1,left,0.408749103546143,210.396138420105,604.471220722198,607.231220722198,1653599828.236,1653599828.2441,1653599837.45637,1653599837.45821,1653599839.54054,1653599843.12532,1653599843.12766,1653599843.54422,1653599843.54215,1653600237.61723,1
124,4,2,2,12,6,1,c1_WhyFace,1,proud?,101,F_083.jpg,1653599630.38601,1653599630.38834,195.089985599518,9.20191144943237,204.310358276367,206.394530525208,0.3,210.712932100296,0.616914749145508,211.331022968292,1,left,0.60719108581543,211.329846849442,604.471220722198,607.231220722198,1653599828.236,1653599828.2441,1653599837.45637,1653599837.45821,1653599839.54054,1653599843.85895,1653599843.86086,1653599844.47704,1653599844.47586,1653600237.61723,1
124,4,2,2,12,7,1,c1_WhyFace,1,proud?,99,F_695.jpg,1653599630.38601,1653599630.38834,195.089985599518,9.20191144943237,204.310358276367,206.394530525208,0.3,211.646641244888,0.583566904067993,212.231729021072,1,left,0.568737030029297,212.230208148956,604.471220722198,607.231220722198,1653599828.236,1653599828.2441,1653599837.45637,1653599837.45821,1653599839.54054,1653599844.79265,1653599844.79401,1653599845.37774,1653599845.37622,1653600237.61723,1
124,4,2,2,12,8,1,c1_WhyFace,2,proud?,102,F_760.jpg,1653599630.38601,1653599630.38834,195.089985599518,9.20191144943237,204.310358276367,206.394530525208,0.3,212.547003498077,0.500200748443604,213.048171033859,3,right,0.492207050323486,213.047204246521,604.471220722198,607.231220722198,1653599828.236,1653599828.2441,1653599837.45637,1653599837.45821,1653599839.54054,1653599845.69302,1653599845.69483,1653599846.19418,1653599846.19322,1653600237.61723,0
124,4,2,2,13,1,2,c2_WhyHand,1,helping?,39,H_024.jpg,1653599630.38601,1653599630.38834,213.113897075653,9.39801096916199,222.517678489685,224.618522634506,2.10084414482117,224.768583288193,1.2338285446167,226.00398897171,3,right,1.20684313774109,226.002411832809,604.471220722198,607.231220722198,1653599846.25991,1653599846.26084,1653599855.66369,1653599855.67823,1653599857.76454,1653599857.9146,1653599857.92848,1653599859.15,1653599859.14842,1653600237.61723,0
124,4,2,2,13,2,2,c2_WhyHand,1,helping?,37,H_474.jpg,1653599630.38601,1653599630.38834,213.113897075653,9.39801096916199,222.517678489685,224.618522634506,0.3,226.319206466675,0.616913557052612,226.948894968033,1,left,0.608065128326416,226.936120023727,604.471220722198,607.231220722198,1653599846.25991,1653599846.26084,1653599855.66369,1653599855.67823,1653599857.76454,1653599859.46522,1653599859.46692,1653599860.09491,1653599860.08213,1653600237.61723,1
124,4,2,2,13,3,2,c2_WhyHand,1,helping?,36,H_349.jpg,1653599630.38601,1653599630.38834,213.113897075653,9.39801096916199,222.517678489685,224.618522634506,0.3,227.252914896011,0.583567380905151,227.837526073456,1,left,0.564521074295044,227.836482276917,604.471220722198,607.231220722198,1653599846.25991,1653599846.26084,1653599855.66369,1653599855.67823,1653599857.76454,1653599860.39893,1653599860.40079,1653599860.98354,1653599860.9825,1653600237.61723,1
124,4,2,2,13,4,2,c2_WhyHand,2,helping?,33,H_091.jpg,1653599630.38601,1653599630.38834,213.113897075653,9.39801096916199,222.517678489685,224.618522634506,0.3,228.1532771492,0.666934251785278,228.821632852554,3,right,0.650797128677368,228.820211400986,604.471220722198,607.231220722198,1653599846.25991,1653599846.26084,1653599855.66369,1653599855.67823,1653599857.76454,1653599861.29929,1653599861.30078,1653599861.96765,1653599861.96622,1653600237.61723,0
124,4,2,2,13,5,2,c2_WhyHand,2,helping?,40,H_012.jpg,1653599630.38601,1653599630.38834,213.113897075653,9.39801096916199,222.517678489685,224.618522634506,0.3,229.137004842758,0.516874551773071,229.665071954727,1,left,0.504297018051147,229.653879394531,604.471220722198,607.231220722198,1653599846.25991,1653599846.26084,1653599855.66369,1653599855.67823,1653599857.76454,1653599862.28302,1653599862.28435,1653599862.81108,1653599862.79989,1653600237.61723,0
124,4,2,2,13,6,2,c2_WhyHand,1,helping?,38,H_077.jpg,1653599630.38601,1653599630.38834,213.113897075653,9.39801096916199,222.517678489685,224.618522634506,0.3,229.970673789978,0.716954708099365,230.688870897293,1,left,0.699763059616089,230.687628498077,604.471220722198,607.231220722198,1653599846.25991,1653599846.26084,1653599855.66369,1653599855.67823,1653599857.76454,1653599863.11669,1653599863.1184,1653599863.83488,1653599863.83364,1653600237.61723,1
124,4,2,2,13,7,2,c2_WhyHand,2,helping?,35,H_159.jpg,1653599630.38601,1653599630.38834,213.113897075653,9.39801096916199,222.517678489685,224.618522634506,0.3,231.004423370361,0.600241422653198,231.615105857849,3,right,0.590196847915649,231.604664793015,604.471220722198,607.231220722198,1653599846.25991,1653599846.26084,1653599855.66369,1653599855.67823,1653599857.76454,1653599864.15044,1653599864.15192,1653599864.76112,1653599864.75068,1653600237.61723,0
124,4,2,2,13,8,2,c2_WhyHand,1,helping?,34,H_111.jpg,1653599630.38601,1653599630.38834,213.113897075653,9.39801096916199,222.517678489685,224.618522634506,0.3,231.921458473206,0.800323009490967,232.723430862427,1,left,0.780282020568848,232.721781482697,604.471220722198,607.231220722198,1653599846.25991,1653599846.26084,1653599855.66369,1653599855.67823,1653599857.76454,1653599865.06747,1653599865.0688,1653599865.86944,1653599865.86779,1653600237.61723,1
124,4,2,2,14,1,4,c4_HowHand,1,reaching?,109,H_474.jpg,1653599630.38601,1653599630.38834,232.788473596573,7.25340032577515,240.058062543869,242.158906450272,2.10084390640259,242.308967819214,0.550220489501953,242.866075029373,1,left,0.543606042861938,242.859188308716,604.471220722198,607.231220722198,1653599865.93449,1653599865.94519,1653599873.20408,1653599873.2057,1653599875.30492,1653599875.45498,1653599875.45648,1653599876.01209,1653599876.0052,1653600237.61723,1
124,4,2,2,14,2,4,c4_HowHand,1,reaching?,111,H_003.jpg,1653599630.38601,1653599630.38834,232.788473596573,7.25340032577515,240.058062543869,242.158906450272,0.3,243.175981988907,0.616915464401245,243.794457902908,1,left,0.59449291229248,243.792897453308,604.471220722198,607.231220722198,1653599865.93449,1653599865.94519,1653599873.20408,1653599873.2057,1653599875.30492,1653599876.322,1653599876.32401,1653599876.94047,1653599876.93891,1653600237.61723,1
124,4,2,2,14,3,4,c4_HowHand,2,reaching?,112,H_132.jpg,1653599630.38601,1653599630.38834,232.788473596573,7.25340032577515,240.058062543869,242.158906450272,0.3,244.109691848755,0.633587121963501,244.744441022873,1,left,0.610316038131714,244.743278970718,604.471220722198,607.231220722198,1653599865.93449,1653599865.94519,1653599873.20408,1653599873.2057,1653599875.30492,1653599877.2557,1653599877.25724,1653599877.89045,1653599877.88929,1653600237.61723,0
124,4,2,2,14,4,4,c4_HowHand,1,reaching?,110,H_364.jpg,1653599630.38601,1653599630.38834,232.788473596573,7.25340032577515,240.058062543869,242.158906450272,0.3,245.060073843002,0.500200986862183,245.561387052536,1,left,0.480731010437012,245.560274829865,604.471220722198,607.231220722198,1653599865.93449,1653599865.94519,1653599873.20408,1653599873.2057,1653599875.30492,1653599878.20609,1653599878.2077,1653599878.7074,1653599878.70629,1653600237.61723,1
124,4,2,2,14,5,4,c4_HowHand,1,reaching?,106,H_006.jpg,1653599630.38601,1653599630.38834,232.788473596573,7.25340032577515,240.058062543869,242.158906450272,0.3,245.877067556381,0.533547878265381,246.415989866257,3,right,0.52150297164917,246.410615434647,604.471220722198,607.231220722198,1653599865.93449,1653599865.94519,1653599873.20408,1653599873.2057,1653599875.30492,1653599879.02308,1653599879.02472,1653599879.562,1653599879.55663,1653600237.61723,0
124,4,2,2,14,6,4,c4_HowHand,2,reaching?,108,H_532.jpg,1653599630.38601,1653599630.38834,232.788473596573,7.25340032577515,240.058062543869,242.158906450272,0.3,246.727410783768,0.683607339859009,247.416346063614,1,left,0.663681030273438,247.411018123627,604.471220722198,607.231220722198,1653599865.93449,1653599865.94519,1653599873.20408,1653599873.2057,1653599875.30492,1653599879.87342,1653599879.87512,1653599880.56236,1653599880.55703,1653600237.61723,0
124,4,2,2,14,7,4,c4_HowHand,2,reaching?,105,H_438.jpg,1653599630.38601,1653599630.38834,232.788473596573,7.25340032577515,240.058062543869,242.158906450272,0.3,247.727812757492,1.35054445266724,249.082185020447,3,right,1.34359812736511,249.078357210159,604.471220722198,607.231220722198,1653599865.93449,1653599865.94519,1653599873.20408,1653599873.2057,1653599875.30492,1653599880.87383,1653599880.8755,1653599882.2282,1653599882.22437,1653600237.61723,0
124,4,2,2,14,8,4,c4_HowHand,1,reaching?,107,H_007.jpg,1653599630.38601,1653599630.38834,232.788473596573,7.25340032577515,240.058062543869,242.158906450272,0.3,249.395148029327,1.03375005722046,250.432161083221,1,left,1.02381610870361,250.428898086548,604.471220722198,607.231220722198,1653599865.93449,1653599865.94519,1653599873.20408,1653599873.2057,1653599875.30492,1653599882.54116,1653599882.54543,1653599883.57817,1653599883.57491,1653600237.61723,1
124,4,2,2,15,1,3,c3_HowFace,1,looking at camera?,60,F_618.jpg,1653599630.38601,1653599630.38834,250.495591154099,8.33629584312439,258.848949422836,260.949794044495,2.10084462165833,261.099854221344,0.433508396148682,261.535058965683,1,left,0.411031007766724,261.533362617493,604.471220722198,607.231220722198,1653599883.6416,1653599883.64486,1653599891.99496,1653599891.99675,1653599894.09581,1653599894.24587,1653599894.24876,1653599894.68107,1653599894.67938,1653600237.61723,1
124,4,2,2,15,2,3,c3_HowFace,2,looking at camera?,63,F_743.jpg,1653599630.38601,1653599630.38834,250.495591154099,8.33629584312439,258.848949422836,260.949794044495,0.3,261.850155344009,0.450182199478149,262.301748981476,3,right,0.432909965515137,262.300337543488,604.471220722198,607.231220722198,1653599883.6416,1653599883.64486,1653599891.99496,1653599891.99675,1653599894.09581,1653599894.99617,1653599894.99788,1653599895.44776,1653599895.44635,1653600237.61723,0
124,4,2,2,15,3,3,c3_HowFace,1,looking at camera?,62,F_598.jpg,1653599630.38601,1653599630.38834,250.495591154099,8.33629584312439,258.848949422836,260.949794044495,0.3,262.617131462097,0.450180530548096,263.068403949738,1,left,0.433185815811157,263.067311992645,604.471220722198,607.231220722198,1653599883.6416,1653599883.64486,1653599891.99496,1653599891.99675,1653599894.09581,1653599895.76314,1653599895.76446,1653599896.21442,1653599896.21333,1653600237.61723,1
124,4,2,2,15,4,3,c3_HowFace,1,looking at camera?,61,F_774.jpg,1653599630.38601,1653599630.38834,250.495591154099,8.33629584312439,258.848949422836,260.949794044495,0.3,263.384104003906,0.633590221405029,264.033576002121,1,left,0.625249862670898,264.017694225311,604.471220722198,607.231220722198,1653599883.6416,1653599883.64486,1653599891.99496,1653599891.99675,1653599894.09581,1653599896.53012,1653599896.53164,1653599897.17959,1653599897.16371,1653600237.61723,1
124,4,2,2,15,5,3,c3_HowFace,1,looking at camera?,59,F_129.jpg,1653599630.38601,1653599630.38834,250.495591154099,8.33629584312439,258.848949422836,260.949794044495,0.3,264.334488382339,0.500199794769287,264.835692873001,1,left,0.488332033157349,264.834688177109,604.471220722198,607.231220722198,1653599883.6416,1653599883.64486,1653599891.99496,1653599891.99675,1653599894.09581,1653599897.4805,1653599897.48184,1653599897.98171,1653599897.9807,1653600237.61723,1
124,4,2,2,15,6,3,c3_HowFace,1,looking at camera?,64,F_128.jpg,1653599630.38601,1653599630.38834,250.495591154099,8.33629584312439,258.848949422836,260.949794044495,0.3,265.15148352623,0.616914033889771,265.78296708107,1,left,0.607248067855835,265.76839756012,604.471220722198,607.231220722198,1653599883.6416,1653599883.64486,1653599891.99496,1653599891.99675,1653599894.09581,1653599898.2975,1653599898.29908,1653599898.92898,1653599898.91441,1653600237.61723,1
124,4,2,2,15,7,3,c3_HowFace,2,looking at camera?,57,F_582.jpg,1653599630.38601,1653599630.38834,250.495591154099,8.33629584312439,258.848949422836,260.949794044495,0.3,266.085190763474,0.533548831939697,266.619806995392,1,left,0.51085901260376,266.618739595413,604.471220722198,607.231220722198,1653599883.6416,1653599883.64486,1653599891.99496,1653599891.99675,1653599894.09581,1653599899.2312,1653599899.23324,1653599899.76582,1653599899.76475,1653600237.61723,0
124,4,2,2,15,8,3,c3_HowFace,2,looking at camera?,58,F_754.jpg,1653599630.38601,1653599630.38834,250.495591154099,8.33629584312439,258.848949422836,260.949794044495,0.3,266.935532798767,0.766975164413452,267.704158058167,3,right,0.743114948272705,267.702507963181,604.471220722198,607.231220722198,1653599883.6416,1653599883.64486,1653599891.99496,1653599891.99675,1653599894.09581,1653599900.08155,1653599900.08308,1653599900.85017,1653599900.84852,1653600237.61723,0
124,4,2,2,16,1,1,c1_WhyFace,1,self-doubt?,25,F_798.jpg,1653599630.38601,1653599630.38834,267.785875310898,12.5260877609253,280.324249258041,282.425092926025,2.10084366798401,282.575154771805,0.533547639846802,283.117238988876,1,left,0.519066095352173,283.108702411652,604.471220722198,607.231220722198,1653599900.93189,1653599900.93362,1653599913.47026,1653599913.47232,1653599915.57111,1653599915.72117,1653599915.72307,1653599916.26325,1653599916.25472,1653600237.61723,1
124,4,2,2,16,2,1,c1_WhyFace,2,self-doubt?,32,F_128.jpg,1653599630.38601,1653599630.38834,267.785875310898,12.5260877609253,280.324249258041,282.425092926025,0.3,283.425495376587,0.600240707397461,284.0332908535,1,left,0.58718204498291,284.025736083984,604.471220722198,607.231220722198,1653599900.93189,1653599900.93362,1653599913.47026,1653599913.47232,1653599915.57111,1653599916.57151,1653599916.573,1653599917.1793,1653599917.17175,1653600237.61723,0
124,4,2,2,16,3,1,c1_WhyFace,1,self-doubt?,28,F_754.jpg,1653599630.38601,1653599630.38834,267.785875310898,12.5260877609253,280.324249258041,282.425092926025,0.3,284.342531671524,0.55022120475769,284.89386390686,1,left,0.527274131774902,284.892752876282,604.471220722198,607.231220722198,1653599900.93189,1653599900.93362,1653599913.47026,1653599913.47232,1653599915.57111,1653599917.48854,1653599917.49018,1653599918.03988,1653599918.03877,1653600237.61723,1
124,4,2,2,16,4,1,c1_WhyFace,1,self-doubt?,29,F_544.jpg,1653599630.38601,1653599630.38834,267.785875310898,12.5260877609253,280.324249258041,282.425092926025,0.3,285.209546556473,0.550220489501953,285.767083873749,1,left,0.537391185760498,285.759767045975,604.471220722198,607.231220722198,1653599900.93189,1653599900.93362,1653599913.47026,1653599913.47232,1653599915.57111,1653599918.35556,1653599918.35722,1653599918.9131,1653599918.90578,1653600237.61723,1
124,4,2,2,16,5,1,c1_WhyFace,2,self-doubt?,27,F_086.jpg,1653599630.38601,1653599630.38834,267.785875310898,12.5260877609253,280.324249258041,282.425092926025,0.3,286.076561203003,0.716955661773682,286.800317993164,1,left,0.705195903778076,286.793516864777,604.471220722198,607.231220722198,1653599900.93189,1653599900.93362,1653599913.47026,1653599913.47232,1653599915.57111,1653599919.22257,1653599919.22427,1653599919.94633,1653599919.93953,1653600237.61723,0
124,4,2,2,16,6,1,c1_WhyFace,1,self-doubt?,26,F_111.jpg,1653599630.38601,1653599630.38834,267.785875310898,12.5260877609253,280.324249258041,282.425092926025,0.3,287.110310306549,0.533547878265381,287.65055893898,1,left,0.516708850860596,287.643858184814,604.471220722198,607.231220722198,1653599900.93189,1653599900.93362,1653599913.47026,1653599913.47232,1653599915.57111,1653599920.25632,1653599920.25788,1653599920.79657,1653599920.78987,1653600237.61723,1
124,4,2,2,16,7,1,c1_WhyFace,2,self-doubt?,31,F_774.jpg,1653599630.38601,1653599630.38834,267.785875310898,12.5260877609253,280.324249258041,282.425092926025,0.3,287.960652103424,0.600241184234619,288.567547073364,3,right,0.58833384513855,288.560893287659,604.471220722198,607.231220722198,1653599900.93189,1653599900.93362,1653599913.47026,1653599913.47232,1653599915.57111,1653599921.10667,1653599921.10883,1653599921.71356,1653599921.70691,1653600237.61723,0
124,4,2,2,16,8,1,c1_WhyFace,1,self-doubt?,30,F_584.jpg,1653599630.38601,1653599630.38834,267.785875310898,12.5260877609253,280.324249258041,282.425092926025,0.3,288.877687921524,0.616914749145508,289.500843038559,1,left,0.600224018096924,289.49460267067,604.471220722198,607.231220722198,1653599900.93189,1653599900.93362,1653599913.47026,1653599913.47232,1653599915.57111,1653599922.0237,1653599922.02544,1653599922.64686,1653599922.64062,1653600237.61723,1
124,4,2,2,17,1,4,c4_HowHand,1,reaching?,106,H_006.jpg,1653599630.38601,1653599630.38834,289.577969303131,8.62397575378418,298.21477388382,300.315619459152,2.10084557533264,300.465678920746,0.533547163009644,301.000879039764,1,left,0.524650096893311,300.999226083756,604.471220722198,607.231220722198,1653599922.72398,1653599922.72507,1653599931.36079,1653599931.36395,1653599933.46163,1653599933.61169,1653599933.61395,1653599934.14689,1653599934.14524,1653600237.61723,1
124,4,2,2,17,2,4,c4_HowHand,2,reaching?,105,H_438.jpg,1653599630.38601,1653599630.38834,289.577969303131,8.62397575378418,298.21477388382,300.315619459152,0.3,301.316021671295,0.600241184234619,301.917748918533,1,left,0.589668035507202,301.91626285553,604.471220722198,607.231220722198,1653599922.72398,1653599922.72507,1653599931.36079,1653599931.36395,1653599933.46163,1653599934.46203,1653599934.46375,1653599935.06376,1653599935.06228,1653600237.61723,0
124,4,2,2,17,3,4,c4_HowHand,1,reaching?,111,H_003.jpg,1653599630.38601,1653599630.38834,289.577969303131,8.62397575378418,298.21477388382,300.315619459152,0.3,302.233056774139,0.666934967041016,302.901741018295,1,left,0.649440050125122,302.89999174118,604.471220722198,607.231220722198,1653599922.72398,1653599922.72507,1653599931.36079,1653599931.36395,1653599933.46163,1653599935.37907,1653599935.38102,1653599936.04775,1653599936.046,1653600237.61723,1
124,4,2,2,17,4,4,c4_HowHand,1,reaching?,109,H_474.jpg,1653599630.38601,1653599630.38834,289.577969303131,8.62397575378418,298.21477388382,300.315619459152,0.3,303.216786136627,0.633587121963501,303.851830949783,1,left,0.619208097457886,303.850373258591,604.471220722198,607.231220722198,1653599922.72398,1653599922.72507,1653599931.36079,1653599931.36395,1653599933.46163,1653599936.3628,1653599936.36439,1653599936.99784,1653599936.99639,1653600237.61723,1
124,4,2,2,17,5,4,c4_HowHand,2,reaching?,108,H_532.jpg,1653599630.38601,1653599630.38834,289.577969303131,8.62397575378418,298.21477388382,300.315619459152,0.3,304.167166938782,0.583568334579468,304.75185297966,3,right,0.561834812164307,304.750735273361,604.471220722198,607.231220722198,1653599922.72398,1653599922.72507,1653599931.36079,1653599931.36395,1653599933.46163,1653599937.31318,1653599937.31507,1653599937.89787,1653599937.89675,1653600237.61723,0
124,4,2,2,17,6,4,c4_HowHand,1,reaching?,110,H_364.jpg,1653599630.38601,1653599630.38834,289.577969303131,8.62397575378418,298.21477388382,300.315619459152,0.3,305.067528715134,0.50020170211792,305.568837871552,1,left,0.482174158096313,305.567730417252,604.471220722198,607.231220722198,1653599922.72398,1653599922.72507,1653599931.36079,1653599931.36395,1653599933.46163,1653599938.21354,1653599938.21505,1653599938.71485,1653599938.71374,1653600237.61723,1
124,4,2,2,17,7,4,c4_HowHand,1,reaching?,107,H_007.jpg,1653599630.38601,1653599630.38834,289.577969303131,8.62397575378418,298.21477388382,300.315619459152,0.3,305.884524335861,0.500199556350708,306.385753860474,1,left,0.489789009094238,306.384723892212,604.471220722198,607.231220722198,1653599922.72398,1653599922.72507,1653599931.36079,1653599931.36395,1653599933.46163,1653599939.03054,1653599939.03218,1653599939.53177,1653599939.53074,1653600237.61723,1
124,4,2,2,17,8,4,c4_HowHand,2,reaching?,112,H_132.jpg,1653599630.38601,1653599630.38834,289.577969303131,8.62397575378418,298.21477388382,300.315619459152,0.3,306.701519002914,0.833668231964111,307.536172857285,3,right,0.821648120880127,307.535187234879,604.471220722198,607.231220722198,1653599922.72398,1653599922.72507,1653599931.36079,1653599931.36395,1653599933.46163,1653599939.84753,1653599939.84932,1653599940.68219,1653599940.6812,1653600237.61723,0
124,4,2,2,18,1,2,c2_WhyHand,1,healthy?,18,H_438.jpg,1653599630.38601,1653599630.38834,307.601881017685,13.0820088386536,320.690476169586,322.791320314407,2.10084414482117,322.941380968094,0.616914033889771,323.568204870224,1,left,0.6006760597229,323.558295001984,604.471220722198,607.231220722198,1653599940.74789,1653599940.74877,1653599953.83649,1653599953.84771,1653599955.93733,1653599956.08739,1653599956.0978,1653599956.71422,1653599956.70431,1653600237.61723,1
124,4,2,2,18,2,2,c2_WhyHand,2,healthy?,20,H_007.jpg,1653599630.38601,1653599630.38834,307.601881017685,13.0820088386536,320.690476169586,322.791320314407,0.3,323.875089159012,0.633588075637817,324.518501033783,1,left,0.621860027313232,324.50867723465,604.471220722198,607.231220722198,1653599940.74789,1653599940.74877,1653599953.83649,1653599953.84771,1653599955.93733,1653599957.0211,1653599957.02284,1653599957.66451,1653599957.65469,1653600237.61723,0
124,4,2,2,18,3,2,c2_WhyHand,1,healthy?,23,H_364.jpg,1653599630.38601,1653599630.38834,307.601881017685,13.0820088386536,320.690476169586,322.791320314407,0.3,324.825471391678,0.983729362487793,325.818654050827,1,left,0.968894004821777,325.809200754166,604.471220722198,607.231220722198,1653599940.74789,1653599940.74877,1653599953.83649,1653599953.84771,1653599955.93733,1653599957.97148,1653599957.97298,1653599958.96467,1653599958.95521,1653600237.61723,1
124,4,2,2,18,4,2,c2_WhyHand,2,healthy?,24,H_019.jpg,1653599630.38601,1653599630.38834,307.601881017685,13.0820088386536,320.690476169586,322.791320314407,0.3,326.125994911194,0.850341320037842,326.978034009933,3,right,0.831207990646362,326.976336231232,604.471220722198,607.231220722198,1653599940.74789,1653599940.74877,1653599953.83649,1653599953.84771,1653599955.93733,1653599959.27201,1653599959.27383,1653599960.12405,1653599960.12235,1653600237.61723,0
124,4,2,2,18,5,2,c2_WhyHand,1,healthy?,19,H_167.jpg,1653599630.38601,1653599630.38834,307.601881017685,13.0820088386536,320.690476169586,322.791320314407,0.3,327.293130149841,0.55022120475769,327.851595869064,1,left,0.537049055099487,327.843351354599,604.471220722198,607.231220722198,1653599940.74789,1653599940.74877,1653599953.83649,1653599953.84771,1653599955.93733,1653599960.43914,1653599960.44093,1653599960.99761,1653599960.98936,1653600237.61723,1
124,4,2,2,18,6,2,c2_WhyHand,2,healthy?,22,H_130.jpg,1653599630.38601,1653599630.38834,307.601881017685,13.0820088386536,320.690476169586,322.791320314407,0.3,328.160145273209,1.06709623336792,329.234957923889,3,right,1.05705308914185,329.227241506577,604.471220722198,607.231220722198,1653599940.74789,1653599940.74877,1653599953.83649,1653599953.84771,1653599955.93733,1653599961.30616,1653599961.30773,1653599962.38097,1653599962.37325,1653600237.61723,0
124,4,2,2,18,7,2,c2_WhyHand,1,healthy?,21,H_627.jpg,1653599630.38601,1653599630.38834,307.601881017685,13.0820088386536,320.690476169586,322.791320314407,0.3,329.544035425186,0.867014646530151,330.418591012955,1,left,0.8504638671875,330.411050071716,604.471220722198,607.231220722198,1653599940.74789,1653599940.74877,1653599953.83649,1653599953.84771,1653599955.93733,1653599962.69005,1653599962.692,1653599963.5646,1653599963.55706,1653600237.61723,1
124,4,2,2,18,8,2,c2_WhyHand,1,healthy?,17,H_362.jpg,1653599630.38601,1653599630.38834,307.601881017685,13.0820088386536,320.690476169586,322.791320314407,0.3,330.727843751907,0.76697564125061,331.501439085007,1,left,0.758398056030273,331.494819393158,604.471220722198,607.231220722198,1653599940.74789,1653599940.74877,1653599953.83649,1653599953.84771,1653599955.93733,1653599963.87386,1653599963.87561,1653599964.64745,1653599964.64083,1653600237.61723,1
124,4,2,2,19,1,1,c1_WhyFace,1,proud?,101,F_083.jpg,1653599630.38601,1653599630.38834,331.578186740875,7.17571020126343,338.764408340454,340.865252246857,2.10084390640259,341.015313615799,0.416833639144897,341.435608854294,1,left,0.399685144424438,341.432147254944,604.471220722198,607.231220722198,1653599964.7242,1653599964.73075,1653599971.91042,1653599971.91512,1653599974.01127,1653599974.16133,1653599974.16511,1653599974.58162,1653599974.57816,1653600237.61723,1
124,4,2,2,19,2,1,c1_WhyFace,2,proud?,98,F_412.jpg,1653599630.38601,1653599630.38834,331.578186740875,7.17571020126343,338.764408340454,340.865252246857,0.3,341.748941173553,0.53354811668396,342.285525074005,3,right,0.525080919265747,342.282489290237,604.471220722198,607.231220722198,1653599964.7242,1653599964.73075,1653599971.91042,1653599971.91512,1653599974.01127,1653599974.89495,1653599974.89795,1653599975.43154,1653599975.4285,1653600237.61723,0
124,4,2,2,19,3,1,c1_WhyFace,1,proud?,99,F_695.jpg,1653599630.38601,1653599630.38834,331.578186740875,7.17571020126343,338.764408340454,340.865252246857,0.3,342.599283447266,0.500200748443604,343.102299919128,1,left,0.48296594619751,343.099484195709,604.471220722198,607.231220722198,1653599964.7242,1653599964.73075,1653599971.91042,1653599971.91512,1653599974.01127,1653599975.7453,1653599975.74839,1653599976.24831,1653599976.2455,1653600237.61723,1
124,4,2,2,19,4,1,c1_WhyFace,1,proud?,104,F_598.jpg,1653599630.38601,1653599630.38834,331.578186740875,7.17571020126343,338.764408340454,340.865252246857,0.3,343.416278591156,0.500201463699341,343.918369998932,1,left,0.488502979278564,343.916480054855,604.471220722198,607.231220722198,1653599964.7242,1653599964.73075,1653599971.91042,1653599971.91512,1653599974.01127,1653599976.56229,1653599976.56501,1653599977.06438,1653599977.06249,1653600237.61723,1
124,4,2,2,19,5,1,c1_WhyFace,1,proud?,103,F_618.jpg,1653599630.38601,1653599630.38834,331.578186740875,7.17571020126343,338.764408340454,340.865252246857,0.3,344.233273258209,0.516874074935913,344.751723995209,1,left,0.494817018508911,344.750147333145,604.471220722198,607.231220722198,1653599964.7242,1653599964.73075,1653599971.91042,1653599971.91512,1653599974.01127,1653599977.37929,1653599977.38138,1653599977.89774,1653599977.89616,1653600237.61723,1
124,4,2,2,19,6,1,c1_WhyFace,1,proud?,97,F_582.jpg,1653599630.38601,1653599630.38834,331.578186740875,7.17571020126343,338.764408340454,340.865252246857,0.3,345.066942205429,0.533547401428223,345.601796855927,1,left,0.521510124206543,345.600489606857,604.471220722198,607.231220722198,1653599964.7242,1653599964.73075,1653599971.91042,1653599971.91512,1653599974.01127,1653599978.21296,1653599978.21507,1653599978.74781,1653599978.7465,1653600237.61723,1
124,4,2,2,19,7,1,c1_WhyFace,2,proud?,102,F_760.jpg,1653599630.38601,1653599630.38834,331.578186740875,7.17571020126343,338.764408340454,340.865252246857,0.3,345.917283763886,0.58356785774231,346.501873960495,3,right,0.570837020874023,346.500851621628,604.471220722198,607.231220722198,1653599964.7242,1653599964.73075,1653599971.91042,1653599971.91512,1653599974.01127,1653599979.0633,1653599979.06505,1653599979.64789,1653599979.64686,1653600237.61723,0
124,4,2,2,19,8,1,c1_WhyFace,2,proud?,100,F_776.jpg,1653599630.38601,1653599630.38834,331.578186740875,7.17571020126343,338.764408340454,340.865252246857,0.3,346.817645540237,0.733627796173096,347.552310934067,1,left,0.722845792770386,347.551273336411,604.471220722198,607.231220722198,1653599964.7242,1653599964.73075,1653599971.91042,1653599971.91512,1653599974.01127,1653599979.96366,1653599979.96544,1653599980.69832,1653599980.69729,1653600237.61723,0
124,4,2,2,20,1,3,c3_HowFace,1,smiling?,115,F_695.jpg,1653599630.38601,1653599630.38834,347.634640684128,12.5992572307587,360.239707221985,362.340552558899,2.10084533691406,362.490611066818,0.450182199478149,362.952641000748,1,left,0.431473970413208,362.940793266296,604.471220722198,607.231220722198,1653599980.78065,1653599980.78247,1653599993.38572,1653599993.39903,1653599995.48657,1653599995.63662,1653599995.64879,1653599996.09865,1653599996.08681,1653600237.61723,1
124,4,2,2,20,2,3,c3_HowFace,2,smiling?,114,F_412.jpg,1653599630.38601,1653599630.38834,347.634640684128,12.5992572307587,360.239707221985,362.340552558899,0.3,363.257587184906,0.666935205459595,363.936047067642,3,right,0.653598070144653,363.924522390366,604.471220722198,607.231220722198,1653599980.78065,1653599980.78247,1653599993.38572,1653599993.39903,1653599995.48657,1653599996.4036,1653599996.40527,1653599997.08206,1653599997.07054,1653600237.61723,0
124,4,2,2,20,3,3,c3_HowFace,1,smiling?,116,F_083.jpg,1653599630.38601,1653599630.38834,347.634640684128,12.5992572307587,360.239707221985,362.340552558899,0.3,364.241316308975,0.450181245803833,364.702394952774,1,left,0.437352895736694,364.691497554779,604.471220722198,607.231220722198,1653599980.78065,1653599980.78247,1653599993.38572,1653599993.39903,1653599995.48657,1653599997.38733,1653599997.38896,1653599997.84841,1653599997.83751,1653600237.61723,1
124,4,2,2,20,4,3,c3_HowFace,1,smiling?,117,F_593.jpg,1653599630.38601,1653599630.38834,347.634640684128,12.5992572307587,360.239707221985,362.340552558899,0.3,365.008291950226,0.816994667053223,365.826333990097,1,left,0.796709060668945,365.825286617279,604.471220722198,607.231220722198,1653599980.78065,1653599980.78247,1653599993.38572,1653599993.39903,1653599995.48657,1653599998.1543,1653599998.15617,1653599998.97235,1653599998.9713,1653600237.61723,1
124,4,2,2,20,5,3,c3_HowFace,2,smiling?,113,F_712.jpg,1653599630.38601,1653599630.38834,347.634640684128,12.5992572307587,360.239707221985,362.340552558899,0.3,366.142080774307,0.616914987564087,366.769289960861,3,right,0.602586984634399,366.758995761871,604.471220722198,607.231220722198,1653599980.78065,1653599980.78247,1653599993.38572,1653599993.39903,1653599995.48657,1653599999.28809,1653599999.28961,1653599999.9153,1653599999.90501,1653600237.61723,0
124,4,2,2,20,6,3,c3_HowFace,1,smiling?,119,F_139.jpg,1653599630.38601,1653599630.38834,347.634640684128,12.5992572307587,360.239707221985,362.340552558899,0.3,367.075789442062,0.466853618621826,367.543869009018,1,left,0.449901819229126,367.542643060684,604.471220722198,607.231220722198,1653599980.78065,1653599980.78247,1653599993.38572,1653599993.39903,1653599995.48657,1653600000.2218,1653600000.22356,1653600000.68988,1653600000.68866,1653600237.61723,1
124,4,2,2,20,7,3,c3_HowFace,1,smiling?,118,F_759.jpg,1653599630.38601,1653599630.38834,347.634640684128,12.5992572307587,360.239707221985,362.340552558899,0.3,367.859437217712,0.550221920013428,368.419076910019,1,left,0.540796041488647,368.409659137726,604.471220722198,607.231220722198,1653599980.78065,1653599980.78247,1653599993.38572,1653599993.39903,1653599995.48657,1653600001.00545,1653600001.00694,1653600001.56509,1653600001.55567,1653600237.61723,1
124,4,2,2,20,8,3,c3_HowFace,2,smiling?,120,F_758.jpg,1653599630.38601,1653599630.38834,347.634640684128,12.5992572307587,360.239707221985,362.340552558899,0.3,368.726453056335,0.566894292831421,369.294450035095,3,right,0.549466848373413,369.293347349167,604.471220722198,607.231220722198,1653599980.78065,1653599980.78247,1653599993.38572,1653599993.39903,1653599995.48657,1653600001.87247,1653600001.874,1653600002.44046,1653600002.43936,1653600237.61723,0
124,4,2,2,21,1,4,c4_HowHand,1,both hands?,123,H_167.jpg,1653599630.38601,1653599630.38834,369.37671374321,9.96530032157898,379.34738992691,381.448233356476,2.10084342956543,381.598293294907,0.633589029312134,382.236666908264,1,left,0.612164974212646,382.231882324219,604.471220722198,607.231220722198,1653600002.52273,1653600002.53244,1653600012.4934,1653600012.49954,1653600014.59425,1653600014.74431,1653600014.74976,1653600015.38268,1653600015.3779,1653600237.61723,1
124,4,2,2,21,2,4,c4_HowHand,2,both hands?,126,H_159.jpg,1653599630.38601,1653599630.38834,369.37671374321,9.96530032157898,379.34738992691,381.448233356476,0.3,382.548675050735,0.600242137908936,383.15335606575,3,right,0.587966918945312,383.148917188644,604.471220722198,607.231220722198,1653600002.52273,1653600002.53244,1653600012.4934,1653600012.49954,1653600014.59425,1653600015.69469,1653600015.69955,1653600016.29937,1653600016.29493,1653600237.61723,0
124,4,2,2,21,3,4,c4_HowHand,1,both hands?,128,H_027.jpg,1653599630.38601,1653599630.38834,369.37671374321,9.96530032157898,379.34738992691,381.448233356476,0.3,383.465710868835,0.516874551773071,383.986903896332,1,left,0.502608060836792,383.982585420609,604.471220722198,607.231220722198,1653600002.52273,1653600002.53244,1653600012.4934,1653600012.49954,1653600014.59425,1653600016.61172,1653600016.61637,1653600017.13292,1653600017.1286,1653600237.61723,1
124,4,2,2,21,4,4,c4_HowHand,1,both hands?,124,H_581.jpg,1653599630.38601,1653599630.38834,369.37671374321,9.96530032157898,379.34738992691,381.448233356476,0.3,384.299378862381,0.733628749847412,385.036844959259,1,left,0.723669052124023,385.033007612228,604.471220722198,607.231220722198,1653600002.52273,1653600002.53244,1653600012.4934,1653600012.49954,1653600014.59425,1653600017.44539,1653600017.44947,1653600018.18286,1653600018.17902,1653600237.61723,1
124,4,2,2,21,5,4,c4_HowHand,2,both hands?,121,H_091.jpg,1653599630.38601,1653599630.38834,369.37671374321,9.96530032157898,379.34738992691,381.448233356476,0.3,385.349802722931,0.650261163711548,386.00281785965,3,right,0.641211986541748,386.000063886642,604.471220722198,607.231220722198,1653600002.52273,1653600002.53244,1653600012.4934,1653600012.49954,1653600014.59425,1653600018.49582,1653600018.49943,1653600019.14883,1653600019.14608,1653600237.61723,0
124,4,2,2,21,6,4,c4_HowHand,1,both hands?,122,H_111.jpg,1653599630.38601,1653599630.38834,369.37671374321,9.96530032157898,379.34738992691,381.448233356476,0.3,386.316857805252,0.466853380203247,386.787011852264,1,left,0.448245048522949,386.783711185455,604.471220722198,607.231220722198,1653600002.52273,1653600002.53244,1653600012.4934,1653600012.49954,1653600014.59425,1653600019.46287,1653600019.46625,1653600019.93302,1653600019.92972,1653600237.61723,1
124,4,2,2,21,7,4,c4_HowHand,2,both hands?,125,H_627.jpg,1653599630.38601,1653599630.38834,369.37671374321,9.96530032157898,379.34738992691,381.448233356476,0.3,387.100505580902,0.616914510726929,387.719639053345,3,right,0.593929052352905,387.717420091629,604.471220722198,607.231220722198,1653600002.52273,1653600002.53244,1653600012.4934,1653600012.49954,1653600014.59425,1653600020.24652,1653600020.2497,1653600020.86565,1653600020.86343,1653600237.61723,0
124,4,2,2,21,8,4,c4_HowHand,1,both hands?,127,H_349.jpg,1653599630.38601,1653599630.38834,369.37671374321,9.96530032157898,379.34738992691,381.448233356476,0.3,388.034214248657,0.450180768966675,388.486388912201,1,left,0.433664083480835,388.484395017624,604.471220722198,607.231220722198,1653600002.52273,1653600002.53244,1653600012.4934,1653600012.49954,1653600014.59425,1653600021.18023,1653600021.18294,1653600021.6324,1653600021.63041,1653600237.61723,1
124,4,2,2,22,1,2,c2_WhyHand,1,helping?,34,H_111.jpg,1653599630.38601,1653599630.38834,388.567762365341,8.30420470237732,396.887773981094,398.988618602753,2.10084462165833,399.138678541183,0.56689453125,399.707123985291,1,left,0.553622007369995,399.705573072433,604.471220722198,607.231220722198,1653600021.71378,1653600021.71637,1653600030.03379,1653600030.03557,1653600032.13463,1653600032.28469,1653600032.28608,1653600032.85314,1653600032.85159,1653600237.61723,1
124,4,2,2,22,2,2,c2_WhyHand,1,helping?,38,H_077.jpg,1653599630.38601,1653599630.38834,388.567762365341,8.30420470237732,396.887773981094,398.988618602753,0.3,400.022366037369,0.583568334579468,400.607471933365,1,left,0.569653034210205,400.605934371948,604.471220722198,607.231220722198,1653600021.71378,1653600021.71637,1653600030.03379,1653600030.03557,1653600032.13463,1653600033.16838,1653600033.16996,1653600033.75348,1653600033.75195,1653600237.61723,1
124,4,2,2,22,3,2,c2_WhyHand,2,helping?,35,H_159.jpg,1653599630.38601,1653599630.38834,388.567762365341,8.30420470237732,396.887773981094,398.988618602753,0.3,400.922728052139,0.516875743865967,401.440700998306,3,right,0.501507997512817,401.439603796005,604.471220722198,607.231220722198,1653600021.71378,1653600021.71637,1653600030.03379,1653600030.03557,1653600032.13463,1653600034.06874,1653600034.07035,1653600034.58671,1653600034.58562,1653600237.61723,0
124,4,2,2,22,4,2,c2_WhyHand,1,helping?,37,H_474.jpg,1653599630.38601,1653599630.38834,388.567762365341,8.30420470237732,396.887773981094,398.988618602753,0.3,401.756397714615,0.516873598098755,402.274368038177,1,left,0.501730918884277,402.273271312714,604.471220722198,607.231220722198,1653600021.71378,1653600021.71637,1653600030.03379,1653600030.03557,1653600032.13463,1653600034.90241,1653600034.90422,1653600035.42038,1653600035.41928,1653600237.61723,1
124,4,2,2,22,5,2,c2_WhyHand,2,helping?,40,H_012.jpg,1653599630.38601,1653599630.38834,388.567762365341,8.30420470237732,396.887773981094,398.988618602753,0.3,402.590064992905,0.716955423355103,403.308083047867,3,right,0.698616981506348,403.30702041626,604.471220722198,607.231220722198,1653600021.71378,1653600021.71637,1653600030.03379,1653600030.03557,1653600032.13463,1653600035.73608,1653600035.73778,1653600036.4541,1653600036.45303,1653600237.61723,0
124,4,2,2,22,6,2,c2_WhyHand,1,helping?,39,H_024.jpg,1653599630.38601,1653599630.38834,388.567762365341,8.30420470237732,396.887773981094,398.988618602753,0.3,403.623814573288,0.600242137908936,404.225110998154,1,left,0.57889199256897,404.224056711197,604.471220722198,607.231220722198,1653600021.71378,1653600021.71637,1653600030.03379,1653600030.03557,1653600032.13463,1653600036.76983,1653600036.7716,1653600037.37112,1653600037.37007,1653600237.61723,1
124,4,2,2,22,7,2,c2_WhyHand,2,helping?,33,H_091.jpg,1653599630.38601,1653599630.38834,388.567762365341,8.30420470237732,396.887773981094,398.988618602753,0.3,404.540850152969,0.700281143188477,405.254070034027,3,right,0.688534021377563,405.241131296158,604.471220722198,607.231220722198,1653600021.71378,1653600021.71637,1653600030.03379,1653600030.03557,1653600032.13463,1653600037.68686,1653600037.68858,1653600038.40008,1653600038.38714,1653600237.61723,0
124,4,2,2,22,8,2,c2_WhyHand,1,helping?,36,H_349.jpg,1653599630.38601,1653599630.38834,388.567762365341,8.30420470237732,396.887773981094,398.988618602753,0.3,405.557925691605,0.51687479019165,406.087352981567,1,left,0.507385969161987,406.074800481796,604.471220722198,607.231220722198,1653600021.71378,1653600021.71637,1653600030.03379,1653600030.03557,1653600032.13463,1653600038.70394,1653600038.70563,1653600039.23337,1653600039.22081,1653600237.61723,1
124,4,2,2,23,1,1,c1_WhyFace,1,self-doubt?,28,F_754.jpg,1653599630.38601,1653599630.38834,406.174840679169,8.2270781993866,414.411484470367,416.512329330444,2.1008448600769,416.662389984131,0.450180292129517,417.113949050903,1,left,0.425065040588379,417.11257027626,604.471220722198,607.231220722198,1653600039.32085,1653600039.32293,1653600047.5575,1653600047.56737,1653600049.65834,1653600049.8084,1653600049.81749,1653600050.25996,1653600050.25858,1653600237.61723,1
124,4,2,2,23,2,1,c1_WhyFace,2,self-doubt?,32,F_128.jpg,1653599630.38601,1653599630.38834,406.174840679169,8.2270781993866,414.411484470367,416.512329330444,0.3,417.42936419487,0.666935443878174,418.103951921463,1,left,0.659562110900879,418.096299638748,604.471220722198,607.231220722198,1653600039.32085,1653600039.32293,1653600047.5575,1653600047.56737,1653600049.65834,1653600050.57538,1653600050.57701,1653600051.24996,1653600051.24231,1653600237.61723,0
124,4,2,2,23,3,1,c1_WhyFace,1,self-doubt?,29,F_544.jpg,1653599630.38601,1653599630.38834,406.174840679169,8.2270781993866,414.411484470367,416.512329330444,0.3,418.413093557358,0.816994905471802,419.237778892517,1,left,0.79970908164978,419.23008846283,604.471220722198,607.231220722198,1653600039.32085,1653600039.32293,1653600047.5575,1653600047.56737,1653600049.65834,1653600051.55911,1653600051.56077,1653600052.38379,1653600052.3761,1653600237.61723,1
124,4,2,2,23,4,1,c1_WhyFace,2,self-doubt?,27,F_086.jpg,1653599630.38601,1653599630.38834,406.174840679169,8.2270781993866,414.411484470367,416.512329330444,0.3,419.546882619858,1.28384947776794,420.837918987274,3,right,1.26637291908264,420.830732097626,604.471220722198,607.231220722198,1653600039.32085,1653600039.32293,1653600047.5575,1653600047.56737,1653600049.65834,1653600052.6929,1653600052.695,1653600053.98393,1653600053.97675,1653600237.61723,0
124,4,2,2,23,5,1,c1_WhyFace,1,self-doubt?,25,F_798.jpg,1653599630.38601,1653599630.38834,406.174840679169,8.2270781993866,414.411484470367,416.512329330444,0.3,421.147525062561,0.80032205581665,421.954541912079,1,left,0.786992788314819,421.947847118378,604.471220722198,607.231220722198,1653600039.32085,1653600039.32293,1653600047.5575,1653600047.56737,1653600049.65834,1653600054.29354,1653600054.29522,1653600055.10055,1653600055.09386,1653600237.61723,1
124,4,2,2,23,6,1,c1_WhyFace,1,self-doubt?,30,F_584.jpg,1653599630.38601,1653599630.38834,406.174840679169,8.2270781993866,414.411484470367,416.512329330444,0.3,422.264641275406,0.83366847038269,423.10443901062,3,right,0.826218843460083,423.098309745789,604.471220722198,607.231220722198,1653600039.32085,1653600039.32293,1653600047.5575,1653600047.56737,1653600049.65834,1653600055.41065,1653600055.41207,1653600056.25045,1653600056.24432,1653600237.61723,0
124,4,2,2,23,7,1,c1_WhyFace,1,self-doubt?,26,F_111.jpg,1653599630.38601,1653599630.38834,406.174840679169,8.2270781993866,414.411484470367,416.512329330444,0.3,423.415104379654,0.766974449157715,424.187650909424,1,left,0.749054908752441,424.182078828812,604.471220722198,607.231220722198,1653600039.32085,1653600039.32293,1653600047.5575,1653600047.56737,1653600049.65834,1653600056.56112,1653600056.56304,1653600057.33366,1653600057.32809,1653600237.61723,1
124,4,2,2,23,8,1,c1_WhyFace,2,self-doubt?,31,F_774.jpg,1653599630.38601,1653599630.38834,406.174840679169,8.2270781993866,414.411484470367,416.512329330444,0.3,424.498873224258,0.683607816696167,425.187897911072,3,right,0.676872968673706,425.182481040955,604.471220722198,607.231220722198,1653600039.32085,1653600039.32293,1653600047.5575,1653600047.56737,1653600049.65834,1653600057.64489,1653600057.64661,1653600058.33391,1653600058.32849,1653600237.61723,0
124,4,2,2,24,1,3,c3_HowFace,1,looking to side?,71,F_433.jpg,1653599630.38601,1653599630.38834,425.282521476746,7.9094135761261,433.202371349335,435.303216686249,2.10084533691406,435.453275909424,0.466853618621826,435.921267976761,1,left,0.44681715965271,435.920129528046,604.471220722198,607.231220722198,1653600058.42853,1653600058.42965,1653600066.34838,1653600066.35104,1653600068.44923,1653600068.59929,1653600068.60107,1653600069.06728,1653600069.06614,1653600237.61723,1
124,4,2,2,24,2,3,c3_HowFace,2,looking to side?,70,F_779.jpg,1653599630.38601,1653599630.38834,425.282521476746,7.9094135761261,433.202371349335,435.303216686249,0.3,436.236925830841,0.733627557754517,436.971989860535,1,left,0.723810911178589,436.970553388596,604.471220722198,607.231220722198,1653600058.42853,1653600058.42965,1653600066.34838,1653600066.35104,1653600068.44923,1653600069.38294,1653600069.38481,1653600070.118,1653600070.11657,1653600237.61723,0
124,4,2,2,24,3,3,c3_HowFace,1,looking to side?,68,F_760.jpg,1653599630.38601,1653599630.38834,425.282521476746,7.9094135761261,433.202371349335,435.303216686249,0.3,437.287347307205,0.716955184936523,438.005672922134,1,left,0.697168827056885,438.004302492142,604.471220722198,607.231220722198,1653600058.42853,1653600058.42965,1653600066.34838,1653600066.35104,1653600068.44923,1653600070.43336,1653600070.43541,1653600071.15169,1653600071.15032,1653600237.61723,1
124,4,2,2,24,4,3,c3_HowFace,2,looking to side?,66,F_111.jpg,1653599630.38601,1653599630.38834,425.282521476746,7.9094135761261,433.202371349335,435.303216686249,0.3,438.321096410751,0.61691427230835,438.939542045593,3,right,0.607355833053589,438.93801068306,604.471220722198,607.231220722198,1653600058.42853,1653600058.42965,1653600066.34838,1653600066.35104,1653600068.44923,1653600071.46711,1653600071.46866,1653600072.08556,1653600072.08402,1653600237.61723,0
124,4,2,2,24,5,3,c3_HowFace,2,looking to side?,65,F_798.jpg,1653599630.38601,1653599630.38834,425.282521476746,7.9094135761261,433.202371349335,435.303216686249,0.3,439.254804601669,0.816995143890381,440.072984924316,3,right,0.795906066894531,440.07179974556,604.471220722198,607.231220722198,1653600058.42853,1653600058.42965,1653600066.34838,1653600066.35104,1653600068.44923,1653600072.40082,1653600072.40275,1653600073.219,1653600073.21781,1653600237.61723,0
124,4,2,2,24,6,3,c3_HowFace,1,looking to side?,67,F_716.jpg,1653599630.38601,1653599630.38834,425.282521476746,7.9094135761261,433.202371349335,435.303216686249,0.3,440.388595094681,0.550219774246216,440.939802875519,1,left,0.538625955581665,440.938814868927,604.471220722198,607.231220722198,1653600058.42853,1653600058.42965,1653600066.34838,1653600066.35104,1653600068.44923,1653600073.53461,1653600073.53598,1653600074.08582,1653600074.08483,1653600237.61723,1
124,4,2,2,24,7,3,c3_HowFace,1,looking to side?,72,F_590.jpg,1653599630.38601,1653599630.38834,425.282521476746,7.9094135761261,433.202371349335,435.303216686249,0.3,441.255609025955,0.733628511428833,441.990973939896,1,left,0.718010902404785,441.989237537384,604.471220722198,607.231220722198,1653600058.42853,1653600058.42965,1653600066.34838,1653600066.35104,1653600068.44923,1653600074.40162,1653600074.40314,1653600075.13699,1653600075.13525,1653600237.61723,1
124,4,2,2,24,8,3,c3_HowFace,1,looking to side?,69,F_110.jpg,1653599630.38601,1653599630.38834,425.282521476746,7.9094135761261,433.202371349335,435.303216686249,0.3,442.306031694412,0.816997289657593,443.124082078934,3,right,0.806401014328003,443.12302898407,604.471220722198,607.231220722198,1653600058.42853,1653600058.42965,1653600066.34838,1653600066.35104,1653600068.44923,1653600075.45204,1653600075.45403,1653600076.2701,1653600076.26904,1653600237.61723,0
124,4,2,2,25,1,1,c1_WhyFace,1,argument?,43,F_716.jpg,1653599630.38601,1653599630.38834,443.223066320419,7.84392261505127,451.076223125458,453.177067508698,2.10084438323975,453.327128162384,0.566895484924316,453.895613899231,1,left,0.54692006111145,453.894023647308,604.471220722198,607.231220722198,1653600076.36908,1653600076.37064,1653600084.22224,1653600084.22437,1653600086.32308,1653600086.47314,1653600086.47535,1653600087.04163,1653600087.04004,1653600237.61723,1
124,4,2,2,25,2,1,c1_WhyFace,2,argument?,44,F_139.jpg,1653599630.38601,1653599630.38834,443.223066320419,7.84392261505127,451.076223125458,453.177067508698,0.3,454.210817089081,0.716954946517944,454.928914060593,3,right,0.697728872299194,454.927772035599,604.471220722198,607.231220722198,1653600076.36908,1653600076.37064,1653600084.22224,1653600084.22437,1653600086.32308,1653600087.35683,1653600087.3584,1653600088.07493,1653600088.07379,1653600237.61723,0
124,4,2,2,25,3,1,c1_WhyFace,1,argument?,47,F_743.jpg,1653599630.38601,1653599630.38834,443.223066320419,7.84392261505127,451.076223125458,453.177067508698,0.3,455.244565477371,0.600241661071777,455.846523036957,1,left,0.577136039733887,455.844807138443,604.471220722198,607.231220722198,1653600076.36908,1653600076.37064,1653600084.22224,1653600084.22437,1653600086.32308,1653600088.39058,1653600088.39221,1653600088.99254,1653600088.99082,1653600237.61723,1
124,4,2,2,25,4,1,c1_WhyFace,1,argument?,42,F_403.jpg,1653599630.38601,1653599630.38834,443.223066320419,7.84392261505127,451.076223125458,453.177067508698,0.3,456.161601295471,0.600241184234619,456.763218870163,1,left,0.58082914352417,456.761842479706,604.471220722198,607.231220722198,1653600076.36908,1653600076.37064,1653600084.22224,1653600084.22437,1653600086.32308,1653600089.30761,1653600089.30898,1653600089.90923,1653600089.90786,1653600237.61723,1
124,4,2,2,25,5,1,c1_WhyFace,1,argument?,48,F_758.jpg,1653599630.38601,1653599630.38834,443.223066320419,7.84392261505127,451.076223125458,453.177067508698,0.3,457.078636398315,0.666934728622437,457.755380859375,1,left,0.65300178527832,457.745571126938,604.471220722198,607.231220722198,1653600076.36908,1653600076.37064,1653600084.22224,1653600084.22437,1653600086.32308,1653600090.22465,1653600090.22616,1653600090.90139,1653600090.89158,1653600237.61723,1
124,4,2,2,25,6,1,c1_WhyFace,2,argument?,46,F_844.jpg,1653599630.38601,1653599630.38834,443.223066320419,7.84392261505127,451.076223125458,453.177067508698,0.3,458.062365522385,0.500200986862183,458.563791027069,3,right,0.478494882583618,458.562566509247,604.471220722198,607.231220722198,1653600076.36908,1653600076.37064,1653600084.22224,1653600084.22437,1653600086.32308,1653600091.20838,1653600091.21009,1653600091.7098,1653600091.70858,1653600237.61723,0
124,4,2,2,25,7,1,c1_WhyFace,1,argument?,41,F_712.jpg,1653599630.38601,1653599630.38834,443.223066320419,7.84392261505127,451.076223125458,453.177067508698,0.3,458.879360427856,0.516873598098755,459.405504932404,1,left,0.508586883544922,459.396234025955,604.471220722198,607.231220722198,1653600076.36908,1653600076.37064,1653600084.22224,1653600084.22437,1653600086.32308,1653600092.02537,1653600092.02738,1653600092.55152,1653600092.54225,1653600237.61723,1
124,4,2,2,25,8,1,c1_WhyFace,2,argument?,45,F_433.jpg,1653599630.38601,1653599630.38834,443.223066320419,7.84392261505127,451.076223125458,453.177067508698,0.3,459.713028182983,0.583568096160889,460.297775974274,3,right,0.561344861984253,460.296596279144,604.471220722198,607.231220722198,1653600076.36908,1653600076.37064,1653600084.22224,1653600084.22437,1653600086.32308,1653600092.85904,1653600092.86037,1653600093.44379,1653600093.44261,1653600237.61723,0
124,4,2,2,26,1,3,c3_HowFace,1,open mouth?,80,F_844.jpg,1653599630.38601,1653599630.38834,460.379963150024,9.79502391815186,470.183904161453,472.284749975204,2.10084581375122,472.43480919838,0.433506488800049,472.872849931717,1,left,0.414099931716919,472.86831568718,604.471220722198,607.231220722198,1653600093.52598,1653600093.5277,1653600103.32992,1653600103.33572,1653600105.43076,1653600105.58082,1653600105.5857,1653600106.01886,1653600106.01433,1653600237.61723,1
124,4,2,2,26,2,3,c3_HowFace,1,open mouth?,78,F_692.jpg,1653599630.38601,1653599630.38834,460.379963150024,9.79502391815186,470.183904161453,472.284749975204,0.3,473.185111751556,0.483526468276978,473.672864904404,1,left,0.464887142181396,473.668638219833,604.471220722198,607.231220722198,1653600093.52598,1653600093.5277,1653600103.32992,1653600103.33572,1653600105.43076,1653600106.33112,1653600106.33558,1653600106.81888,1653600106.81465,1653600237.61723,1
124,4,2,2,26,3,3,c3_HowFace,2,open mouth?,77,F_584.jpg,1653599630.38601,1653599630.38834,460.379963150024,9.79502391815186,470.183904161453,472.284749975204,0.3,473.985433330536,0.600241184234619,474.589282026291,3,right,0.579562187194824,474.585674514771,604.471220722198,607.231220722198,1653600093.52598,1653600093.5277,1653600103.32992,1653600103.33572,1653600105.43076,1653600107.13145,1653600107.13543,1653600107.7353,1653600107.73169,1653600237.61723,0
124,4,2,2,26,4,3,c3_HowFace,1,open mouth?,75,F_086.jpg,1653599630.38601,1653599630.38834,460.379963150024,9.79502391815186,470.183904161453,472.284749975204,0.3,474.902468671799,0.466853380203247,475.373013963699,1,left,0.451999187469482,475.369322052002,604.471220722198,607.231220722198,1653600093.52598,1653600093.5277,1653600103.32992,1653600103.33572,1653600105.43076,1653600108.04848,1653600108.05184,1653600108.51903,1653600108.51534,1653600237.61723,1
124,4,2,2,26,5,3,c3_HowFace,1,open mouth?,73,F_403.jpg,1653599630.38601,1653599630.38834,460.379963150024,9.79502391815186,470.183904161453,472.284749975204,0.3,475.68611620903,0.483526706695557,476.172993888855,1,left,0.469466209411621,476.169642915726,604.471220722198,607.231220722198,1653600093.52598,1653600093.5277,1653600103.32992,1653600103.33572,1653600105.43076,1653600108.83213,1653600108.83554,1653600109.31901,1653600109.31566,1653600237.61723,1
124,4,2,2,26,6,3,c3_HowFace,2,open mouth?,76,F_544.jpg,1653599630.38601,1653599630.38834,460.379963150024,9.79502391815186,470.183904161453,472.284749975204,0.3,476.486438264847,0.633587598800659,477.122889032364,3,right,0.620521068572998,477.120025863647,604.471220722198,607.231220722198,1653600093.52598,1653600093.5277,1653600103.32992,1653600103.33572,1653600105.43076,1653600109.63245,1653600109.63541,1653600110.2689,1653600110.26604,1653600237.61723,0
124,4,2,2,26,7,3,c3_HowFace,2,open mouth?,79,F_648.jpg,1653599630.38601,1653599630.38834,460.379963150024,9.79502391815186,470.183904161453,472.284749975204,0.3,477.436820020676,0.700281620025635,478.139543046951,3,right,0.678359031677246,478.137101640701,604.471220722198,607.231220722198,1653600093.52598,1653600093.5277,1653600103.32992,1653600103.33572,1653600105.43076,1653600110.58283,1653600110.58566,1653600111.28556,1653600111.28311,1653600237.61723,0
124,4,2,2,26,8,3,c3_HowFace,1,open mouth?,74,F_776.jpg,1653599630.38601,1653599630.38834,460.379963150024,9.79502391815186,470.183904161453,472.284749975204,0.3,478.453895320892,0.616914749145508,479.072818984985,1,left,0.600371837615967,479.070810070038,604.471220722198,607.231220722198,1653600093.52598,1653600093.5277,1653600103.32992,1653600103.33572,1653600105.43076,1653600111.59991,1653600111.60224,1653600112.21883,1653600112.21682,1653600237.61723,1
124,4,2,2,27,1,4,c4_HowHand,1,lifting?,54,H_170.jpg,1653599630.38601,1653599630.38834,479.154177417755,9.98472356796265,489.158198823929,491.242370595932,2.08417177200317,491.392430534363,0.833667516708374,492.239750852585,1,left,0.81384015083313,492.226098051071,604.471220722198,607.231220722198,1653600112.30019,1653600112.30228,1653600122.30421,1653600122.30691,1653600124.38838,1653600124.53844,1653600124.55283,1653600125.38576,1653600125.37211,1653600237.61723,1
124,4,2,2,27,2,4,c4_HowHand,2,lifting?,53,H_077.jpg,1653599630.38601,1653599630.38834,479.154177417755,9.98472356796265,489.158198823929,491.242370595932,0.3,492.542892684937,0.78364896774292,493.339442958832,3,right,0.775531768798828,493.326541652679,604.471220722198,607.231220722198,1653600112.30019,1653600112.30228,1653600122.30421,1653600122.30691,1653600124.38838,1653600125.68891,1653600125.69078,1653600126.48546,1653600126.47255,1653600237.61723,0
124,4,2,2,27,3,4,c4_HowHand,1,lifting?,52,H_189.jpg,1653599630.38601,1653599630.38834,479.154177417755,9.98472356796265,489.158198823929,491.242370595932,0.3,493.643334617615,0.967055797576904,494.62313794136,1,left,0.955826997756958,494.610390415192,604.471220722198,607.231220722198,1653600112.30019,1653600112.30228,1653600122.30421,1653600122.30691,1653600124.38838,1653600126.78935,1653600126.79085,1653600127.76915,1653600127.7564,1653600237.61723,1
124,4,2,2,27,4,4,c4_HowHand,1,lifting?,49,H_362.jpg,1653599630.38601,1653599630.38834,479.154177417755,9.98472356796265,489.158198823929,491.242370595932,0.3,494.927184095383,0.700281381607056,495.639806022644,1,left,0.692667007446289,495.62746547699,604.471220722198,607.231220722198,1653600112.30019,1653600112.30228,1653600122.30421,1653600122.30691,1653600124.38838,1653600128.0732,1653600128.07511,1653600128.78582,1653600128.77348,1653600237.61723,1
124,4,2,2,27,5,4,c4_HowHand,2,lifting?,55,H_012.jpg,1653599630.38601,1653599630.38834,479.154177417755,9.98472356796265,489.158198823929,491.242370595932,0.3,495.944260826111,0.733627080917358,496.689903011322,3,right,0.727070093154907,496.677887907028,604.471220722198,607.231220722198,1653600112.30019,1653600112.30228,1653600122.30421,1653600122.30691,1653600124.38838,1653600129.09027,1653600129.09188,1653600129.83592,1653600129.8239,1653600237.61723,0
124,4,2,2,27,6,4,c4_HowHand,1,lifting?,50,H_443.jpg,1653599630.38601,1653599630.38834,479.154177417755,9.98472356796265,489.158198823929,491.242370595932,0.3,496.994682064056,0.583568811416626,497.590519895554,1,left,0.573354959487915,497.578250875473,604.471220722198,607.231220722198,1653600112.30019,1653600112.30228,1653600122.30421,1653600122.30691,1653600124.38838,1653600130.1407,1653600130.14213,1653600130.73653,1653600130.72426,1653600237.61723,1
124,4,2,2,27,7,4,c4_HowHand,1,lifting?,56,H_136.jpg,1653599630.38601,1653599630.38834,479.154177417755,9.98472356796265,489.158198823929,491.242370595932,0.3,497.895044317245,0.650261402130127,498.546357860565,1,left,0.635854959487915,498.545305719376,604.471220722198,607.231220722198,1653600112.30019,1653600112.30228,1653600122.30421,1653600122.30691,1653600124.38838,1653600131.04106,1653600131.0429,1653600131.69237,1653600131.69132,1653600237.61723,1
