onset	duration	trial_type	pmod_accuracy
8.97341752052307	0.582865905761719	cue_valid	1
16.9097118377686	0.510052871704102	cue_valid	1
27.5470123291016	0.580833387374878	cue_valid	1
35.033136844635	0.546504926681519	cue_valid	1
41.5022161006927	0.5194260597229	cue_valid	1
44.5700280666351	0.481584978103638	cue_valid	1
47.6378374099731	0.5563399314880371	cue_valid	1
55.4740934371948	0.512562465667725	cue_valid	1
69.5793538093567	0.62230749130249	cue_valid	1
76.3485453128815	0.5748478889465329	cue_valid	1
83.5178842544556	0.537431907653809	cue_valid	1
94.1218388080597	0.563499402999878	cue_valid	1
101.591291904449	0.538634967803955	cue_valid	1
109.527585029602	0.5673155307769779	cue_valid	1
136.6376953125	0.550351333618164	cue_valid	1
143.606960535049	0.582781505584717	cue_valid	1
151.076413154602	0.645817947387695	cue_valid	1
161.81375002861	0.51027626991272	cue_valid	1
166.182045459747	0.604971837997437	cue_valid	1
173.651497840881	0.529019069671631	cue_valid	1
178.019793987274	0.528056812286377	cue_valid	1
189.724157810211	0.510664653778076	cue_valid	1
192.992043733597	0.515014600753784	cue_valid	1
197.56041431427	0.50752420425415	cue_valid	1
203.029119491577	0.484329175949097	cue_valid	1
208.097676277161	0.461667251586914	cue_valid	1
223.036580562592	0.599529218673706	cue_valid	1
233.37376999855	0.522211265563965	cue_valid	1
236.541618108749	0.5590481281280519	cue_valid	1
251.047027111053	0.5378586769104	cue_valid	1
254.214875459671	0.585899543762207	cue_valid	1
261.984438657761	0.525932502746582	cue_valid	1
265.752510786057	0.506513786315918	cue_valid	1
270.320880651474	0.6131834506988529	cue_valid	1
275.689549207687	0.545197200775146	cue_valid	1
285.626589298248	0.673595142364502	cue_valid	1
293.096040725708	0.600808572769165	cue_valid	1
299.565120458603	0.6022824764251711	cue_valid	1
303.633303165436	0.483100366592407	cue_valid	1
314.570717334747	0.511103105545044	cue_valid	1
321.039795637131	0.545602512359619	cue_valid	1
344.681946277618	0.540304374694824	cue_valid	1
357.386683225632	0.746610832214355	cue_valid	1
360.754605770111	0.6170813560485839	cue_valid	1
368.390787124634	0.584176015853882	cue_valid	1
374.959903240204	0.5297624588012699	cue_valid	1
378.627937793732	0.574815940856934	cue_valid	1
381.795785427094	0.601218891143799	cue_valid	1
385.163709163666	0.8420233249664311	cue_valid	1
390.932527542114	0.516982746124268	cue_valid	1
396.001083850861	0.590761137008667	cue_valid	1
403.470535993576	0.8159529685974121	cue_valid	1
416.308656692505	0.944107961654663	cue_valid	1
427.712909698486	0.55826301574707	cue_valid	1
452.055320739746	0.7786497592926029	cue_valid	1
457.924175977707	0.7449364185333249	cue_valid	1
482.766774177551	0.567412328720093	cue_valid	1
498.072481870651	0.602763366699219	cue_valid	1
501.140291929245	0.579853248596191	cue_valid	1
526.082926988602	0.676139545440674	cue_valid	1
535.853237628937	0.657555294036865	cue_valid	1
538.821010828018	0.631395292282104	cue_valid	1
549.558348894119	0.5786840438842771	cue_valid	1
553.926644325256	1.24047727584839	cue_valid	1
581.336865663528	0.622909259796143	cue_valid	1
19.9941956996918	0.621460628509521	cue_invalid	1
24.4792015552521	0.5155910968780519	cue_invalid	1
51.6059846878052	0.583680582046509	cue_invalid	1
59.1421275138855	0.39038009643554705	cue_invalid	0
62.1099021434784	0.5879003524780271	cue_invalid	1
86.8858079910278	0.6755418300628659	cue_invalid	1
90.7539169788361	0.622844171524048	cue_invalid	1
104.75913977623	0.6277503490448	cue_invalid	1
112.495357990265	0.644272994995117	cue_invalid	1
122.365705490112	0.591213178634644	cue_invalid	1
125.633591413498	0.6313657283782961	cue_invalid	1
129.101550579071	0.6021081924438481	cue_invalid	1
132.169362783432	0.645694208145142	cue_invalid	1
154.944521665573	0.686163139343262	cue_invalid	1
182.588163614273	0.6954831600189211	cue_invalid	1
185.956086874008	0.5946859836578371	cue_invalid	1
215.567128896713	0.669835996627808	cue_invalid	1
226.504539966583	0.64673228263855	cue_invalid	1
239.709465026855	0.5951776027679441	cue_invalid	1
243.577574968338	0.5912017345428471	cue_invalid	1
282.158628940582	0.613187265396118	cue_invalid	1
307.101264953613	0.796355199813843	cue_invalid	1
325.808240652084	0.640805912017822	cue_invalid	1
332.577430486679	0.7023050308227541	cue_invalid	1
338.246212720871	0.582809162139893	cue_invalid	1
341.414059877396	0.5685939311981201	cue_invalid	1
349.550428390503	0.690235090255737	cue_invalid	1
353.518574714661	0.641813230514526	cue_invalid	1
364.822788953781	0.56091685295105	cue_invalid	1
413.140808582306	0.685092401504517	cue_invalid	1
420.076728820801	0.601047945022583	cue_invalid	1
424.144912719727	0.7313620567321779	cue_invalid	1
434.982287168503	0.666575860977173	cue_invalid	1
438.150134563446	0.628724050521851	cue_invalid	1
445.619586229324	0.601316165924072	cue_invalid	1
448.887473344803	0.724522066116333	cue_invalid	1
465.393628120422	0.617118072509766	cue_invalid	1
469.061662912369	0.639260721206665	cue_invalid	1
472.329547643661	0.695902299880981	cue_invalid	1
477.298068761826	1.021833372116089	cue_invalid	1
490.23622584343	0.592592191696167	cue_invalid	1
493.704185962677	0.718641233444214	cue_invalid	1
504.408176422119	0.676864337921143	cue_invalid	1
507.876137495041	0.635606956481934	cue_invalid	1
511.84428358078	0.679527235031128	cue_invalid	1
516.212579250336	0.586211156845093	cue_invalid	1
545.290090322495	0.633151006698608	cue_invalid	1
561.296057939529	0.7560119152069089	cue_invalid	1
565.064130544662		cue_invalid	0
569.232351779938	0.696102809906006	cue_invalid	1
573.900758981705	0.597591114044189	cue_invalid	1
577.268683195114	0.566096496582031	cue_invalid	1
588.806317806244	0.5280699253082279	cue_invalid	1
596.275769472122	0.608948659896851	cue_invalid	1
599.343580961227	0.610645961761475	cue_invalid	1
