onset	duration	trial_type	pmod_accuracy	image_fname
7.942829847335815	1.01705002784729	dummy		obj027blimp.png
9.976929903030396	1.01705002784729	dummy		obj064clock.png
12.011019945144653	1.01705002784729	dummy		obj093egg.png
14.045120000839233	1.0170400142669678	study		obj310tractor.png
16.07921004295349	1.0337200164794922	study		obj225pizza.png
18.129979848861694	1.0337200164794922	study		obj313trophy.png
20.180739879608154	1.01705002784729	study		obj124grapes.png
22.214839935302734	1.01705002784729	study		obj128hamburger.png
24.248929977416992	1.0337200164794922	study		obj090drum.png
26.299700021743774	1.01705002784729	study		obj260scissors.png
28.333799839019775	1.0337200164794922	study		obj117ghost.png
30.384559869766235	1.01705002784729	study		obj024bicycle.png
32.43532991409302	1.01705002784729	study		obj005ant.png
34.469419956207275	1.01705002784729	study		obj059chicken.png
36.52019000053406	1.01705002784729	study		obj040butterfly.png
38.57096004486084	1.017049789428711	study		obj218pig.png
40.60504984855652	1.01705002784729	study		obj142hook.png
42.6391499042511	1.01705002784729	study		obj280sofa.png
44.673239946365356	1.01705002784729	study		obj120glasses.png
46.70734000205994	1.0170400142669678	study		obj068cork.png
48.741430044174194	1.017049789428711	study		obj071cowboy.png
50.77551984786987	1.01705002784729	study		obj298tennisracket.png
52.80961990356445	1.01705002784729	study		obj069corn.png
54.84370994567871	1.01705002784729	dummy		obj173lock.png
56.87781000137329	1.01705002784729	dummy		obj227plug.png
58.91190004348755	1.017049789428711	dummy		obj314truck.png
308.2385199069977	1.01705002784729	dummy		obj007arrow.png
310.27260994911194	1.01705002784729	dummy		obj162lawnmower.png
312.3067100048065	1.01705002784729	dummy		obj176man.png
314.3408000469208	1.017049789428711	study		obj270skeleton.png
316.3748998641968	1.0170400142669678	study		obj060chimney.png
318.40898990631104	1.01705002784729	study		obj170lipstick.png
320.4430799484253	1.01705002784729	study		obj004anchor.png
322.4771800041199	1.01705002784729	study		obj221pinecone.png
324.51127004623413	1.017049789428711	study		obj183mirror.png
326.54536986351013	1.0170400142669678	study		obj031book.png
328.5794599056244	1.01705002784729	study		obj138helmet.png
330.61355996131897	1.0170400142669678	study		obj134hat.png
332.6476500034332	1.01705002784729	study		obj101fence.png
334.6817500591278	1.0170397758483887	study		obj264shark.png
336.7158398628235	1.01705002784729	study		obj045camel.png
338.74992990493774	1.01705002784729	study		obj180medal.png
340.7840299606323	1.01705002784729	study		obj289submarine.png
342.8348000049591	1.0170400142669678	study		obj232purse.png
344.86889004707336	1.017049789428711	study		obj054chain.png
346.91965985298157	1.0170400142669678	study		obj139highchair.png
348.970419883728	1.01705002784729	study		obj214pencil.png
351.0045199394226	1.01705002784729	study		obj179match.png
353.03860998153687	1.01705002784729	study		obj343witch.png
355.07271003723145	1.017049789428711	dummy		obj216penguin.png
357.1067998409271	1.01705002784729	dummy		obj309top.png
359.1408998966217	1.01705002784729	dummy		obj345wrench.png
188.72713994979858	1.1445600986480713	test	1	obj124grapes.png
191.56152987480164	0.8422601222991943	test	1	obj273sled.png
194.37925004959106	1.0803699493408203	test	1	obj150jar.png
197.08026003837585	0.831669807434082	test	1	obj106flashlight.png
199.74793004989624	1.0572400093078613	test	1	obj079desk.png
202.5823199748993	1.3777399063110352	test	1	obj281spaghetti.png
205.56676983833313	0.5994000434875488	test	1	obj142hook.png
208.38449001312256	1.038409948348999	test	1	obj114frog.png
211.21888995170593	0.925990104675293	test	1	obj174magnet.png
214.23668003082275	1.5956299304962158	test	1	obj301thimble.png
217.25447988510132	0.6494400501251221	test	1	obj090drum.png
219.92213988304138	0.6928501129150391	test	1	obj298tennisracket.png
222.4730999469757	0.6232900619506836	test	1	obj313trophy.png
225.25746989250183	0.6873800754547119	test	1	obj103fire.png
228.05851984024048	0.7805600166320801	test	1	obj231pumpkin.png
230.99294996261597	1.0561299324035645	test	0	obj071cowboy.png
233.67728996276855	0.9535200595855713	test	0	obj016banjo.png
236.59504985809326	0.6488101482391357	test	1	obj059chicken.png
239.1960198879242	0.8514201641082764	test	1	obj094elephant.png
242.04709005355835	0.602180004119873	test	1	obj225pizza.png
244.73142004013062	0.6945397853851318	test	1	obj128hamburger.png
247.3490698337555	0.9318501949310303	test	1	obj324vase.png
249.98338985443115	0.8502001762390137	test	1	obj005ant.png
252.55101990699768	0.7279400825500488	test	1	obj024bicycle.png
255.1353199481964	0.907710075378418	test	1	obj069corn.png
257.75295996665955	0.7140700817108154	test	1	obj254safe.png
260.3372600078583	0.95100998878479	test	1	obj058chest.png
263.00493001937866	0.6154999732971191	test	1	obj218pig.png
265.7892999649048	0.8540399074554443	test	1	obj062cigarette.png
268.3235800266266	0.8593599796295166	test	1	obj177map.png
271.17464995384216	1.1880500316619873	test	1	obj310tractor.png
274.1591000556946	0.6442399024963379	test	1	obj280sofa.png
276.99349999427795	0.8058700561523438	test	1	obj257saw.png
280.0279598236084	1.4263601303100586	test	1	obj117ghost.png
282.61225986480713	0.6286799907684326	test	1	obj040butterfly.png
285.5133500099182	0.7115800380706787	test	1	obj120glasses.png
288.1810100078583	0.5606698989868164	test	1	obj260scissors.png
290.9153699874878	0.7959699630737305	test	1	obj182microscope.png
293.5830399990082	0.6468498706817627	test	1	obj318tweezers.png
296.43409991264343	1.0095200538635254	test	0	obj068cork.png
489.20622992515564	2.0	test	0	obj004anchor.png
492.00726985931396	1.0990700721740723	test	1	obj207pants.png
494.8083200454712	0.9085400104522705	test	1	obj052carrot.png
497.40929985046387	0.6307799816131592	test	1	obj264shark.png
499.9769198894501	0.6304399967193604	test	1	obj180medal.png
502.9947199821472	0.6406300067901611	test	1	obj179match.png
505.695729970932	0.8777198791503906	test	1	obj221pinecone.png
508.580139875412	0.888200044631958	test	1	obj203paintbrush.png
511.1811099052429	0.6955101490020752	test	1	obj250rope.png
513.765419960022	0.8151700496673584	test	1	obj146igloo.png
516.6664998531342	0.8388299942016602	test	1	obj060chimney.png
519.5509099960327	1.1337199211120605	test	1	obj195net.png
522.3686299324036	1.3916499614715576	test	1	obj108flute.png
525.1196599006653	0.7441799640655518	test	1	obj032boot.png
527.9874000549316	0.6219398975372314	test	1	obj134hat.png
530.5883798599243	1.4210200309753418	test	1	obj343witch.png
533.372750043869	0.7945499420166016	test	1	obj152jumprope.png
536.3905498981476	0.7267501354217529	test	1	obj102finger.png
539.3916699886322	0.6640498638153076	test	1	obj226plate.png
542.1593699455261	0.7846300601959229	test	1	obj232purse.png
544.8437099456787	0.809730052947998	test	1	obj289submarine.png
547.7948100566864	0.6089298725128174	test	1	obj031book.png
550.3457698822021	0.6087300777435303	test	1	obj138helmet.png
553.2301800251007	1.1952300071716309	test	0	obj054chain.png
555.9145200252533	0.6917300224304199	test	1	obj008ashtray.png
558.4821398258209	0.6601700782775879	test	1	obj183mirror.png
561.1664798259735	0.662020206451416	test	1	obj212pear.png
563.7507798671722	0.7566101551055908	test	1	obj101fence.png
566.6185200214386	0.8082499504089355	test	1	obj081dinosaur.png
569.1861498355865	0.7732000350952148	test	1	obj061church.png
572.0872399806976	0.8200600147247314	test	1	obj333whale.png
574.6882100105286	0.8163800239562988	test	1	obj205pan.png
577.4058899879456	0.8785300254821777	test	1	obj210peacock.png
580.1735899448395	0.9849200248718262	test	1	obj086door.png
582.8245899677277	0.6350500583648682	test	1	obj045camel.png
585.6423099040985	0.634890079498291	test	1	obj214pencil.png
588.3599898815155	0.9083499908447266	test	1	obj170lipstick.png
591.2444000244141	1.0229198932647705	test	0	obj021bed.png
594.0454499721527	0.7768299579620361	test	1	obj270skeleton.png
596.6464200019836	0.6851198673248291	test	0	obj139highchair.png
71.06644988059998	25.0	math		
99.12695002555847	25.0	math		
127.18744993209839	25.0	math		
155.2479498386383	25.0	math		
371.3287899494171	25.0	math		
399.40595984458923	25.0	math		
427.46645998954773	25.0	math		
455.52695989608765	25.0	math		
