onset	duration	trial_type	pmod_accuracy
12.9615106582642	0.2	cue_valid	1
22.4317097663879	0.2	cue_valid	1
35.1697940826416	0.2	cue_valid	1
58.9786732196808	0.2	cue_valid	1
72.1169054508209	0.2	cue_valid	1
106.829850912094	0.2	cue_valid	1
113.298930168152	0.2	cue_valid	1
116.466777801514	0.2	cue_valid	1
123.936230659485	0.2	cue_valid	1
143.276775836945	0.2	cue_valid	1
153.91407585144	0.2	cue_valid	1
165.151599884033	0.2	cue_valid	1
176.289087295532	0.2	cue_valid	1
180.157195329666	0.2	cue_valid	1
183.225006818771	0.2	cue_valid	1
189.093862056732	0.2	cue_valid	1
203.232467889786	0.2	cue_valid	1
206.600390672684	0.2	cue_valid	1
240.946532011032	0.2	cue_valid	1
250.75018787384	0.2	cue_valid	1
261.487526416779	0.2	cue_valid	1
276.393084049225	0.2	cue_valid	1
291.865521669388	0.2	cue_valid	1
298.234563350677	0.2	cue_valid	1
308.171602249146	0.2	cue_valid	1
315.607708215714	0.2	cue_valid	1
323.077160596848	0.2	cue_valid	1
333.714461088181	0.2	cue_valid	1
336.682234287262	0.2	cue_valid	1
341.650754213333	0.2	cue_valid	1
351.120951652527	0.2	cue_valid	1
358.1902551651	0.2	cue_valid	1
374.896485328674	0.2	cue_valid	1
382.365937232971	0.2	cue_valid	1
386.334083557129	0.2	cue_valid	1
393.370040655136	0.2	cue_valid	1
396.637926101685	0.2	cue_valid	1
400.205924272537	0.2	cue_valid	1
404.174069881439	0.2	cue_valid	1
410.943260908127	0.2	cue_valid	1
417.378994464874	0.2	cue_valid	1
420.546842813492	0.2	cue_valid	1
452.592126131058	0.2	cue_valid	1
462.829276561737	0.2	cue_valid	1
502.277322053909	0.2	cue_valid	1
506.445543527603	0.2	cue_valid	1
522.318128585815	0.2	cue_valid	1
531.788327217102	0.2	cue_valid	1
545.293362855911	0.2	cue_valid	1
549.361547470093	0.2	cue_valid	1
568.835475921631	0.2	cue_valid	1
576.304928541183	0.2	cue_valid	1
581.773634672165	0.2	cue_valid	1
596.779230356216	0.2	cue_valid	1
6.25901174545288	0.2	cue_invalid	1
31.8018708229065	0.2	cue_invalid	1
41.0386490821838	0.2	cue_invalid	1
44.2064964771271	0.2	cue_invalid	1
47.8745319843292	0.2	cue_invalid	1
52.0427527427673	0.2	cue_invalid	1
55.2106008529663	0.2	cue_invalid	1
66.0479748249054	0.2	cue_invalid	1
75.9850142002106	0.2	cue_invalid	1
80.1532351970673	0.2	cue_invalid	1
87.6226875782013	0.2	cue_invalid	1
95.0921401977539	0.2	cue_invalid	1
98.9602494239807	0.2	cue_invalid	1
127.004040956497	0.2	cue_invalid	1
129.971813678741	0.2	cue_invalid	1
133.339736223221	0.2	cue_invalid	1
136.507585048676	0.2	cue_invalid	1
149.94593000412	0.2	cue_invalid	1
160.783304214478	0.2	cue_invalid	1
172.621052980423	0.2	cue_invalid	1
196.96346282959	0.2	cue_invalid	1
209.768238306046	0.2	cue_invalid	1
214.13653421402	0.2	cue_invalid	1
220.205463886261	0.2	cue_invalid	1
223.373312473297	0.2	cue_invalid	1
226.441122531891	0.2	cue_invalid	1
230.909456014633	0.2	cue_invalid	1
237.178460359573	0.2	cue_invalid	1
244.114379882812	0.2	cue_invalid	1
247.182190895081	0.2	cue_invalid	1
254.018074035645	0.2	cue_invalid	1
265.855820894241	0.2	cue_invalid	1
273.225236177444	0.2	cue_invalid	1
280.161157131195	0.2	cue_invalid	1
284.729526996613	0.2	cue_invalid	1
288.497597694397	0.2	cue_invalid	1
301.90259718895	0.2	cue_invalid	1
311.539524555206	0.2	cue_invalid	1
329.24612903595	0.2	cue_invalid	1
363.45888710022	0.2	cue_invalid	1
370.928339481354	0.2	cue_invalid	1
390.202193021774	0.2	cue_invalid	1
414.211147069931	0.2	cue_invalid	1
423.914764642715	0.2	cue_invalid	1
431.384217262268	0.2	cue_invalid	1
438.853670358658	0.2	cue_invalid	1
443.722152233124	0.2	cue_invalid	1
458.861130952835	0.2	cue_invalid	1
466.297237157822	0.2	cue_invalid	1
470.065308570862	0.2	cue_invalid	1
473.233156919479	0.2	cue_invalid	0
477.301339626312	0.2	cue_invalid	1
484.170569181442	0.2	cue_invalid	1
491.640020608902	0.2	cue_invalid	1
499.10947394371	0.2	cue_invalid	1
510.313652276993	0.2	cue_invalid	1
513.981686353683	0.2	cue_invalid	1
517.249572515488	0.2	cue_invalid	1
537.657181978226	0.2	cue_invalid	1
541.525290966034	0.2	cue_invalid	1
552.729470252991	0.2	cue_invalid	1
559.598697900772	0.2	cue_invalid	1
563.766919136047	0.2	cue_invalid	1
586.241966485977	0.2	cue_invalid	1
590.31015086174	0.2	cue_invalid	1
599.747004032135	0.2	cue_invalid	1
6.47575998306274	0.652645111083984	target_response	1
13.1615860462189	0.573613882064819	target_response	1
22.6317842006683	0.608045816421509	target_response	1
32.0019464492798	0.607746601104736	target_response	1
35.3698675632477	0.567348480224609	target_response	1
41.2387225627899	0.791489362716675	target_response	1
44.4065718650818	1.24917411804199	target_response	1
48.074606180191	0.545361757278442	target_response	1
52.2428269386292	0.409053087234497	target_response	1
55.4106750488281	0.648072957992554	target_response	1
59.178747177124	0.355811834335327	target_response	1
66.2480502128601	0.328742742538452	target_response	1
72.3169803619385	0.357423543930054	target_response	1
76.1850891113281	0.408589839935303	target_response	1
80.3533101081848	0.343186855316162	target_response	1
87.8227634429932	0.466168642044067	target_response	1
95.2922141551971	0.495293855667114	target_response	1
99.1603240966797	0.466738939285278	target_response	1
107.029925584793	0.373200416564941	target_response	1
113.499004364014	0.383033752441406	target_response	1
116.666851758957	0.346538305282593	target_response	1
124.136305093765	0.445156812667847	target_response	1
127.204115390778	0.617541551589966	target_response	1
130.171889543533	0.737962484359741	target_response	1
133.539811134338	0.816662788391113	target_response	1
136.707659006119	0.388946056365967	target_response	1
143.476849555969	0.283620357513428	target_response	1
150.146005392075	0.402059555053711	target_response	1
154.114151239395	0.430883884429932	target_response	1
160.983378648758	0.464781284332275	target_response	1
165.351675271988	0.34218168258667	target_response	1
172.82112622261	0.423461675643921	target_response	1
176.489160776138	0.345439195632935	target_response	1
180.357271432877	0.334896564483643	target_response	1
183.425082206726	0.314929723739624	target_response	1
189.293936252594	0.348968744277954	target_response	1
197.163537979126	0.398926019668579	target_response	1
203.432542800903	0.315964221954346	target_response	1
206.800464868546	0.324066162109375	target_response	1
209.968312978745	0.44056510925293	target_response	1
214.336609125137	0.394357919692993	target_response	1
220.40553855896	0.394517421722412	target_response	1
223.573386669159	0.724863290786743	target_response	1
226.641198158264	0.404727935791016	target_response	1
231.109530448914	0.392409563064575	target_response	1
237.378535509109	0.405550479888916	target_response	1
241.146605968475	0.471387147903442	target_response	1
244.314455270767	0.378405809402466	target_response	1
247.382266044617	0.375230073928833	target_response	1
250.950263023376	0.42716908454895	target_response	1
254.218148469925	0.395117521286011	target_response	1
261.687600135803	0.439218759536743	target_response	1
266.055896043777	0.505429029464722	target_response	1
273.425310611725	0.426860332489014	target_response	1
276.593158960342	0.466717004776001	target_response	1
280.36123085022	0.386709213256836	target_response	1
284.929600715637	0.36283540725708	target_response	1
288.697673082352	0.385731935501099	target_response	1
292.065596103668	0.320253849029541	target_response	1
298.434638738632	0.450839281082153	target_response	1
302.102672100067	0.410727024078369	target_response	1
308.371676683426	0.325837373733521	target_response	1
311.739599466324	0.361886501312256	target_response	1
315.807782649994	0.306673288345337	target_response	1
323.277234792709	0.189785242080688	target_response	1
329.446203947067	0.379925966262817	target_response	1
333.91453576088	0.563068151473999	target_response	1
336.88230919838	0.303375720977783	target_response	1
341.850829124451	0.397815942764282	target_response	1
351.321027040482	0.375982999801636	target_response	1
358.390330314636	0.503096580505371	target_response	1
363.658961057663	0.492876052856445	target_response	1
371.128413438797	0.462578535079956	target_response	1
375.09656047821	0.386894464492798	target_response	1
382.566012144089	0.309777975082397	target_response	1
386.534159421921	0.924722671508789	target_response	1
390.40226817131	0.420177936553955	target_response	1
393.570116043091	0.342494010925293	target_response	1
396.838001012802	0.311665058135986	target_response	1
400.405997991562	0.400506019592285	target_response	1
404.374145269394	0.450923681259155	target_response	1
411.143336057663	0.339150905609131	target_response	1
414.411220312119	0.390216588973999	target_response	1
417.579069375992	0.517412662506104	target_response	1
420.746917009354	0.951555013656616	target_response	1
424.114839792252	0.552613258361816	target_response	1
431.58429145813	0.386297464370728	target_response	1
439.053744077682	0.412029981613159	target_response	1
443.92222571373	0.345053195953369	target_response	1
452.792201280594	0.440060615539551	target_response	1
459.061205625534	0.314693450927734	target_response	1
463.029351949692	0.510509014129639	target_response	1
466.497311592102	0.386127471923828	target_response	1
470.265383243561	0.479591846466064	target_response	1
473.433232307434	0.186240673065186	target_response	0
477.50141620636	0.409781694412231	target_response	1
484.37064409256	0.440438985824585	target_response	1
491.840095996857	0.426986932754517	target_response	1
499.309547901154	0.354304075241089	target_response	1
502.477396249771	1.18791580200195	target_response	1
506.645617723465	0.417847394943237	target_response	1
510.513726711273	0.428757190704346	target_response	1
514.181761264801	0.581777811050415	target_response	1
517.449646234512	0.318403720855713	target_response	1
522.518203735352	0.451224327087402	target_response	1
531.98840212822	0.39506196975708	target_response	1
537.857257127762	0.447430849075317	target_response	1
541.72536611557	0.672449827194214	target_response	1
545.493437051773	0.512573957443237	target_response	1
549.561622142792	0.433414936065674	target_response	1
552.929543972015	0.357304096221924	target_response	1
559.798773050308	0.316719055175781	target_response	1
563.966993808746	0.413218259811401	target_response	1
569.03555059433	0.517365455627441	target_response	1
576.505002498627	0.312811613082886	target_response	1
581.973709583282	0.283512353897095	target_response	1
586.44204211235	0.310721874237061	target_response	1
590.510226249695	0.305376768112183	target_response	1
596.97930431366	0.33044958114624	target_response	1
599.947078227997	0.536395788192749	target_response	1
