onset	duration	trial_type	pmod_accuracy
12.9615106582642	0.7736138820648191	cue_valid	1
22.4317097663879	0.808045816421509	cue_valid	1
35.1697940826416	0.7673484802246091	cue_valid	1
58.9786732196808	0.555811834335327	cue_valid	1
72.1169054508209	0.557423543930054	cue_valid	1
106.829850912094	0.573200416564941	cue_valid	1
113.298930168152	0.583033752441406	cue_valid	1
116.466777801514	0.546538305282593	cue_valid	1
123.936230659485	0.6451568126678471	cue_valid	1
143.276775836945	0.483620357513428	cue_valid	1
153.91407585144	0.630883884429932	cue_valid	1
165.151599884033	0.54218168258667	cue_valid	1
176.289087295532	0.545439195632935	cue_valid	1
180.157195329666	0.534896564483643	cue_valid	1
183.225006818771	0.514929723739624	cue_valid	1
189.093862056732	0.5489687442779541	cue_valid	1
203.232467889786	0.515964221954346	cue_valid	1
206.600390672684	0.524066162109375	cue_valid	1
240.946532011032	0.671387147903442	cue_valid	1
250.75018787384	0.6271690845489499	cue_valid	1
261.487526416779	0.639218759536743	cue_valid	1
276.393084049225	0.6667170047760009	cue_valid	1
291.865521669388	0.520253849029541	cue_valid	1
298.234563350677	0.650839281082153	cue_valid	1
308.171602249146	0.525837373733521	cue_valid	1
315.607708215714	0.5066732883453371	cue_valid	1
323.077160596848	0.389785242080688	cue_valid	1
333.714461088181	0.763068151473999	cue_valid	1
336.682234287262	0.5033757209777829	cue_valid	1
341.650754213333	0.597815942764282	cue_valid	1
351.120951652527	0.575982999801636	cue_valid	1
358.1902551651	0.703096580505371	cue_valid	1
374.896485328674	0.586894464492798	cue_valid	1
382.365937232971	0.509777975082397	cue_valid	1
386.334083557129	1.124722671508789	cue_valid	1
393.370040655136	0.542494010925293	cue_valid	1
396.637926101685	0.5116650581359861	cue_valid	1
400.205924272537	0.600506019592285	cue_valid	1
404.174069881439	0.650923681259155	cue_valid	1
410.943260908127	0.539150905609131	cue_valid	1
417.378994464874	0.7174126625061039	cue_valid	1
420.546842813492	1.151555013656616	cue_valid	1
452.592126131058	0.640060615539551	cue_valid	1
462.829276561737	0.7105090141296391	cue_valid	1
502.277322053909	1.38791580200195	cue_valid	1
506.445543527603	0.617847394943237	cue_valid	1
522.318128585815	0.6512243270874021	cue_valid	1
531.788327217102	0.59506196975708	cue_valid	1
545.293362855911	0.712573957443237	cue_valid	1
549.361547470093	0.633414936065674	cue_valid	1
568.835475921631	0.7173654556274409	cue_valid	1
576.304928541183	0.512811613082886	cue_valid	1
581.773634672165	0.483512353897095	cue_valid	1
596.779230356216	0.53044958114624	cue_valid	1
6.25901174545288	0.8526451110839841	cue_invalid	1
31.8018708229065	0.8077466011047361	cue_invalid	1
41.0386490821838	0.991489362716675	cue_invalid	1
44.2064964771271	1.44917411804199	cue_invalid	1
47.8745319843292	0.7453617572784421	cue_invalid	1
52.0427527427673	0.609053087234497	cue_invalid	1
55.2106008529663	0.8480729579925541	cue_invalid	1
66.0479748249054	0.528742742538452	cue_invalid	1
75.9850142002106	0.608589839935303	cue_invalid	1
80.1532351970673	0.5431868553161621	cue_invalid	1
87.6226875782013	0.666168642044067	cue_invalid	1
95.0921401977539	0.695293855667114	cue_invalid	1
98.9602494239807	0.666738939285278	cue_invalid	1
127.004040956497	0.817541551589966	cue_invalid	1
129.971813678741	0.9379624843597409	cue_invalid	1
133.339736223221	1.016662788391113	cue_invalid	1
136.507585048676	0.588946056365967	cue_invalid	1
149.94593000412	0.602059555053711	cue_invalid	1
160.783304214478	0.664781284332275	cue_invalid	1
172.621052980423	0.6234616756439211	cue_invalid	1
196.96346282959	0.5989260196685791	cue_invalid	1
209.768238306046	0.6405651092529301	cue_invalid	1
214.13653421402	0.594357919692993	cue_invalid	1
220.205463886261	0.5945174217224121	cue_invalid	1
223.373312473297	0.9248632907867431	cue_invalid	1
226.441122531891	0.604727935791016	cue_invalid	1
230.909456014633	0.5924095630645749	cue_invalid	1
237.178460359573	0.605550479888916	cue_invalid	1
244.114379882812	0.578405809402466	cue_invalid	1
247.182190895081	0.575230073928833	cue_invalid	1
254.018074035645	0.595117521286011	cue_invalid	1
265.855820894241	0.7054290294647221	cue_invalid	1
273.225236177444	0.6268603324890141	cue_invalid	1
280.161157131195	0.586709213256836	cue_invalid	1
284.729526996613	0.56283540725708	cue_invalid	1
288.497597694397	0.585731935501099	cue_invalid	1
301.90259718895	0.610727024078369	cue_invalid	1
311.539524555206	0.561886501312256	cue_invalid	1
329.24612903595	0.579925966262817	cue_invalid	1
363.45888710022	0.692876052856445	cue_invalid	1
370.928339481354	0.662578535079956	cue_invalid	1
390.202193021774	0.620177936553955	cue_invalid	1
414.211147069931	0.590216588973999	cue_invalid	1
423.914764642715	0.7526132583618159	cue_invalid	1
431.384217262268	0.5862974643707279	cue_invalid	1
438.853670358658	0.612029981613159	cue_invalid	1
443.722152233124	0.545053195953369	cue_invalid	1
458.861130952835	0.514693450927734	cue_invalid	1
466.297237157822	0.5861274719238281	cue_invalid	1
470.065308570862	0.679591846466064	cue_invalid	1
473.233156919479	0.386240673065186	cue_invalid	0
477.301339626312	0.609781694412231	cue_invalid	1
484.170569181442	0.640438985824585	cue_invalid	1
491.640020608902	0.626986932754517	cue_invalid	1
499.10947394371	0.554304075241089	cue_invalid	1
510.313652276993	0.628757190704346	cue_invalid	1
513.981686353683	0.781777811050415	cue_invalid	1
517.249572515488	0.5184037208557131	cue_invalid	1
537.657181978226	0.647430849075317	cue_invalid	1
541.525290966034	0.872449827194214	cue_invalid	1
552.729470252991	0.557304096221924	cue_invalid	1
559.598697900772	0.516719055175781	cue_invalid	1
563.766919136047	0.613218259811401	cue_invalid	1
586.241966485977	0.510721874237061	cue_invalid	1
590.31015086174	0.505376768112183	cue_invalid	1
599.747004032135	0.736395788192749	cue_invalid	1
