src_subject_id,session_id,run_id,param_counterbalance_ver,param_block_num,param_trial_num,param_cond_type_num,param_cond_type_string,param_normative_response,param_ques_type_string,param_image_num,param_image_filename,param_trigger_onset,param_start_biopac,event01_fixation,event01_fixation_dur,event01_blockquestion_onset,event01_block_isi_blacksreen,event01_blockquestion_dur,event02_image_onset,event02_image_dur,event03_response_onset,event03_response_key,event03_response_keyname,event03_RT,event04_shortquestion_onset,param_end_instruct_onset,param_experiment_duration,RAW_e1_fixation,RAW_e1_fixation_biopac,RAW_e1_blockquestion_onset,RAW_e1_blockquestion_onset_biopac,RAW_e1_block_isi_blacksreen,RAW_e2_image_onset,RAW_e2_image_onset_biopac,RAW_e3_response_onset,RAW_e4_shortquestion_onset,RAW_param_end_instruct_onset,accuracy
19,19,1,2,1,1,3,c3_HowFace,1,smiling?,115,F_695.jpg,1621537802.53525,1621537802.54744,0.0423760318756101,0.0334627628326416,0.0923948192596433,2.1098136806488,2.01741886138916,2.25986908912659,1.3338315486908,3.60959600448608,1,left,1.29723787307739,3.59370063781738,604.484452953339,607.244452953339,1621537805.33762,1621537805.34011,1621537805.38764,1621537805.38963,1621537807.40506,1621537807.55512,1621537807.57091,1621537808.90484,1621537808.88895,1621538409.7797,1
19,19,1,2,1,2,3,c3_HowFace,2,smiling?,114,F_412.jpg,1621537802.53525,1621537802.54744,0.0423760318756101,0.0334627628326416,0.0923948192596433,2.1098136806488,0.3,3.91048597335815,0.750278472900391,4.67607592582703,3,right,0.742130994796753,4.66076444625855,604.484452953339,607.244452953339,1621537805.33762,1621537805.34011,1621537805.38764,1621537805.38963,1621537807.40506,1621537809.20573,1621537809.20792,1621537809.97132,1621537809.95601,1621538409.7797,0
19,19,1,2,1,3,3,c3_HowFace,1,smiling?,117,F_593.jpg,1621537802.53525,1621537802.54744,0.0423760318756101,0.0334627628326416,0.0923948192596433,2.1098136806488,0.3,4.97754978179932,0.0166733264923096,4.99684690475464,3,right,0.000394821166992188,4.99422310829163,604.484452953339,607.244452953339,1621537805.33762,1621537805.34011,1621537805.38764,1621537805.38963,1621537807.40506,1621537810.2728,1621537810.27468,1621537810.29209,1621537810.28947,1621538409.7797,0
19,19,1,2,1,4,3,c3_HowFace,1,smiling?,119,F_139.jpg,1621537802.53525,1621537802.54744,0.0423760318756101,0.0334627628326416,0.0923948192596433,2.1098136806488,0.3,5.31100772857666,0.633570194244385,5.94579695701599,1,left,0.621073007583618,5.94457792282105,604.484452953339,607.244452953339,1621537805.33762,1621537805.34011,1621537805.38764,1621537805.38963,1621537807.40506,1621537810.60625,1621537810.60855,1621537811.24104,1621537811.23983,1621538409.7797,1
19,19,1,2,1,5,3,c3_HowFace,2,smiling?,113,F_712.jpg,1621537802.53525,1621537802.54744,0.0423760318756101,0.0334627628326416,0.0923948192596433,2.1098136806488,0.3,6.26136182785034,0.850317001342773,7.11548279762268,3,right,0.829252958297729,7.11167882919312,604.484452953339,607.244452953339,1621537805.33762,1621537805.34011,1621537805.38764,1621537805.38963,1621537807.40506,1621537811.55661,1621537811.5597,1621537812.41073,1621537812.40693,1621538409.7797,0
19,19,1,2,1,6,3,c3_HowFace,1,smiling?,118,F_759.jpg,1621537802.53525,1621537802.54744,0.0423760318756101,0.0334627628326416,0.0923948192596433,2.1098136806488,0.3,7.42846368789673,0.566878318786621,8.00815891265869,1,left,0.557106971740723,7.99534200668335,604.484452953339,607.244452953339,1621537805.33762,1621537805.34011,1621537805.38764,1621537805.38963,1621537807.40506,1621537812.72371,1621537812.72559,1621537813.30341,1621537813.29059,1621538409.7797,1
19,19,1,2,1,7,3,c3_HowFace,2,smiling?,120,F_758.jpg,1621537802.53525,1621537802.54744,0.0423760318756101,0.0334627628326416,0.0923948192596433,2.1098136806488,0.3,8.31212710380554,0.683587551116943,8.99728583335876,3,right,0.663564920425415,8.99571465492249,604.484452953339,607.244452953339,1621537805.33762,1621537805.34011,1621537805.38764,1621537805.38963,1621537807.40506,1621537813.60737,1621537813.6091,1621537814.29253,1621537814.29096,1621538409.7797,0
19,19,1,2,1,8,3,c3_HowFace,1,smiling?,116,F_083.jpg,1621537802.53525,1621537802.54744,0.0423760318756101,0.0334627628326416,0.0923948192596433,2.1098136806488,0.3,9.31250022888184,0.616896629333496,9.9311609172821,1,left,0.597615003585815,9.92939685821533,604.484452953339,607.244452953339,1621537805.33762,1621537805.34011,1621537805.38764,1621537805.38963,1621537807.40506,1621537814.60775,1621537814.60918,1621537815.22641,1621537815.22464,1621538409.7797,1
19,19,1,2,2,1,1,c1_WhyFace,1,admiring?,4,F_779.jpg,1621537802.53525,1621537802.54744,10.1127986812592,7.72831630706787,17.8490178489685,19.9498004817963,2.10078263282776,20.0998556518555,0.633570671081543,20.7424969577789,1,left,0.610481977462769,20.733426322937,604.484452953339,607.244452953339,1621537815.40805,1621537815.41073,1621537823.14426,1621537823.15425,1621537825.24505,1621537825.3951,1621537825.40412,1621537826.03774,1621537826.02867,1621538409.7797,1
19,19,1,2,2,2,1,c1_WhyFace,2,admiring?,3,F_110.jpg,1621537802.53525,1621537802.54744,10.1127986812592,7.72831630706787,17.8490178489685,19.9498004817963,0.3,21.0502114200592,0.583550691604614,21.6421499156952,3,right,0.569652795791626,21.6337621116638,604.484452953339,607.244452953339,1621537815.40805,1621537815.41073,1621537823.14426,1621537823.15425,1621537825.24505,1621537826.34546,1621537826.34728,1621537826.9374,1621537826.92901,1621538409.7797,0
19,19,1,2,2,3,1,c1_WhyFace,1,admiring?,8,F_590.jpg,1621537802.53525,1621537802.54744,10.1127986812592,7.72831630706787,17.8490178489685,19.9498004817963,0.3,21.9505457782745,0.700261116027832,22.6518649959564,1,left,0.680777072906494,22.6508068943024,604.484452953339,607.244452953339,1621537815.40805,1621537815.41073,1621537823.14426,1621537823.15425,1621537825.24505,1621537827.24579,1621537827.24762,1621537827.94711,1621537827.94605,1621538409.7797,1
19,19,1,2,2,4,1,c1_WhyFace,1,admiring?,7,F_648.jpg,1621537802.53525,1621537802.54744,10.1127986812592,7.72831630706787,17.8490178489685,19.9498004817963,0.3,22.9675919914246,0.666916131973267,23.6417488956451,1,left,0.658783912658691,23.6345081233978,604.484452953339,607.244452953339,1621537815.40805,1621537815.41073,1621537823.14426,1621537823.15425,1621537825.24505,1621537828.26284,1621537828.26439,1621537828.937,1621537828.92976,1621538409.7797,1
19,19,1,2,2,5,1,c1_WhyFace,1,admiring?,5,F_759.jpg,1621537802.53525,1621537802.54744,10.1127986812592,7.72831630706787,17.8490178489685,19.9498004817963,0.3,23.95129322052,0.700262546539307,24.6580788993835,1,left,0.684551954269409,24.6515557670593,604.484452953339,607.244452953339,1621537815.40805,1621537815.41073,1621537823.14426,1621537823.15425,1621537825.24505,1621537829.24654,1621537829.24859,1621537829.95333,1621537829.9468,1621538409.7797,1
19,19,1,2,2,6,1,c1_WhyFace,2,admiring?,2,F_129.jpg,1621537802.53525,1621537802.54744,10.1127986812592,7.72831630706787,17.8490178489685,19.9498004817963,0.3,24.9683391952515,0.700261116027832,25.6753859424591,3,right,0.683584928512573,25.6686003112793,604.484452953339,607.244452953339,1621537815.40805,1621537815.41073,1621537823.14426,1621537823.15425,1621537825.24505,1621537830.26359,1621537830.26533,1621537830.97063,1621537830.96385,1621538409.7797,0
19,19,1,2,2,7,1,c1_WhyFace,1,admiring?,1,F_593.jpg,1621537802.53525,1621537802.54744,10.1127986812592,7.72831630706787,17.8490178489685,19.9498004817963,0.3,25.9853846931458,0.683587312698364,26.6707489395142,1,left,0.66429591178894,26.6689720058441,604.484452953339,607.244452953339,1621537815.40805,1621537815.41073,1621537823.14426,1621537823.15425,1621537825.24505,1621537831.28063,1621537831.28221,1621537831.966,1621537831.96422,1621538409.7797,1
19,19,1,2,2,8,1,c1_WhyFace,2,admiring?,6,F_692.jpg,1621537802.53525,1621537802.54744,10.1127986812592,7.72831630706787,17.8490178489685,19.9498004817963,0.3,26.9857568645477,0.883665084838867,27.8754098320007,3,right,0.866375923156738,27.8694219493866,604.484452953339,607.244452953339,1621537815.40805,1621537815.41073,1621537823.14426,1621537823.15425,1621537825.24505,1621537832.281,1621537832.28306,1621537833.17066,1621537833.16467,1621538409.7797,0
19,19,1,2,3,1,2,c2_WhyHand,1,healthy?,23,H_364.jpg,1621537802.53525,1621537802.54744,27.9694573783874,8.92562961578369,36.9061238670349,39.0069069766998,2.10078310966492,39.1569628620148,1.41719532012939,40.5755219364166,1,left,1.40770792961121,40.5741581821442,604.484452953339,607.244452953339,1621537833.2647,1621537833.27086,1621537842.20137,1621537842.20419,1621537844.30215,1621537844.45221,1621537844.45428,1621537845.87077,1621537845.86941,1621538409.7797,1
19,19,1,2,3,2,2,c2_WhyHand,2,healthy?,20,H_007.jpg,1621537802.53525,1621537802.54744,27.9694573783874,8.92562961578369,36.9061238670349,39.0069069766998,0.3,40.8909425640106,1.03371930122375,41.9264340305328,3,right,1.01559996604919,41.9246618652344,604.484452953339,607.244452953339,1621537833.2647,1621537833.27086,1621537842.20137,1621537842.20419,1621537844.30215,1621537846.18619,1621537846.18793,1621537847.22168,1621537847.21991,1621538409.7797,0
19,19,1,2,3,3,2,c2_WhyHand,1,healthy?,19,H_167.jpg,1621537802.53525,1621537802.54744,27.9694573783874,8.92562961578369,36.9061238670349,39.0069069766998,0.3,42.2414462471008,0.866990804672241,43.1100020313263,1,left,0.855813026428223,43.1084370517731,604.484452953339,607.244452953339,1621537833.2647,1621537833.27086,1621537842.20137,1621537842.20419,1621537844.30215,1621537847.53669,1621537847.53858,1621537848.40525,1621537848.40368,1621538409.7797,1
19,19,1,2,3,4,2,c2_WhyHand,2,healthy?,22,H_130.jpg,1621537802.53525,1621537802.54744,27.9694573783874,8.92562961578369,36.9061238670349,39.0069069766998,0.3,43.4252211952209,1.21712017059326,44.6433868312836,3,right,1.19865894317627,44.6423413658142,604.484452953339,607.244452953339,1621537833.2647,1621537833.27086,1621537842.20137,1621537842.20419,1621537844.30215,1621537848.72047,1621537848.72232,1621537849.93863,1621537849.93759,1621538409.7797,0
19,19,1,2,3,5,2,c2_WhyHand,1,healthy?,18,H_438.jpg,1621537802.53525,1621537802.54744,27.9694573783874,8.92562961578369,36.9061238670349,39.0069069766998,0.3,44.9591269397736,1.00037288665771,45.961127986908,1,left,0.982283115386963,45.9594998264313,604.484452953339,607.244452953339,1621537833.2647,1621537833.27086,1621537842.20137,1621537842.20419,1621537844.30215,1621537850.25437,1621537850.25597,1621537851.25638,1621537851.25475,1621538409.7797,1
19,19,1,2,3,6,2,c2_WhyHand,2,healthy?,24,H_019.jpg,1621537802.53525,1621537802.54744,27.9694573783874,8.92562961578369,36.9061238670349,39.0069069766998,0.3,46.2762844467163,1.70063447952271,47.9778308773041,3,right,1.69002103805542,47.976918926239,604.484452953339,607.244452953339,1621537833.2647,1621537833.27086,1621537842.20137,1621537842.20419,1621537844.30215,1621537851.57153,1621537851.57342,1621537853.27308,1621537853.27217,1621538409.7797,0
19,19,1,2,3,7,2,c2_WhyHand,1,healthy?,17,H_362.jpg,1621537802.53525,1621537802.54744,27.9694573783874,8.92562961578369,36.9061238670349,39.0069069766998,0.3,48.2937042617798,1.41719436645508,49.7250919246674,1,left,1.40608620643616,49.7108986282349,604.484452953339,607.244452953339,1621537833.2647,1621537833.27086,1621537842.20137,1621537842.20419,1621537844.30215,1621537853.58895,1621537853.59086,1621537855.02034,1621537855.00615,1621538409.7797,1
19,19,1,2,3,8,2,c2_WhyHand,1,healthy?,21,H_627.jpg,1621537802.53525,1621537802.54744,27.9694573783874,8.92562961578369,36.9061238670349,39.0069069766998,0.3,50.0276839637756,0.950354099273682,50.9914379024506,1,left,0.939761877059937,50.9780380630493,604.484452953339,607.244452953339,1621537833.2647,1621537833.27086,1621537842.20137,1621537842.20419,1621537844.30215,1621537855.32293,1621537855.32476,1621537856.28668,1621537856.27329,1621538409.7797,1
19,19,1,2,4,1,4,c4_HowHand,1,pressing button?,82,H_126.jpg,1621537802.53525,1621537802.54744,51.0780751609802,4.78108763694763,55.863193025589,57.9639756584168,2.10078263282776,58.1140332126617,0.800297737121582,58.9159979724884,1,left,0.766332864761353,58.9143309497833,604.484452953339,607.244452953339,1621537856.37332,1621537856.38752,1621537861.15844,1621537861.17097,1621537863.25922,1621537863.40928,1621537863.42095,1621537864.21125,1621537864.20958,1621538409.7797,1
19,19,1,2,4,2,4,c4_HowHand,1,pressing button?,86,H_332.jpg,1621537802.53525,1621537802.54744,51.0780751609802,4.78108763694763,55.863193025589,57.9639756584168,0.3,59.2311158084869,0.766952276229858,60.0087540054321,1,left,0.757710933685303,59.9980680847168,604.484452953339,607.244452953339,1621537856.37332,1621537856.38752,1621537861.15844,1621537861.17097,1621537863.25922,1621537864.52636,1621537864.52818,1621537865.304,1621537865.29332,1621538409.7797,1
19,19,1,2,4,3,4,c4_HowHand,2,pressing button?,81,H_261.jpg,1621537802.53525,1621537802.54744,51.0780751609802,4.78108763694763,55.863193025589,57.9639756584168,0.3,60.314853181839,0.700262069702148,61.0161428356171,3,right,0.677282094955444,61.0151152515411,604.484452953339,607.244452953339,1621537856.37332,1621537856.38752,1621537861.15844,1621537861.17097,1621537863.25922,1621537865.6101,1621537865.6117,1621537866.31139,1621537866.31036,1621538409.7797,0
19,19,1,2,4,4,4,c4_HowHand,2,pressing button?,87,H_024.jpg,1621537802.53525,1621537802.54744,51.0780751609802,4.78108763694763,55.863193025589,57.9639756584168,0.3,61.3318986797333,0.833645582199097,62.1666319274902,3,right,0.815693140029907,62.1655442619324,604.484452953339,607.244452953339,1621537856.37332,1621537856.38752,1621537861.15844,1621537861.17097,1621537863.25922,1621537866.62715,1621537866.62896,1621537867.46188,1621537867.46079,1621538409.7797,0
19,19,1,2,4,5,4,c4_HowHand,1,pressing button?,83,H_502.jpg,1621537802.53525,1621537802.54744,51.0780751609802,4.78108763694763,55.863193025589,57.9639756584168,0.3,62.4823281669617,0.816972255706787,63.3004119300842,1,left,0.793991088867188,63.2993004226685,604.484452953339,607.244452953339,1621537856.37332,1621537856.38752,1621537861.15844,1621537861.17097,1621537863.25922,1621537867.77758,1621537867.7792,1621537868.59566,1621537868.59455,1621538409.7797,1
19,19,1,2,4,6,4,c4_HowHand,2,pressing button?,85,H_130.jpg,1621537802.53525,1621537802.54744,51.0780751609802,4.78108763694763,55.863193025589,57.9639756584168,0.3,63.6160840892792,0.683588266372681,64.3087379837036,3,right,0.671983957290649,64.2996723556519,604.484452953339,607.244452953339,1621537856.37332,1621537856.38752,1621537861.15844,1621537861.17097,1621537863.25922,1621537868.91133,1621537868.91285,1621537869.60399,1621537869.59492,1621538409.7797,0
19,19,1,2,4,7,4,c4_HowHand,1,pressing button?,88,H_019.jpg,1621537802.53525,1621537802.54744,51.0780751609802,4.78108763694763,55.863193025589,57.9639756584168,0.3,64.6164581680298,0.800297021865845,65.4254219436645,1,left,0.783942937850952,65.4167551898956,604.484452953339,607.244452953339,1621537856.37332,1621537856.38752,1621537861.15844,1621537861.17097,1621537863.25922,1621537869.91171,1621537869.9133,1621537870.72067,1621537870.712,1621538409.7797,1
19,19,1,2,4,8,4,c4_HowHand,1,pressing button?,84,H_483.jpg,1621537802.53525,1621537802.54744,51.0780751609802,4.78108763694763,55.863193025589,57.9639756584168,0.3,65.7335400485992,0.883664131164551,66.6247110271454,1,left,0.868464946746826,66.6172041797638,604.484452953339,607.244452953339,1621537856.37332,1621537856.38752,1621537861.15844,1621537861.17097,1621537863.25922,1621537871.02879,1621537871.03094,1621537871.91996,1621537871.91245,1621538409.7797,1
19,19,1,2,5,1,3,c3_HowFace,1,looking to side?,72,F_590.jpg,1621537802.53525,1621537802.54744,66.6838951015472,6.96606492996216,73.6698338890076,75.7539439105987,2.08411002159119,75.9040000343323,0.783625841140747,76.6914098167419,1,left,0.761250019073486,76.687625875473,604.484452953339,607.244452953339,1621537871.97914,1621537871.98844,1621537878.96508,1621537878.9681,1621537881.04919,1621537881.19925,1621537881.20384,1621537881.98666,1621537881.98287,1621538409.7797,1
19,19,1,2,5,2,3,c3_HowFace,1,looking to side?,69,F_110.jpg,1621537802.53525,1621537802.54744,66.6838951015472,6.96606492996216,73.6698338890076,75.7539439105987,0.3,77.0044109725952,1.20044732093811,78.2084770107269,1,left,1.18637800216675,78.2048582935333,604.484452953339,607.244452953339,1621537871.97914,1621537871.98844,1621537878.96508,1621537878.9681,1621537881.04919,1621537882.29966,1621537882.30389,1621537883.50372,1621537883.50011,1621538409.7797,1
19,19,1,2,5,3,3,c3_HowFace,1,looking to side?,68,F_760.jpg,1621537802.53525,1621537802.54744,66.6838951015472,6.96606492996216,73.6698338890076,75.7539439105987,0.3,78.5216426753998,0.950354337692261,79.4747178459167,1,left,0.935468196868896,79.471997013092,604.484452953339,607.244452953339,1621537871.97914,1621537871.98844,1621537878.96508,1621537878.9681,1621537881.04919,1621537883.81689,1621537883.82048,1621537884.76996,1621537884.76724,1621538409.7797,1
19,19,1,2,5,4,3,c3_HowFace,2,looking to side?,70,F_779.jpg,1621537802.53525,1621537802.54744,66.6838951015472,6.96606492996216,73.6698338890076,75.7539439105987,0.3,79.7887816333771,1.56725215911865,81.358106842041,3,right,1.55222916603088,81.3560337924957,604.484452953339,607.244452953339,1621537871.97914,1621537871.98844,1621537878.96508,1621537878.9681,1621537881.04919,1621537885.08403,1621537885.08713,1621537886.65335,1621537886.65128,1621538409.7797,0
19,19,1,2,5,5,3,c3_HowFace,1,looking to side?,71,F_433.jpg,1621537802.53525,1621537802.54744,66.6838951015472,6.96606492996216,73.6698338890076,75.7539439105987,0.3,81.6728179359436,1.16710186004639,82.8421339893341,1,left,1.15515995025635,82.83991979599,604.484452953339,607.244452953339,1621537871.97914,1621537871.98844,1621537878.96508,1621537878.9681,1621537881.04919,1621537886.96807,1621537886.97064,1621537888.13738,1621537888.13517,1621538409.7797,1
19,19,1,2,5,6,3,c3_HowFace,2,looking to side?,65,F_798.jpg,1621537802.53525,1621537802.54744,66.6838951015472,6.96606492996216,73.6698338890076,75.7539439105987,0.3,83.1567051315308,1.53390455245972,84.6917710208893,3,right,1.51259303092957,84.6906096839905,604.484452953339,607.244452953339,1621537871.97914,1621537871.98844,1621537878.96508,1621537878.9681,1621537881.04919,1621537888.45195,1621537888.45404,1621537889.98702,1621537889.98586,1621538409.7797,0
19,19,1,2,5,7,3,c3_HowFace,1,looking to side?,67,F_716.jpg,1621537802.53525,1621537802.54744,66.6838951015472,6.96606492996216,73.6698338890076,75.7539439105987,0.3,85.0073947811127,0.866990089416504,85.8753199481964,1,left,0.859040021896362,85.8743848705292,604.484452953339,607.244452953339,1621537871.97914,1621537871.98844,1621537878.96508,1621537878.9681,1621537881.04919,1621537890.30264,1621537890.30428,1621537891.17057,1621537891.16963,1621538409.7797,1
19,19,1,2,5,8,3,c3_HowFace,2,looking to side?,66,F_111.jpg,1621537802.53525,1621537802.54744,66.6838951015472,6.96606492996216,73.6698338890076,75.7539439105987,0.3,86.1911697292328,1.18377375602722,87.3766188526154,3,right,1.16550898551941,87.37494348526,604.484452953339,607.244452953339,1621537871.97914,1621537871.98844,1621537878.96508,1621537878.9681,1621537881.04919,1621537891.48642,1621537891.48805,1621537892.67187,1621537892.67019,1621538409.7797,0
19,19,1,2,6,1,1,c1_WhyFace,1,argument?,42,F_403.jpg,1621537802.53525,1621537802.54744,87.4749827289581,5.22793817520142,92.7102668190002,94.8110508823395,2.10078406333923,94.9611072444916,0.866990089416504,95.8291509056091,1,left,0.845808029174805,95.8280973339081,604.484452953339,607.244452953339,1621537892.77023,1621537892.77195,1621537898.00551,1621537898.00721,1621537900.1063,1621537900.25635,1621537900.25821,1621537901.1244,1621537901.12334,1621538409.7797,1
19,19,1,2,6,2,1,c1_WhyFace,2,argument?,44,F_139.jpg,1621537802.53525,1621537802.54744,87.4749827289581,5.22793817520142,92.7102668190002,94.8110508823395,0.3,96.1448821926117,0.883662462234497,97.0296709442139,3,right,0.865661144256592,97.0285446548462,604.484452953339,607.244452953339,1621537892.77023,1621537892.77195,1621537898.00551,1621537898.00721,1621537900.1063,1621537901.44013,1621537901.44188,1621537902.32492,1621537902.32379,1621538409.7797,0
19,19,1,2,6,3,1,c1_WhyFace,1,argument?,47,F_743.jpg,1621537802.53525,1621537802.54744,87.4749827289581,5.22793817520142,92.7102668190002,94.8110508823395,0.3,97.3453292751312,0.616896629333496,97.9639179611206,1,left,0.601449966430664,97.9622259044647,604.484452953339,607.244452953339,1621537892.77023,1621537892.77195,1621537898.00551,1621537898.00721,1621537900.1063,1621537902.64058,1621537902.64217,1621537903.25917,1621537903.25747,1621538409.7797,1
19,19,1,2,6,4,1,c1_WhyFace,2,argument?,45,F_433.jpg,1621537802.53525,1621537802.54744,87.4749827289581,5.22793817520142,92.7102668190002,94.8110508823395,0.3,98.2790107631683,1.01704597473145,99.3084258937836,3,right,1.00964713096619,99.2960567378998,604.484452953339,607.244452953339,1621537892.77023,1621537892.77195,1621537898.00551,1621537898.00721,1621537900.1063,1621537903.57426,1621537903.57587,1621537904.60367,1621537904.5913,1621538409.7797,0
19,19,1,2,6,5,1,c1_WhyFace,1,argument?,43,F_716.jpg,1621537802.53525,1621537802.54744,87.4749827289581,5.22793817520142,92.7102668190002,94.8110508823395,0.3,99.6128420734405,1.06706380844116,100.692231884003,1,left,1.05833888053894,100.679905881882,604.484452953339,607.244452953339,1621537892.77023,1621537892.77195,1621537898.00551,1621537898.00721,1621537900.1063,1621537904.90809,1621537904.90988,1621537905.98748,1621537905.97515,1621538409.7797,1
19,19,1,2,6,6,1,c1_WhyFace,1,argument?,48,F_758.jpg,1621537802.53525,1621537802.54744,87.4749827289581,5.22793817520142,92.7102668190002,94.8110508823395,0.3,100.996690979004,1.13375639915466,102.131650915146,1,left,1.11510801315308,102.130447378159,604.484452953339,607.244452953339,1621537892.77023,1621537892.77195,1621537898.00551,1621537898.00721,1621537900.1063,1621537906.29194,1621537906.29406,1621537907.4269,1621537907.42569,1621538409.7797,1
19,19,1,2,6,7,1,c1_WhyFace,2,argument?,46,F_844.jpg,1621537802.53525,1621537802.54744,87.4749827289581,5.22793817520142,92.7102668190002,94.8110508823395,0.3,102.447231760025,1.01704621315002,103.475141992569,3,right,1.00646901130676,103.464277973175,604.484452953339,607.244452953339,1621537892.77023,1621537892.77195,1621537898.00551,1621537898.00721,1621537900.1063,1621537907.74248,1621537907.74417,1621537908.77039,1621537908.75953,1621538409.7797,0
19,19,1,2,6,8,1,c1_WhyFace,1,argument?,41,F_712.jpg,1621537802.53525,1621537802.54744,87.4749827289581,5.22793817520142,92.7102668190002,94.8110508823395,0.3,103.781062355041,0.733606576919556,104.525400867462,1,left,0.720056056976318,104.514668931961,604.484452953339,607.244452953339,1621537892.77023,1621537892.77195,1621537898.00551,1621537898.00721,1621537900.1063,1621537909.07631,1621537909.07829,1621537909.82065,1621537909.80992,1621538409.7797,1
19,19,1,2,7,1,2,c2_WhyHand,1,self-protection?,94,H_189.jpg,1621537802.53525,1621537802.54744,104.598033895493,10.5868499279022,115.201988925934,117.30277179718,2.10078287124634,117.452827920914,1.26713943481445,118.725416889191,1,left,1.25635004043579,118.719967355728,604.484452953339,607.244452953339,1621537909.89328,1621537909.89503,1621537920.49724,1621537920.49902,1621537922.59802,1621537922.74808,1621537922.74944,1621537924.02066,1621537924.01521,1621538409.7797,1
19,19,1,2,7,2,2,c2_WhyHand,1,self-protection?,93,H_038.jpg,1621537802.53525,1621537802.54744,104.598033895493,10.5868499279022,115.201988925934,117.30277179718,0.3,119.036752214432,1.00037288665771,120.041448822021,1,left,0.987051010131836,120.037125101089,604.484452953339,607.244452953339,1621537909.89328,1621537909.89503,1621537920.49724,1621537920.49902,1621537922.59802,1621537924.332,1621537924.3339,1621537925.3367,1621537925.33237,1621538409.7797,1
19,19,1,2,7,3,2,c2_WhyHand,1,self-protection?,91,H_581.jpg,1621537802.53525,1621537802.54744,104.598033895493,10.5868499279022,115.201988925934,117.30277179718,0.3,120.353910198212,1.38384795188904,121.741279830933,1,left,1.37356495857239,121.737758150101,604.484452953339,607.244452953339,1621537909.89328,1621537909.89503,1621537920.49724,1621537920.49902,1621537922.59802,1621537925.64916,1621537925.65387,1621537927.03653,1621537927.03301,1621538409.7797,1
19,19,1,2,7,4,2,c2_WhyHand,2,self-protection?,90,H_006.jpg,1621537802.53525,1621537802.54744,104.598033895493,10.5868499279022,115.201988925934,117.30277179718,0.3,122.054544439316,1.20044660568237,123.258877029419,3,right,1.18854904174805,123.254991044998,604.484452953339,607.244452953339,1621537909.89328,1621537909.89503,1621537920.49724,1621537920.49902,1621537922.59802,1621537927.34979,1621537927.35401,1621537928.55412,1621537928.55024,1621538409.7797,0
19,19,1,2,7,5,2,c2_WhyHand,1,self-protection?,96,H_027.jpg,1621537802.53525,1621537802.54744,104.598033895493,10.5868499279022,115.201988925934,117.30277179718,0.3,123.57177614212,1.06706500053406,124.641302814484,1,left,1.05821800231934,124.638841142654,604.484452953339,607.244452953339,1621537909.89328,1621537909.89503,1621537920.49724,1621537920.49902,1621537922.59802,1621537928.86702,1621537928.87058,1621537929.93655,1621537929.93409,1621538409.7797,1
19,19,1,2,7,6,2,c2_WhyHand,2,self-protection?,95,H_332.jpg,1621537802.53525,1621537802.54744,104.598033895493,10.5868499279022,115.201988925934,117.30277179718,0.3,124.955626239777,1.33383059501648,126.29214881897,3,right,1.31339001655579,126.289456834793,604.484452953339,607.244452953339,1621537909.89328,1621537909.89503,1621537920.49724,1621537920.49902,1621537922.59802,1621537930.25087,1621537930.25398,1621537931.5874,1621537931.5847,1621538409.7797,0
19,19,1,2,7,7,2,c2_WhyHand,1,self-protection?,89,H_443.jpg,1621537802.53525,1621537802.54744,104.598033895493,10.5868499279022,115.201988925934,117.30277179718,0.3,126.606242170334,1.23379278182983,127.841758003235,1,left,1.22499299049377,127.840034952164,604.484452953339,607.244452953339,1621537909.89328,1621537909.89503,1621537920.49724,1621537920.49902,1621537922.59802,1621537931.90149,1621537931.90363,1621537933.13701,1621537933.13528,1621538409.7797,1
19,19,1,2,7,8,2,c2_WhyHand,2,self-protection?,92,H_532.jpg,1621537802.53525,1621537802.54744,104.598033895493,10.5868499279022,115.201988925934,117.30277179718,0.3,128.156820049286,1.60059690475464,129.7586419487,3,right,1.59251689910889,129.757416954041,604.484452953339,607.244452953339,1621537909.89328,1621537909.89503,1621537920.49724,1621537920.49902,1621537922.59802,1621537933.45207,1621537933.45397,1621537935.05389,1621537935.05266,1621538409.7797,0
19,19,1,2,8,1,4,c4_HowHand,1,both hands?,124,H_581.jpg,1621537802.53525,1621537802.54744,129.824108114243,3.20090079307556,133.041975488663,135.142757644653,2.1007821559906,135.292814483643,1.05039143562317,136.358731021881,1,left,1.03914403915405,136.343205919266,604.484452953339,607.244452953339,1621537935.11936,1621537935.12097,1621537938.33722,1621537938.33923,1621537940.438,1621537940.58806,1621537940.58987,1621537941.65398,1621537941.63845,1621538409.7797,1
19,19,1,2,8,2,4,c4_HowHand,1,both hands?,127,H_349.jpg,1621537802.53525,1621537802.54744,129.824108114243,3.20090079307556,133.041975488663,135.142757644653,0.3,136.659991493225,0.766951084136963,137.428519001007,1,left,0.752548933029175,137.426942577362,604.484452953339,607.244452953339,1621537935.11936,1621537935.12097,1621537938.33722,1621537938.33923,1621537940.438,1621537941.95524,1621537941.95654,1621537942.72377,1621537942.72219,1621538409.7797,1
19,19,1,2,8,3,4,c4_HowHand,2,both hands?,126,H_159.jpg,1621537802.53525,1621537802.54744,129.824108114243,3.20090079307556,133.041975488663,135.142757644653,0.3,137.74372838974,1.10040998458862,138.845677843094,3,right,1.08533096313477,138.844138374329,604.484452953339,607.244452953339,1621537935.11936,1621537935.12097,1621537938.33722,1621537938.33923,1621537940.438,1621537943.03898,1621537943.04087,1621537944.14092,1621537944.13939,1621538409.7797,0
19,19,1,2,8,4,4,c4_HowHand,1,both hands?,122,H_111.jpg,1621537802.53525,1621537802.54744,129.824108114243,3.20090079307556,133.041975488663,135.142757644653,0.3,139.160922994614,0.900335788726807,140.06234287262,1,left,0.888023853302002,140.06125878334,604.484452953339,607.244452953339,1621537935.11936,1621537935.12097,1621537938.33722,1621537938.33923,1621537940.438,1621537944.45617,1621537944.45787,1621537945.35759,1621537945.35651,1621538409.7797,1
19,19,1,2,8,5,4,c4_HowHand,2,both hands?,125,H_627.jpg,1621537802.53525,1621537802.54744,129.824108114243,3.20090079307556,133.041975488663,135.142757644653,0.3,140.378043880463,1.01704573631287,141.396782865524,3,right,0.995252847671509,141.395089616776,604.484452953339,607.244452953339,1621537935.11936,1621537935.12097,1621537938.33722,1621537938.33923,1621537940.438,1621537945.67329,1621537945.67506,1621537946.69203,1621537946.69034,1621538409.7797,0
19,19,1,2,8,6,4,c4_HowHand,1,both hands?,123,H_167.jpg,1621537802.53525,1621537802.54744,129.824108114243,3.20090079307556,133.041975488663,135.142757644653,0.3,141.711874952316,1.25046634674072,142.963940849304,1,left,1.22825312614441,142.962341299057,604.484452953339,607.244452953339,1621537935.11936,1621537935.12097,1621537938.33722,1621537938.33923,1621537940.438,1621537947.00712,1621537947.00863,1621537948.25919,1621537948.25759,1621538409.7797,1
19,19,1,2,8,7,4,c4_HowHand,1,both hands?,128,H_027.jpg,1621537802.53525,1621537802.54744,129.824108114243,3.20090079307556,133.041975488663,135.142757644653,0.3,143.279125919342,0.883663177490234,144.175232877731,1,left,0.873854875564575,144.162789096832,604.484452953339,607.244452953339,1621537935.11936,1621537935.12097,1621537938.33722,1621537938.33923,1621537940.438,1621537948.57437,1621537948.57622,1621537949.47048,1621537949.45804,1621538409.7797,1
19,19,1,2,8,8,4,c4_HowHand,2,both hands?,121,H_091.jpg,1621537802.53525,1621537802.54744,129.824108114243,3.20090079307556,133.041975488663,135.142757644653,0.3,144.479574670792,1.06706309318542,145.558813800812,3,right,1.057776927948,145.546637763977,604.484452953339,607.244452953339,1621537935.11936,1621537935.12097,1621537938.33722,1621537938.33923,1621537940.438,1621537949.77482,1621537949.7763,1621537950.85406,1621537950.84188,1621538409.7797,0
19,19,1,2,9,1,2,c2_WhyHand,1,competing?,15,H_170.jpg,1621537802.53525,1621537802.54744,145.630002250671,5.18507075309753,150.83194278717,152.932726135254,2.1007833480835,153.082781543732,0.90033483505249,153.984797945023,3,right,0.877050876617432,153.983116378784,604.484452953339,607.244452953339,1621537950.92525,1621537950.92711,1621537956.12719,1621537956.12869,1621537958.22797,1621537958.37803,1621537958.38037,1621537959.28005,1621537959.27836,1621538409.7797,0
19,19,1,2,9,2,2,c2_WhyHand,1,competing?,14,H_132.jpg,1621537802.53525,1621537802.54744,145.630002250671,5.18507075309753,150.83194278717,152.932726135254,0.3,154.299903144836,0.733605623245239,155.034690847397,1,left,0.715627908706665,155.033508768082,604.484452953339,607.244452953339,1621537950.92525,1621537950.92711,1621537956.12719,1621537956.12869,1621537958.22797,1621537959.59515,1621537959.59698,1621537960.32994,1621537960.32876,1621538409.7797,1
19,19,1,2,9,3,2,c2_WhyHand,2,competing?,10,H_126.jpg,1621537802.53525,1621537802.54744,145.630002250671,5.18507075309753,150.83194278717,152.932726135254,0.3,155.350294103622,0.883663415908813,156.242045869827,3,right,0.868799209594727,156.233957519531,604.484452953339,607.244452953339,1621537950.92525,1621537950.92711,1621537956.12719,1621537956.12869,1621537958.22797,1621537960.64554,1621537960.64734,1621537961.53729,1621537961.5292,1621538409.7797,0
19,19,1,2,9,4,2,c2_WhyHand,1,competing?,13,H_003.jpg,1621537802.53525,1621537802.54744,145.630002250671,5.18507075309753,150.83194278717,152.932726135254,0.3,156.550742378235,0.783624649047852,157.341979970932,1,left,0.777190923690796,157.334367027283,604.484452953339,607.244452953339,1621537950.92525,1621537950.92711,1621537956.12719,1621537956.12869,1621537958.22797,1621537961.84599,1621537961.84747,1621537962.63723,1621537962.62961,1621538409.7797,1
19,19,1,2,9,5,2,c2_WhyHand,2,competing?,11,H_502.jpg,1621537802.53525,1621537802.54744,145.630002250671,5.18507075309753,150.83194278717,152.932726135254,0.3,157.651151647568,1.21712136268616,158.875370969772,3,right,1.20062208175659,158.868273010254,604.484452953339,607.244452953339,1621537950.92525,1621537950.92711,1621537956.12719,1621537956.12869,1621537958.22797,1621537962.9464,1621537962.94833,1621537964.17062,1621537964.16352,1621538409.7797,0
19,19,1,2,9,6,2,c2_WhyHand,1,competing?,16,H_136.jpg,1621537802.53525,1621537802.54744,145.630002250671,5.18507075309753,150.83194278717,152.932726135254,0.3,159.185057630539,0.766952037811279,159.958694925308,1,left,0.7586829662323,159.95200966835,604.484452953339,607.244452953339,1621537950.92525,1621537950.92711,1621537956.12719,1621537956.12869,1621537958.22797,1621537964.4803,1621537964.48198,1621537965.25394,1621537965.24726,1621538409.7797,1
19,19,1,2,9,7,2,c2_WhyHand,2,competing?,12,H_483.jpg,1621537802.53525,1621537802.54744,145.630002250671,5.18507075309753,150.83194278717,152.932726135254,0.3,160.268795003891,0.967026472091675,161.242076864243,3,right,0.951378107070923,161.235821475983,604.484452953339,607.244452953339,1621537950.92525,1621537950.92711,1621537956.12719,1621537956.12869,1621537958.22797,1621537965.56404,1621537965.56596,1621537966.53732,1621537966.53107,1621538409.7797,0
19,19,1,2,9,8,2,c2_WhyHand,1,competing?,9,H_261.jpg,1621537802.53525,1621537802.54744,145.630002250671,5.18507075309753,150.83194278717,152.932726135254,0.3,161.552606811523,0.716934442520142,162.274770011902,1,left,0.703379154205322,162.269541254044,604.484452953339,607.244452953339,1621537950.92525,1621537950.92711,1621537956.12719,1621537956.12869,1621537958.22797,1621537966.84785,1621537966.85,1621537967.57002,1621537967.56479,1621538409.7797,1
19,19,1,2,10,1,4,c4_HowHand,1,lifting?,49,H_362.jpg,1621537802.53525,1621537802.54744,162.336232891083,6.36875295639038,168.721946468353,170.82273100853,2.10078454017639,170.972786417007,1.05039119720459,172.025909891129,1,left,1.02670907974243,172.023177614212,604.484452953339,607.244452953339,1621537967.63148,1621537967.63663,1621537974.01719,1621537974.02077,1621537976.11798,1621537976.26803,1621537976.2717,1621537977.32116,1621537977.31842,1621538409.7797,1
19,19,1,2,10,2,4,c4_HowHand,2,lifting?,55,H_012.jpg,1621537802.53525,1621537802.54744,162.336232891083,6.36875295639038,168.721946468353,170.82273100853,0.3,172.339963188171,0.967026233673096,173.308699836731,3,right,0.952307939529419,173.306989421844,604.484452953339,607.244452953339,1621537967.63148,1621537967.63663,1621537974.01719,1621537974.02077,1621537976.11798,1621537977.63521,1621537977.63732,1621537978.60395,1621537978.60224,1621538409.7797,0
19,19,1,2,10,3,4,c4_HowHand,1,lifting?,56,H_136.jpg,1621537802.53525,1621537802.54744,162.336232891083,6.36875295639038,168.721946468353,170.82273100853,0.3,173.623774995804,1.00037312507629,174.625178804398,3,right,0.979201078414917,174.62414812088,604.484452953339,607.244452953339,1621537967.63148,1621537967.63663,1621537974.01719,1621537974.02077,1621537976.11798,1621537978.91902,1621537978.92072,1621537979.92043,1621537979.9194,1621538409.7797,0
19,19,1,2,10,4,4,c4_HowHand,1,lifting?,52,H_189.jpg,1621537802.53525,1621537802.54744,162.336232891083,6.36875295639038,168.721946468353,170.82273100853,0.3,174.940932979584,1.06706476211548,176.009023895264,1,left,1.05423998832703,176.007997741699,604.484452953339,607.244452953339,1621537967.63148,1621537967.63663,1621537974.01719,1621537974.02077,1621537976.11798,1621537980.23618,1621537980.23788,1621537981.30427,1621537981.30324,1621538409.7797,1
19,19,1,2,10,5,4,c4_HowHand,1,lifting?,54,H_170.jpg,1621537802.53525,1621537802.54744,162.336232891083,6.36875295639038,168.721946468353,170.82273100853,0.3,176.324783315659,1.00037264823914,177.326192846298,1,left,0.984460115432739,177.325155963898,604.484452953339,607.244452953339,1621537967.63148,1621537967.63663,1621537974.01719,1621537974.02077,1621537976.11798,1621537981.62003,1621537981.62169,1621537982.62144,1621537982.6204,1621538409.7797,1
19,19,1,2,10,6,4,c4_HowHand,2,lifting?,53,H_077.jpg,1621537802.53525,1621537802.54744,162.336232891083,6.36875295639038,168.721946468353,170.82273100853,0.3,177.641939868927,0.800298929214478,178.444250812531,3,right,0.783641815185547,178.442238798141,604.484452953339,607.244452953339,1621537967.63148,1621537967.63663,1621537974.01719,1621537974.02077,1621537976.11798,1621537982.93719,1621537982.93888,1621537983.7395,1621537983.73749,1621538409.7797,0
19,19,1,2,10,7,4,c4_HowHand,1,lifting?,50,H_443.jpg,1621537802.53525,1621537802.54744,162.336232891083,6.36875295639038,168.721946468353,170.82273100853,0.3,178.759023418427,1.33383083343506,180.094333877563,1,left,1.31770300865173,180.092854251862,604.484452953339,607.244452953339,1621537967.63148,1621537967.63663,1621537974.01719,1621537974.02077,1621537976.11798,1621537984.05427,1621537984.05587,1621537985.38958,1621537985.3881,1621538409.7797,1
19,19,1,2,10,8,4,c4_HowHand,2,lifting?,51,H_038.jpg,1621537802.53525,1621537802.54744,162.336232891083,6.36875295639038,168.721946468353,170.82273100853,0.3,180.409638633728,1.08373713493347,181.494856824875,3,right,1.06705808639526,181.493375768662,604.484452953339,607.244452953339,1621537967.63148,1621537967.63663,1621537974.01719,1621537974.02077,1621537976.11798,1621537985.70489,1621537985.7065,1621537986.7901,1621537986.78862,1621538409.7797,0
19,19,1,2,11,1,3,c3_HowFace,1,open mouth?,73,F_403.jpg,1621537802.53525,1621537802.54744,181.560067644119,5.21485924720764,186.778680791855,188.879464616776,2.10078382492065,189.029521455765,0.833643674850464,189.875145902634,1,left,0.812136888504028,189.863165130615,604.484452953339,607.244452953339,1621537986.85531,1621537986.85666,1621537992.07393,1621537992.08761,1621537994.17471,1621537994.32477,1621537994.33752,1621537995.17039,1621537995.15841,1621538409.7797,1
19,19,1,2,11,2,3,c3_HowFace,1,open mouth?,75,F_086.jpg,1621537802.53525,1621537802.54744,181.560067644119,5.21485924720764,186.778680791855,188.879464616776,0.3,190.179950227737,0.666914939880371,190.8585297966,1,left,0.653337955474854,190.846865167618,604.484452953339,607.244452953339,1621537986.85531,1621537986.85666,1621537992.07393,1621537992.08761,1621537994.17471,1621537995.4752,1621537995.47671,1621537996.15378,1621537996.14211,1621538409.7797,1
19,19,1,2,11,3,3,c3_HowFace,1,open mouth?,80,F_844.jpg,1621537802.53525,1621537802.54744,181.560067644119,5.21485924720764,186.778680791855,188.879464616776,0.3,191.163649787903,0.83364462852478,191.998353948593,1,left,0.819278001785278,191.997294416428,604.484452953339,607.244452953339,1621537986.85531,1621537986.85666,1621537992.07393,1621537992.08761,1621537994.17471,1621537996.4589,1621537996.46063,1621537997.2936,1621537997.29254,1621538409.7797,1
19,19,1,2,11,4,3,c3_HowFace,2,open mouth?,76,F_544.jpg,1621537802.53525,1621537802.54744,181.560067644119,5.21485924720764,186.778680791855,188.879464616776,0.3,192.314079275131,0.833643674850464,193.14880894661,3,right,0.815448999404907,193.147722949982,604.484452953339,607.244452953339,1621537986.85531,1621537986.85666,1621537992.07393,1621537992.08761,1621537994.17471,1621537997.60933,1621537997.61096,1621537998.44406,1621537998.44297,1621538409.7797,0
19,19,1,2,11,5,3,c3_HowFace,1,open mouth?,74,F_776.jpg,1621537802.53525,1621537802.54744,181.560067644119,5.21485924720764,186.778680791855,188.879464616776,0.3,193.464507570267,0.650242567062378,194.125735988617,1,left,0.641438961029053,194.114750137329,604.484452953339,607.244452953339,1621537986.85531,1621537986.85666,1621537992.07393,1621537992.08761,1621537994.17471,1621537998.75975,1621537998.76119,1621537999.42098,1621537999.41,1621538409.7797,1
19,19,1,2,11,6,3,c3_HowFace,2,open mouth?,79,F_648.jpg,1621537802.53525,1621537802.54744,181.560067644119,5.21485924720764,186.778680791855,188.879464616776,0.3,194.43153547287,0.833643436431885,195.266223897934,3,right,0.809461116790771,195.265178909302,604.484452953339,607.244452953339,1621537986.85531,1621537986.85666,1621537992.07393,1621537992.08761,1621537994.17471,1621537999.72678,1621537999.72849,1621538000.56147,1621538000.56043,1621538409.7797,0
19,19,1,2,11,7,3,c3_HowFace,1,open mouth?,78,F_692.jpg,1621537802.53525,1621537802.54744,181.560067644119,5.21485924720764,186.778680791855,188.879464616776,0.3,195.581964244843,0.783624172210693,196.366796960831,1,left,0.764092922210693,196.365588417053,604.484452953339,607.244452953339,1621537986.85531,1621537986.85666,1621537992.07393,1621537992.08761,1621537994.17471,1621538000.87721,1621538000.87895,1621538001.66204,1621538001.66084,1621538409.7797,1
19,19,1,2,11,8,3,c3_HowFace,2,open mouth?,77,F_584.jpg,1621537802.53525,1621537802.54744,181.560067644119,5.21485924720764,186.778680791855,188.879464616776,0.3,196.682373991013,0.766952753067017,197.458189001083,1,left,0.758329153060913,197.44932674408,604.484452953339,607.244452953339,1621537986.85531,1621537986.85666,1621537992.07393,1621537992.08761,1621537994.17471,1621538001.97762,1621538001.97912,1621538002.75344,1621538002.74457,1621538409.7797,0
19,19,1,2,12,1,1,c1_WhyFace,1,proud?,97,F_582.jpg,1621537802.53525,1621537802.54744,197.532692422867,6.75919651985168,204.301882257462,206.402666082382,2.10078382492065,206.552722682953,1.15042805671692,207.70809387207,1,left,1.13759112358093,207.70315073967,604.484452953339,607.244452953339,1621538002.82794,1621538002.83727,1621538009.59713,1621538009.60405,1621538011.69791,1621538011.84797,1621538011.85442,1621538013.00334,1621538012.9984,1621538409.7797,1
19,19,1,2,12,2,1,c1_WhyFace,2,proud?,100,F_776.jpg,1621537802.53525,1621537802.54744,197.532692422867,6.75919651985168,204.301882257462,206.402666082382,0.3,208.019936075211,0.983700275421143,209.004729976654,3,right,0.962089061737061,209.003636350632,604.484452953339,607.244452953339,1621538002.82794,1621538002.83727,1621538009.59713,1621538009.60405,1621538011.69791,1621538013.31518,1621538013.31687,1621538014.29998,1621538014.29888,1621538409.7797,0
19,19,1,2,12,3,1,c1_WhyFace,1,proud?,104,F_598.jpg,1621537802.53525,1621537802.54744,197.532692422867,6.75919651985168,204.301882257462,206.402666082382,0.3,209.320420970917,1.70063424110413,211.02475189209,1,left,1.68452596664429,211.021055212021,604.484452953339,607.244452953339,1621538002.82794,1621538002.83727,1621538009.59713,1621538009.60405,1621538011.69791,1621538014.61567,1621538014.61728,1621538016.32,1621538016.3163,1621538409.7797,1
19,19,1,2,12,4,1,c1_WhyFace,2,proud?,98,F_412.jpg,1621537802.53525,1621537802.54744,197.532692422867,6.75919651985168,204.301882257462,206.402666082382,0.3,211.337840070724,0.750278472900391,212.092032899857,3,right,0.733639001846313,212.088118543625,604.484452953339,607.244452953339,1621538002.82794,1621538002.83727,1621538009.59713,1621538009.60405,1621538011.69791,1621538016.63309,1621538016.63707,1621538017.38728,1621538017.38337,1621538409.7797,0
19,19,1,2,12,5,1,c1_WhyFace,1,proud?,103,F_618.jpg,1621537802.53525,1621537802.54744,197.532692422867,6.75919651985168,204.301882257462,206.402666082382,0.3,212.404903879166,0.933682441711426,213.341392030716,1,left,0.920069932937622,213.338586320877,604.484452953339,607.244452953339,1621538002.82794,1621538002.83727,1621538009.59713,1621538009.60405,1621538011.69791,1621538017.70015,1621538017.70401,1621538018.63664,1621538018.63383,1621538409.7797,1
19,19,1,2,12,6,1,c1_WhyFace,1,proud?,101,F_083.jpg,1621537802.53525,1621537802.54744,197.532692422867,6.75919651985168,204.301882257462,206.402666082382,0.3,213.655369987488,0.700262069702148,214.358010997772,1,left,0.690648078918457,214.35563205719,604.484452953339,607.244452953339,1621538002.82794,1621538002.83727,1621538009.59713,1621538009.60405,1621538011.69791,1621538018.95062,1621538018.95399,1621538019.65326,1621538019.65088,1621538409.7797,1
19,19,1,2,12,7,1,c1_WhyFace,1,proud?,99,F_695.jpg,1621537802.53525,1621537802.54744,197.532692422867,6.75919651985168,204.301882257462,206.402666082382,0.3,214.672416439056,1.00037336349487,215.675515880585,1,left,0.979000091552734,215.672789802551,604.484452953339,607.244452953339,1621538002.82794,1621538002.83727,1621538009.59713,1621538009.60405,1621538011.69791,1621538019.96766,1621538019.97046,1621538020.97076,1621538020.96804,1621538409.7797,1
19,19,1,2,12,8,1,c1_WhyFace,2,proud?,102,F_760.jpg,1621537802.53525,1621537802.54744,197.532692422867,6.75919651985168,204.301882257462,206.402666082382,0.3,215.989574184418,0.917008876800537,216.908437957764,3,right,0.895303010940552,216.906583061218,604.484452953339,607.244452953339,1621538002.82794,1621538002.83727,1621538009.59713,1621538009.60405,1621538011.69791,1621538021.28482,1621538021.28703,1621538022.20369,1621538022.20183,1621538409.7797,0
19,19,1,2,13,1,2,c2_WhyHand,1,helping?,39,H_024.jpg,1621537802.53525,1621537802.54744,216.973275175095,5.5386598110199,222.525344839096,224.626129140854,2.10078430175781,224.776184549332,1.15042853355408,225.927950849533,1,left,1.13227105140686,225.926613082886,604.484452953339,607.244452953339,1621538022.26852,1621538022.26991,1621538027.82059,1621538027.82254,1621538029.92138,1621538030.07143,1621538030.07335,1621538031.2232,1621538031.22186,1621538409.7797,1
19,19,1,2,13,2,2,c2_WhyHand,1,helping?,37,H_474.jpg,1621537802.53525,1621537802.54744,216.973275175095,5.5386598110199,222.525344839096,224.626129140854,0.3,226.243396987915,1.0837390422821,227.328965892792,1,left,1.06716895103455,227.327136030197,604.484452953339,607.244452953339,1621538022.26852,1621538022.26991,1621538027.82059,1621538027.82254,1621538029.92138,1621538031.53864,1621538031.54022,1621538032.62421,1621538032.62238,1621538409.7797,1
19,19,1,2,13,3,2,c2_WhyHand,1,helping?,36,H_349.jpg,1621537802.53525,1621537802.54744,216.973275175095,5.5386598110199,222.525344839096,224.626129140854,0.3,227.643920888901,0.733606815338135,228.37861489296,1,left,0.711589097976685,228.377527704239,604.484452953339,607.244452953339,1621538022.26852,1621538022.26991,1621538027.82059,1621538027.82254,1621538029.92138,1621538032.93917,1621538032.94096,1621538033.67386,1621538033.67277,1621538409.7797,1
19,19,1,2,13,4,2,c2_WhyHand,2,helping?,33,H_091.jpg,1621537802.53525,1621537802.54744,216.973275175095,5.5386598110199,222.525344839096,224.626129140854,0.3,228.694312324524,0.850316762924194,229.558893909454,3,right,0.841465950012207,229.544629087448,604.484452953339,607.244452953339,1621538022.26852,1621538022.26991,1621538027.82059,1621538027.82254,1621538029.92138,1621538033.98956,1621538033.99125,1621538034.85414,1621538034.83988,1621538409.7797,0
19,19,1,2,13,5,2,c2_WhyHand,2,helping?,40,H_012.jpg,1621537802.53525,1621537802.54744,216.973275175095,5.5386598110199,222.525344839096,224.626129140854,0.3,229.861414661407,0.833643674850464,230.696096887589,3,right,0.821550130844116,230.695058336258,604.484452953339,607.244452953339,1621538022.26852,1621538022.26991,1621538027.82059,1621538027.82254,1621538029.92138,1621538035.15666,1621538035.15855,1621538035.99134,1621538035.99031,1621538409.7797,0
19,19,1,2,13,6,2,c2_WhyHand,1,helping?,38,H_077.jpg,1621537802.53525,1621537802.54744,216.973275175095,5.5386598110199,222.525344839096,224.626129140854,0.3,231.011842956543,1.05039262771606,232.063970794678,1,left,1.03817105293274,232.062235584259,604.484452953339,607.244452953339,1621538022.26852,1621538022.26991,1621538027.82059,1621538027.82254,1621538029.92138,1621538036.30709,1621538036.30869,1621538037.35922,1621538037.35748,1621538409.7797,1
19,19,1,2,13,7,2,c2_WhyHand,2,helping?,35,H_159.jpg,1621537802.53525,1621537802.54744,216.973275175095,5.5386598110199,222.525344839096,224.626129140854,0.3,232.379020204544,0.750279664993286,233.142125835419,3,right,0.7380530834198,233.129299869537,604.484452953339,607.244452953339,1621538022.26852,1621538022.26991,1621538027.82059,1621538027.82254,1621538029.92138,1621538037.67427,1621538037.67588,1621538038.43737,1621538038.42455,1621538409.7797,0
19,19,1,2,13,8,2,c2_WhyHand,1,helping?,34,H_111.jpg,1621537802.53525,1621537802.54744,216.973275175095,5.5386598110199,222.525344839096,224.626129140854,0.3,233.446084728241,0.900335073471069,234.347915878296,1,left,0.885426044464111,234.346419801712,604.484452953339,607.244452953339,1621538022.26852,1621538022.26991,1621538027.82059,1621538027.82254,1621538029.92138,1621538038.74133,1621538038.74313,1621538039.64316,1621538039.64167,1621538409.7797,1
19,19,1,2,14,1,4,c4_HowHand,1,reaching?,109,H_474.jpg,1621537802.53525,1621537802.54744,234.41311167717,5.62876129150391,240.048547019959,242.149329891205,2.10078287124634,242.299386491776,1.33382940292358,243.634961833954,3,right,1.30264091491699,243.633215894699,604.484452953339,607.244452953339,1621538039.70836,1621538039.72053,1621538045.34379,1621538045.35446,1621538047.44458,1621538047.59463,1621538047.60432,1621538048.93021,1621538048.92846,1621538409.7797,0
19,19,1,2,14,2,4,c4_HowHand,1,reaching?,111,H_003.jpg,1621537802.53525,1621537802.54744,234.41311167717,5.62876129150391,240.048547019959,242.149329891205,0.3,243.950000753403,0.967027902603149,244.925406923294,1,left,0.951705932617188,244.917028656006,604.484452953339,607.244452953339,1621538039.70836,1621538039.72053,1621538045.34379,1621538045.35446,1621538047.44458,1621538049.24525,1621538049.24698,1621538050.22065,1621538050.21228,1621538409.7797,1
19,19,1,2,14,3,4,c4_HowHand,2,reaching?,112,H_132.jpg,1621537802.53525,1621537802.54744,234.41311167717,5.62876129150391,240.048547019959,242.149329891205,0.3,245.233814229965,1.18377351760864,246.424723854065,3,right,1.17369794845581,246.417587747574,604.484452953339,607.244452953339,1621538039.70836,1621538039.72053,1621538045.34379,1621538045.35446,1621538047.44458,1621538050.52906,1621538050.53101,1621538051.71997,1621538051.71283,1621538409.7797,0
19,19,1,2,14,4,4,c4_HowHand,1,reaching?,110,H_364.jpg,1621537802.53525,1621537802.54744,234.41311167717,5.62876129150391,240.048547019959,242.149329891205,0.3,246.734373321533,1.08373785018921,247.819111814499,1,left,1.06198382377625,247.818111171722,604.484452953339,607.244452953339,1621538039.70836,1621538039.72053,1621538045.34379,1621538045.35446,1621538047.44458,1621538052.02962,1621538052.03095,1621538053.11436,1621538053.11336,1621538409.7797,1
19,19,1,2,14,5,4,c4_HowHand,1,reaching?,106,H_006.jpg,1621537802.53525,1621537802.54744,234.41311167717,5.62876129150391,240.048547019959,242.149329891205,0.3,248.134894599915,0.900336027145386,249.036393871307,1,left,0.881687164306641,249.03523062706,604.484452953339,607.244452953339,1621538039.70836,1621538039.72053,1621538045.34379,1621538045.35446,1621538047.44458,1621538053.43014,1621538053.43164,1621538054.33164,1621538054.33048,1621538409.7797,1
19,19,1,2,14,6,4,c4_HowHand,2,reaching?,108,H_532.jpg,1621537802.53525,1621537802.54744,234.41311167717,5.62876129150391,240.048547019959,242.149329891205,0.3,249.352015485764,0.783625364303589,250.141401996613,3,right,0.775645017623901,250.135640850067,604.484452953339,607.244452953339,1621538039.70836,1621538039.72053,1621538045.34379,1621538045.35446,1621538047.44458,1621538054.64726,1621538054.6489,1621538055.43665,1621538055.43089,1621538409.7797,0
19,19,1,2,14,7,4,c4_HowHand,2,reaching?,105,H_438.jpg,1621537802.53525,1621537802.54744,234.41311167717,5.62876129150391,240.048547019959,242.149329891205,0.3,250.452427139282,1.03371810913086,251.491753807068,3,right,1.01948618888855,251.486145248413,604.484452953339,607.244452953339,1621538039.70836,1621538039.72053,1621538045.34379,1621538045.35446,1621538047.44458,1621538055.74767,1621538055.74958,1621538056.787,1621538056.78139,1621538409.7797,0
19,19,1,2,14,8,4,c4_HowHand,1,reaching?,107,H_007.jpg,1621537802.53525,1621537802.54744,234.41311167717,5.62876129150391,240.048547019959,242.149329891205,0.3,251.802929868698,0.833643913269043,252.641899814606,1,left,0.826781034469604,252.636573781967,604.484452953339,607.244452953339,1621538039.70836,1621538039.72053,1621538045.34379,1621538045.35446,1621538047.44458,1621538057.09818,1621538057.09965,1621538057.93715,1621538057.93182,1621538409.7797,1
19,19,1,2,15,1,3,c3_HowFace,1,looking at camera?,60,F_618.jpg,1621537802.53525,1621537802.54744,252.719939222336,6.11196064949036,258.838886966705,260.939670791626,2.10078382492065,261.089726676941,0.883662223815918,261.975279798508,1,left,0.86820912361145,261.973388900757,604.484452953339,607.244452953339,1621538058.01519,1621538058.01735,1621538064.13413,1621538064.13752,1621538066.23492,1621538066.38497,1621538066.38733,1621538067.27053,1621538067.26864,1621538409.7797,1
19,19,1,2,15,2,3,c3_HowFace,2,looking at camera?,63,F_743.jpg,1621537802.53525,1621537802.54744,252.719939222336,6.11196064949036,258.838886966705,260.939670791626,0.3,262.290174713135,0.833644390106201,263.125623931885,3,right,0.817781925201416,263.123819103241,604.484452953339,607.244452953339,1621538058.01519,1621538058.01735,1621538064.13413,1621538064.13752,1621538066.23492,1621538067.58542,1621538067.58715,1621538068.42087,1621538068.41907,1621538409.7797,0
19,19,1,2,15,3,3,c3_HowFace,1,looking at camera?,62,F_598.jpg,1621537802.53525,1621537802.54744,252.719939222336,6.11196064949036,258.838886966705,260.939670791626,0.3,263.440603723526,0.750279188156128,264.192594995499,1,left,0.73231315612793,264.190882911682,604.484452953339,607.244452953339,1621538058.01519,1621538058.01735,1621538064.13413,1621538064.13752,1621538066.23492,1621538068.73585,1621538068.7375,1621538069.48784,1621538069.48613,1621538409.7797,1
19,19,1,2,15,4,3,c3_HowFace,1,looking at camera?,61,F_774.jpg,1621537802.53525,1621537802.54744,252.719939222336,6.11196064949036,258.838886966705,260.939670791626,0.3,264.507668008804,0.716934204101562,265.226267805099,1,left,0.696254968643188,265.224602212906,604.484452953339,607.244452953339,1621538058.01519,1621538058.01735,1621538064.13413,1621538064.13752,1621538066.23492,1621538069.80292,1621538069.80457,1621538070.52151,1621538070.51985,1621538409.7797,1
19,19,1,2,15,5,3,c3_HowFace,1,looking at camera?,59,F_129.jpg,1621537802.53525,1621537802.54744,252.719939222336,6.11196064949036,258.838886966705,260.939670791626,0.3,265.541386594772,0.600223064422607,266.142736902237,1,left,0.577318906784058,266.141609659195,604.484452953339,607.244452953339,1621538058.01519,1621538058.01735,1621538064.13413,1621538064.13752,1621538066.23492,1621538070.83663,1621538070.83854,1621538071.43798,1621538071.43686,1621538409.7797,1
19,19,1,2,15,6,3,c3_HowFace,1,looking at camera?,64,F_128.jpg,1621537802.53525,1621537802.54744,252.719939222336,6.11196064949036,258.838886966705,260.939670791626,0.3,266.458393564224,0.866991758346558,267.327164878845,1,left,0.846264123916626,267.325385322571,604.484452953339,607.244452953339,1621538058.01519,1621538058.01735,1621538064.13413,1621538064.13752,1621538066.23492,1621538071.75364,1621538071.7553,1621538072.62241,1621538072.62063,1621538409.7797,1
19,19,1,2,15,7,3,c3_HowFace,2,looking at camera?,57,F_582.jpg,1621537802.53525,1621537802.54744,252.719939222336,6.11196064949036,258.838886966705,260.939670791626,0.3,267.642169942856,1.08373761177063,268.726840963364,1,left,1.07313990592957,268.725907554626,604.484452953339,607.244452953339,1621538058.01519,1621538058.01735,1621538064.13413,1621538064.13752,1621538066.23492,1621538072.93742,1621538072.93939,1621538074.02209,1621538074.02115,1621538409.7797,0
19,19,1,2,15,8,3,c3_HowFace,2,looking at camera?,58,F_754.jpg,1621537802.53525,1621537802.54744,252.719939222336,6.11196064949036,258.838886966705,260.939670791626,0.3,269.04269241333,1.05039167404175,270.094820966721,3,right,1.0311450958252,270.093084087372,604.484452953339,607.244452953339,1621538058.01519,1621538058.01735,1621538064.13413,1621538064.13752,1621538066.23492,1621538074.33794,1621538074.33961,1621538075.39007,1621538075.38833,1621538409.7797,0
19,19,1,2,16,1,1,c1_WhyFace,1,self-doubt?,25,F_798.jpg,1621537802.53525,1621537802.54744,270.15977596283,10.1521880626678,280.330235471725,282.43101858139,2.10078310966492,282.58107375145,1.05039215087891,283.633360853195,1,left,1.03477096557617,283.631465902329,604.484452953339,607.244452953339,1621538075.45502,1621538075.47058,1621538085.62548,1621538085.62748,1621538087.72627,1621538087.87632,1621538087.87829,1621538088.92861,1621538088.92671,1621538409.7797,1
19,19,1,2,16,2,1,c1_WhyFace,2,self-doubt?,32,F_128.jpg,1621537802.53525,1621537802.54744,270.15977596283,10.1521880626678,280.330235471725,282.43101858139,0.3,283.948250761032,1.05039238929749,285.008392801285,3,right,1.03763890266418,284.99864315033,604.484452953339,607.244452953339,1621538075.45502,1621538075.47058,1621538085.62548,1621538085.62748,1621538087.72627,1621538089.2435,1621538089.24542,1621538090.30364,1621538090.29389,1621538409.7797,0
19,19,1,2,16,3,1,c1_WhyFace,1,self-doubt?,28,F_754.jpg,1621537802.53525,1621537802.54744,270.15977596283,10.1521880626678,280.330235471725,282.43101858139,0.3,285.31542848587,0.866988897323608,286.192091932297,1,left,0.856082916259766,286.182417383194,604.484452953339,607.244452953339,1621538075.45502,1621538075.47058,1621538085.62548,1621538085.62748,1621538087.72627,1621538090.61068,1621538090.61244,1621538091.48734,1621538091.47766,1621538409.7797,1
19,19,1,2,16,4,1,c1_WhyFace,1,self-doubt?,29,F_544.jpg,1621537802.53525,1621537802.54744,270.15977596283,10.1521880626678,280.330235471725,282.43101858139,0.3,286.499202957153,0.750279188156128,287.258687963486,1,left,0.734739065170288,287.249482145309,604.484452953339,607.244452953339,1621538075.45502,1621538075.47058,1621538085.62548,1621538085.62748,1621538087.72627,1621538091.79445,1621538091.79608,1621538092.55394,1621538092.54473,1621538409.7797,1
19,19,1,2,16,5,1,c1_WhyFace,2,self-doubt?,27,F_086.jpg,1621537802.53525,1621537802.54744,270.15977596283,10.1521880626678,280.330235471725,282.43101858139,0.3,287.566267004013,0.950353622436523,288.525410881042,3,right,0.935142040252686,288.51662062645,604.484452953339,607.244452953339,1621538075.45502,1621538075.47058,1621538085.62548,1621538085.62748,1621538087.72627,1621538092.86151,1621538092.86307,1621538093.82066,1621538093.81187,1621538409.7797,0
19,19,1,2,16,6,1,c1_WhyFace,1,self-doubt?,26,F_111.jpg,1621537802.53525,1621537802.54744,270.15977596283,10.1521880626678,280.330235471725,282.43101858139,0.3,288.833406438828,0.917008399963379,289.751608839035,1,left,0.89888596534729,289.750414838791,604.484452953339,607.244452953339,1621538075.45502,1621538075.47058,1621538085.62548,1621538085.62748,1621538087.72627,1621538094.12865,1621538094.13056,1621538095.04686,1621538095.04566,1621538409.7797,1
19,19,1,2,16,7,1,c1_WhyFace,2,self-doubt?,31,F_774.jpg,1621537802.53525,1621537802.54744,270.15977596283,10.1521880626678,280.330235471725,282.43101858139,0.3,290.06720041275,0.700260639190674,290.775668849945,3,right,0.685078859329224,290.767461051941,604.484452953339,607.244452953339,1621538075.45502,1621538075.47058,1621538085.62548,1621538085.62748,1621538087.72627,1621538095.36245,1621538095.36421,1621538096.07092,1621538096.06271,1621538409.7797,0
19,19,1,2,16,8,1,c1_WhyFace,1,self-doubt?,30,F_584.jpg,1621537802.53525,1621537802.54744,270.15977596283,10.1521880626678,280.330235471725,282.43101858139,0.3,291.084246149063,1.18377470970154,292.274978866577,3,right,1.16684889793396,292.268020858765,604.484452953339,607.244452953339,1621538075.45502,1621538075.47058,1621538085.62548,1621538085.62748,1621538087.72627,1621538096.37949,1621538096.38129,1621538097.57023,1621538097.56327,1621538409.7797,0
19,19,1,2,17,1,4,c4_HowHand,1,reaching?,106,H_006.jpg,1621537802.53525,1621537802.54744,292.351384868622,5.85048604011536,298.220239629745,300.32102273941,2.10078310966492,300.4710795784,0.633569478988647,301.108381977081,1,left,0.621586799621582,301.104649057388,604.484452953339,607.244452953339,1621538097.64663,1621538097.64826,1621538103.51549,1621538103.51698,1621538105.61627,1621538105.76633,1621538105.76789,1621538106.40363,1621538106.3999,1621538409.7797,1
19,19,1,2,17,2,4,c4_HowHand,2,reaching?,105,H_438.jpg,1621537802.53525,1621537802.54744,292.351384868622,5.85048604011536,298.220239629745,300.32102273941,0.3,301.421433916092,1.03371953964233,302.456239929199,3,right,1.00863409042358,302.455153455734,604.484452953339,607.244452953339,1621538097.64663,1621538097.64826,1621538103.51549,1621538103.51698,1621538105.61627,1621538106.71668,1621538106.72023,1621538107.75149,1621538107.7504,1621538409.7797,0
19,19,1,2,17,3,4,c4_HowHand,1,reaching?,111,H_003.jpg,1621537802.53525,1621537802.54744,292.351384868622,5.85048604011536,298.220239629745,300.32102273941,0.3,302.771936883926,0.783626794815063,303.558125963211,1,left,0.768961906433105,303.555563678741,604.484452953339,607.244452953339,1621538097.64663,1621538097.64826,1621538103.51549,1621538103.51698,1621538105.61627,1621538108.06718,1621538108.07072,1621538108.85337,1621538108.85081,1621538409.7797,1
19,19,1,2,17,4,4,c4_HowHand,1,reaching?,109,H_474.jpg,1621537802.53525,1621537802.54744,292.351384868622,5.85048604011536,298.220239629745,300.32102273941,0.3,303.872348299026,1.36717534065247,305.241827001572,3,right,1.35733199119568,305.239523639679,604.484452953339,607.244452953339,1621538097.64663,1621538097.64826,1621538103.51549,1621538103.51698,1621538105.61627,1621538109.1676,1621538109.17092,1621538110.53707,1621538110.53477,1621538409.7797,0
19,19,1,2,17,5,4,c4_HowHand,2,reaching?,108,H_532.jpg,1621537802.53525,1621537802.54744,292.351384868622,5.85048604011536,298.220239629745,300.32102273941,0.3,305.55630897522,0.766952991485596,306.325281848907,3,right,0.754097938537598,306.323261966705,604.484452953339,607.244452953339,1621538097.64663,1621538097.64826,1621538103.51549,1621538103.51698,1621538105.61627,1621538110.85156,1621538110.85413,1621538111.62053,1621538111.61851,1621538409.7797,0
19,19,1,2,17,6,4,c4_HowHand,1,reaching?,110,H_364.jpg,1621537802.53525,1621537802.54744,292.351384868622,5.85048604011536,298.220239629745,300.32102273941,0.3,306.640047540665,0.666914939880371,307.308490982056,1,left,0.656987905502319,307.306962480545,604.484452953339,607.244452953339,1621538097.64663,1621538097.64826,1621538103.51549,1621538103.51698,1621538105.61627,1621538111.93529,1621538111.93716,1621538112.60374,1621538112.60221,1621538409.7797,1
19,19,1,2,17,7,4,c4_HowHand,1,reaching?,107,H_007.jpg,1621537802.53525,1621537802.54744,292.351384868622,5.85048604011536,298.220239629745,300.32102273941,0.3,307.623746862412,0.766952991485596,308.392422904968,1,left,0.747750997543335,308.390699853897,604.484452953339,607.244452953339,1621538097.64663,1621538097.64826,1621538103.51549,1621538103.51698,1621538105.61627,1621538112.91899,1621538112.92066,1621538113.68767,1621538113.68595,1621538409.7797,1
19,19,1,2,17,8,4,c4_HowHand,2,reaching?,112,H_132.jpg,1621537802.53525,1621537802.54744,292.351384868622,5.85048604011536,298.220239629745,300.32102273941,0.3,308.707483997345,0.98370099067688,309.692819824219,3,right,0.962221145629883,309.691184988022,604.484452953339,607.244452953339,1621538097.64663,1621538097.64826,1621538103.51549,1621538103.51698,1621538105.61627,1621538114.00273,1621538114.00432,1621538114.98807,1621538114.98643,1621538409.7797,0
19,19,1,2,18,1,2,c2_WhyHand,1,healthy?,18,H_438.jpg,1621537802.53525,1621537802.54744,309.774548997879,10.9095318317413,320.695287694931,322.79607175827,2.10078406333923,322.946127405167,0.683588027954102,323.631211986542,1,left,0.665776968002319,323.629715433121,604.484452953339,607.244452953339,1621538115.0698,1621538115.0714,1621538125.99053,1621538125.99239,1621538128.09132,1621538128.24137,1621538128.24326,1621538128.92646,1621538128.92496,1621538409.7797,1
19,19,1,2,18,2,2,c2_WhyHand,2,healthy?,20,H_007.jpg,1621537802.53525,1621537802.54744,309.774548997879,10.9095318317413,320.695287694931,322.79607175827,0.3,323.946500768662,0.816971778869629,324.765485992432,3,right,0.796534061431885,324.763472547531,604.484452953339,607.244452953339,1621538115.0698,1621538115.0714,1621538125.99053,1621538125.99239,1621538128.09132,1621538129.24175,1621538129.24342,1621538130.06073,1621538130.05872,1621538409.7797,0
19,19,1,2,18,3,2,c2_WhyHand,1,healthy?,23,H_364.jpg,1621537802.53525,1621537802.54744,309.774548997879,10.9095318317413,320.695287694931,322.79607175827,0.3,325.080256690979,0.70026159286499,325.78190993309,1,left,0.678619861602783,325.780518283844,604.484452953339,607.244452953339,1621538115.0698,1621538115.0714,1621538125.99053,1621538125.99239,1621538128.09132,1621538130.3755,1621538130.37724,1621538131.07716,1621538131.07577,1621538409.7797,1
19,19,1,2,18,4,2,c2_WhyHand,2,healthy?,24,H_019.jpg,1621537802.53525,1621537802.54744,309.774548997879,10.9095318317413,320.695287694931,322.79607175827,0.3,326.09730266571,0.78362512588501,326.892035951614,3,right,0.772229909896851,326.880927791595,604.484452953339,607.244452953339,1621538115.0698,1621538115.0714,1621538125.99053,1621538125.99239,1621538128.09132,1621538131.39255,1621538131.39441,1621538132.18728,1621538132.17617,1621538409.7797,0
19,19,1,2,18,5,2,c2_WhyHand,1,healthy?,19,H_167.jpg,1621537802.53525,1621537802.54744,309.774548997879,10.9095318317413,320.695287694931,322.79607175827,0.3,327.197713365555,0.716933727264404,327.925432910919,1,left,0.699953079223633,327.914647092819,604.484452953339,607.244452953339,1621538115.0698,1621538115.0714,1621538125.99053,1621538125.99239,1621538128.09132,1621538132.49296,1621538132.4951,1621538133.22068,1621538133.20989,1621538409.7797,1
19,19,1,2,18,6,2,c2_WhyHand,2,healthy?,22,H_130.jpg,1621537802.53525,1621537802.54744,309.774548997879,10.9095318317413,320.695287694931,322.79607175827,0.3,328.231432189941,0.733607292175293,328.966116895676,3,right,0.711724996566772,328.965039482117,604.484452953339,607.244452953339,1621538115.0698,1621538115.0714,1621538125.99053,1621538125.99239,1621538128.09132,1621538133.52668,1621538133.52853,1621538134.26136,1621538134.26029,1621538409.7797,0
19,19,1,2,18,7,2,c2_WhyHand,1,healthy?,21,H_627.jpg,1621537802.53525,1621537802.54744,309.774548997879,10.9095318317413,320.695287694931,322.79607175827,0.3,329.281824102402,0.883662939071655,330.175377836227,1,left,0.872319936752319,330.165487041473,604.484452953339,607.244452953339,1621538115.0698,1621538115.0714,1621538125.99053,1621538125.99239,1621538128.09132,1621538134.57707,1621538134.57872,1621538135.47062,1621538135.46073,1621538409.7797,1
19,19,1,2,18,8,2,c2_WhyHand,1,healthy?,17,H_362.jpg,1621537802.53525,1621537802.54744,309.774548997879,10.9095318317413,320.695287694931,322.79607175827,0.3,330.482270946503,0.766953468322754,331.250386943817,1,left,0.744906187057495,331.249224414825,604.484452953339,607.244452953339,1621538115.0698,1621538115.0714,1621538125.99053,1621538125.99239,1621538128.09132,1621538135.77752,1621538135.77921,1621538136.54563,1621538136.54447,1621538409.7797,1
19,19,1,2,19,1,1,c1_WhyFace,1,proud?,101,F_083.jpg,1621537802.53525,1621537802.54744,331.315914859772,7.43801498413086,338.768695583344,340.86947845459,2.10078287124634,341.019533863068,0.850317001342773,341.875457992554,1,left,0.832616090774536,341.86985086441,604.484452953339,607.244452953339,1621538136.61116,1621538136.62066,1621538144.06394,1621538144.07086,1621538146.16473,1621538146.31478,1621538146.31691,1621538147.17071,1621538147.1651,1621538409.7797,1
19,19,1,2,19,2,1,c1_WhyFace,2,proud?,98,F_412.jpg,1621537802.53525,1621537802.54744,331.315914859772,7.43801498413086,338.768695583344,340.86947845459,0.3,342.186635961533,0.733606815338135,342.924764862061,3,right,0.718533039093018,342.920242776871,604.484452953339,607.244452953339,1621538136.61116,1621538136.62066,1621538144.06394,1621538144.07086,1621538146.16473,1621538147.48188,1621538147.48345,1621538148.22001,1621538148.21549,1621538409.7797,0
19,19,1,2,19,3,1,c1_WhyFace,1,proud?,99,F_695.jpg,1621537802.53525,1621537802.54744,331.315914859772,7.43801498413086,338.768695583344,340.86947845459,0.3,343.237028112412,0.533531665802002,343.775148859024,1,left,0.517837047576904,343.770559778214,604.484452953339,607.244452953339,1621538136.61116,1621538136.62066,1621538144.06394,1621538144.07086,1621538146.16473,1621538148.53228,1621538148.5342,1621538149.0704,1621538149.06581,1621538409.7797,1
19,19,1,2,19,4,1,c1_WhyFace,1,proud?,104,F_598.jpg,1621537802.53525,1621537802.54744,331.315914859772,7.43801498413086,338.768695583344,340.86947845459,0.3,344.087345113754,0.967025756835938,345.058557977676,1,left,0.955597162246704,345.05437087059,604.484452953339,607.244452953339,1621538136.61116,1621538136.62066,1621538144.06394,1621538144.07086,1621538146.16473,1621538149.38259,1621538149.38728,1621538150.35381,1621538150.34962,1621538409.7797,1
19,19,1,2,19,5,1,c1_WhyFace,1,proud?,103,F_618.jpg,1621537802.53525,1621537802.54744,331.315914859772,7.43801498413086,338.768695583344,340.86947845459,0.3,345.371156921387,0.583551168441772,345.958159914017,1,left,0.565972089767456,345.954708089829,604.484452953339,607.244452953339,1621538136.61116,1621538136.62066,1621538144.06394,1621538144.07086,1621538146.16473,1621538150.6664,1621538150.67101,1621538151.25341,1621538151.24996,1621538409.7797,1
19,19,1,2,19,6,1,c1_WhyFace,1,proud?,97,F_582.jpg,1621537802.53525,1621537802.54744,331.315914859772,7.43801498413086,338.768695583344,340.86947845459,0.3,346.271493425369,0.7669517993927,347.042797794342,1,left,0.745021820068359,347.038445224762,604.484452953339,607.244452953339,1621538136.61116,1621538136.62066,1621538144.06394,1621538144.07086,1621538146.16473,1621538151.56674,1621538151.5705,1621538152.33804,1621538152.33369,1621538409.7797,1
19,19,1,2,19,7,1,c1_WhyFace,2,proud?,102,F_760.jpg,1621537802.53525,1621537802.54744,331.315914859772,7.43801498413086,338.768695583344,340.86947845459,0.3,347.355229845047,0.700261354446411,348.058657875061,3,right,0.688018083572388,348.055491199493,604.484452953339,607.244452953339,1621538136.61116,1621538136.62066,1621538144.06394,1621538144.07086,1621538146.16473,1621538152.65048,1621538152.65404,1621538153.3539,1621538153.35074,1621538409.7797,0
19,19,1,2,19,8,1,c1_WhyFace,2,proud?,100,F_776.jpg,1621537802.53525,1621537802.54744,331.315914859772,7.43801498413086,338.768695583344,340.86947845459,0.3,348.372276058197,0.833643913269043,349.208780994415,3,right,0.824919939041138,349.205919971466,604.484452953339,607.244452953339,1621538136.61116,1621538136.62066,1621538144.06394,1621538144.07086,1621538146.16473,1621538153.66752,1621538153.67098,1621538154.50403,1621538154.50117,1621538409.7797,0
19,19,1,2,20,1,3,c3_HowFace,1,smiling?,115,F_695.jpg,1621537802.53525,1621537802.54744,349.289284934998,10.9446148872375,360.243369808197,362.344153156281,2.1007833480835,362.494208803177,0.700262069702148,363.195461025238,1,left,0.67790699005127,363.194470872879,604.484452953339,607.244452953339,1621538154.58453,1621538154.58743,1621538165.53862,1621538165.54045,1621538167.6394,1621538167.78946,1621538167.79135,1621538168.49071,1621538168.48972,1621538409.7797,1
19,19,1,2,20,2,3,c3_HowFace,2,smiling?,114,F_412.jpg,1621537802.53525,1621537802.54744,349.289284934998,10.9446148872375,360.243369808197,362.344153156281,0.3,363.51125453949,0.600224494934082,364.11313079834,3,right,0.579649925231934,364.111479034424,604.484452953339,607.244452953339,1621538154.58453,1621538154.58743,1621538165.53862,1621538165.54045,1621538167.6394,1621538168.8065,1621538168.80832,1621538169.40838,1621538169.40673,1621538409.7797,0
19,19,1,2,20,3,3,c3_HowFace,1,smiling?,116,F_083.jpg,1621537802.53525,1621537802.54744,349.289284934998,10.9446148872375,360.243369808197,362.344153156281,0.3,364.428263654709,0.550205945968628,364.992058982849,1,left,0.538841009140015,364.978469600677,604.484452953339,607.244452953339,1621538154.58453,1621538154.58743,1621538165.53862,1621538165.54045,1621538167.6394,1621538169.72351,1621538169.72512,1621538170.28731,1621538170.27372,1621538409.7797,1
19,19,1,2,20,4,3,c3_HowFace,1,smiling?,117,F_593.jpg,1621537802.53525,1621537802.54744,349.289284934998,10.9446148872375,360.243369808197,362.344153156281,0.3,365.295254220963,0.683587551116943,365.979882946014,1,left,0.667355060577393,365.978841772079,604.484452953339,607.244452953339,1621538154.58453,1621538154.58743,1621538165.53862,1621538165.54045,1621538167.6394,1621538170.5905,1621538170.59202,1621538171.27513,1621538171.27409,1621538409.7797,1
19,19,1,2,20,5,3,c3_HowFace,2,smiling?,113,F_712.jpg,1621537802.53525,1621537802.54744,349.289284934998,10.9446148872375,360.243369808197,362.344153156281,0.3,366.295626392365,0.766950845718384,367.065083971024,3,right,0.75313401222229,367.062577238083,604.484452953339,607.244452953339,1621538154.58453,1621538154.58743,1621538165.53862,1621538165.54045,1621538167.6394,1621538171.59087,1621538171.59233,1621538172.36033,1621538172.35782,1621538409.7797,0
19,19,1,2,20,6,3,c3_HowFace,1,smiling?,119,F_139.jpg,1621537802.53525,1621537802.54744,349.289284934998,10.9446148872375,360.243369808197,362.344153156281,0.3,367.379363765717,0.700261116027832,368.091413011551,1,left,0.689452171325684,368.079624881744,604.484452953339,607.244452953339,1621538154.58453,1621538154.58743,1621538165.53862,1621538165.54045,1621538167.6394,1621538172.67461,1621538172.67616,1621538173.38666,1621538173.37487,1621538409.7797,1
19,19,1,2,20,7,3,c3_HowFace,1,smiling?,118,F_759.jpg,1621537802.53525,1621537802.54744,349.289284934998,10.9446148872375,360.243369808197,362.344153156281,0.3,368.396410455704,0.616896629333496,369.015084018707,1,left,0.593941926956177,369.013307085037,604.484452953339,607.244452953339,1621538154.58453,1621538154.58743,1621538165.53862,1621538165.54045,1621538167.6394,1621538173.69166,1621538173.6933,1621538174.31033,1621538174.30855,1621538409.7797,1
19,19,1,2,20,8,3,c3_HowFace,2,smiling?,120,F_758.jpg,1621537802.53525,1621537802.54744,349.289284934998,10.9446148872375,360.243369808197,362.344153156281,0.3,369.330091943741,0.633568525314331,369.96468996048,3,right,0.619188070297241,369.963660469055,604.484452953339,607.244452953339,1621538154.58453,1621538154.58743,1621538165.53862,1621538165.54045,1621538167.6394,1621538174.62534,1621538174.62729,1621538175.25994,1621538175.25891,1621538409.7797,0
19,19,1,2,21,1,4,c4_HowHand,1,both hands?,123,H_167.jpg,1621537802.53525,1621537802.54744,370.03035282135,9.31155204772949,379.35049580574,381.451278915405,2.10078310966492,381.601335039139,0.716933727264404,382.325444927216,1,left,0.695942878723145,382.318268766403,604.484452953339,607.244452953339,1621538175.3256,1621538175.33758,1621538184.64574,1621538184.65444,1621538186.74653,1621538186.89658,1621538186.9039,1621538187.62069,1621538187.61352,1621538409.7797,1
19,19,1,2,21,2,4,c4_HowHand,2,both hands?,126,H_159.jpg,1621537802.53525,1621537802.54744,370.03035282135,9.31155204772949,379.35049580574,381.451278915405,0.3,382.635053863525,0.633569002151489,383.275295963287,3,right,0.625025033950806,383.268622865677,604.484452953339,607.244452953339,1621538175.3256,1621538175.33758,1621538184.64574,1621538184.65444,1621538186.74653,1621538187.9303,1621538187.93192,1621538188.57054,1621538188.56387,1621538409.7797,0
19,19,1,2,21,3,4,c4_HowHand,1,both hands?,128,H_027.jpg,1621537802.53525,1621537802.54744,370.03035282135,9.31155204772949,379.35049580574,381.451278915405,0.3,383.585407724381,0.66691517829895,384.258350839615,1,left,0.655121088027954,384.252322902679,604.484452953339,607.244452953339,1621538175.3256,1621538175.33758,1621538184.64574,1621538184.65444,1621538186.74653,1621538188.88065,1621538188.88243,1621538189.5536,1621538189.54757,1621538409.7797,1
19,19,1,2,21,4,4,c4_HowHand,1,both hands?,124,H_581.jpg,1621537802.53525,1621537802.54744,370.03035282135,9.31155204772949,379.35049580574,381.451278915405,0.3,384.56910823822,0.700260162353516,385.270575990677,1,left,0.6788330078125,385.269368400574,604.484452953339,607.244452953339,1621538175.3256,1621538175.33758,1621538184.64574,1621538184.65444,1621538186.74653,1621538189.86436,1621538189.86603,1621538190.56582,1621538190.56462,1621538409.7797,1
19,19,1,2,21,5,4,c4_HowHand,2,both hands?,121,H_091.jpg,1621537802.53525,1621537802.54744,370.03035282135,9.31155204772949,379.35049580574,381.451278915405,0.3,385.58615445137,0.700260400772095,386.287966957092,3,right,0.679551124572754,386.286414852142,604.484452953339,607.244452953339,1621538175.3256,1621538175.33758,1621538184.64574,1621538184.65444,1621538186.74653,1621538190.8814,1621538190.88322,1621538191.58321,1621538191.58166,1621538409.7797,0
19,19,1,2,21,6,4,c4_HowHand,1,both hands?,122,H_111.jpg,1621537802.53525,1621537802.54744,370.03035282135,9.31155204772949,379.35049580574,381.451278915405,0.3,386.603199949265,0.600224018096924,387.204819908142,1,left,0.578159093856812,387.203423967361,604.484452953339,607.244452953339,1621538175.3256,1621538175.33758,1621538184.64574,1621538184.65444,1621538186.74653,1621538191.89845,1621538191.89995,1621538192.50007,1621538192.49867,1621538409.7797,1
19,19,1,2,21,7,4,c4_HowHand,2,both hands?,125,H_627.jpg,1621537802.53525,1621537802.54744,370.03035282135,9.31155204772949,379.35049580574,381.451278915405,0.3,387.520209779739,0.883662462234497,388.408138027191,3,right,0.863398790359497,388.403872241974,604.484452953339,607.244452953339,1621538175.3256,1621538175.33758,1621538184.64574,1621538184.65444,1621538186.74653,1621538192.81546,1621538192.81732,1621538193.70339,1621538193.69912,1621538409.7797,0
19,19,1,2,21,8,4,c4_HowHand,1,both hands?,127,H_349.jpg,1621537802.53525,1621537802.54744,370.03035282135,9.31155204772949,379.35049580574,381.451278915405,0.3,388.720655908585,0.666915655136108,389.391404857636,1,left,0.652010917663574,389.387571563721,604.484452953339,607.244452953339,1621538175.3256,1621538175.33758,1621538184.64574,1621538184.65444,1621538186.74653,1621538194.0159,1621538194.02055,1621538194.68665,1621538194.68282,1621538409.7797,1
19,19,1,2,22,1,2,c2_WhyHand,1,helping?,34,H_111.jpg,1621537802.53525,1621537802.54744,389.470935573578,7.40105223655701,396.890369644165,398.974479904175,2.08411026000977,399.141209115982,0.733607053756714,399.876384963989,1,left,0.717126131057739,399.874816169739,604.484452953339,607.244452953339,1621538194.76618,1621538194.76723,1621538202.18562,1621538202.18745,1621538204.26973,1621538204.43646,1621538204.43884,1621538205.17163,1621538205.17006,1621538409.7797,1
19,19,1,2,22,2,2,c2_WhyHand,1,helping?,38,H_077.jpg,1621537802.53525,1621537802.54744,389.470935573578,7.40105223655701,396.890369644165,398.974479904175,0.3,400.191601028442,0.650241851806641,400.858197917938,1,left,0.642901182174683,400.841842880249,604.484452953339,607.244452953339,1621538194.76618,1621538194.76723,1621538202.18562,1621538202.18745,1621538204.26973,1621538205.48685,1621538205.48846,1621538206.15345,1621538206.13709,1621538409.7797,1
19,19,1,2,22,3,2,c2_WhyHand,2,helping?,35,H_159.jpg,1621537802.53525,1621537802.54744,389.470935573578,7.40105223655701,396.890369644165,398.974479904175,0.3,401.158627738953,0.583550930023193,401.743957986832,3,right,0.563676118850708,401.742178668976,604.484452953339,607.244452953339,1621538194.76618,1621538194.76723,1621538202.18562,1621538202.18745,1621538204.26973,1621538206.45387,1621538206.45523,1621538207.03921,1621538207.03743,1621538409.7797,0
19,19,1,2,22,4,2,c2_WhyHand,1,helping?,37,H_474.jpg,1621537802.53525,1621537802.54744,389.470935573578,7.40105223655701,396.890369644165,398.974479904175,0.3,402.058964242935,0.766952514648438,402.827069988251,1,left,0.743664026260376,402.825916757584,604.484452953339,607.244452953339,1621538194.76618,1621538194.76723,1621538202.18562,1621538202.18745,1621538204.26973,1621538207.35421,1621538207.35608,1621538208.12232,1621538208.12116,1621538409.7797,1
19,19,1,2,22,5,2,c2_WhyHand,2,helping?,40,H_012.jpg,1621537802.53525,1621537802.54744,389.470935573578,7.40105223655701,396.890369644165,398.974479904175,0.3,403.142701377869,0.783625602722168,403.928405990601,3,right,0.768362998962402,403.926326980591,604.484452953339,607.244452953339,1621538194.76618,1621538194.76723,1621538202.18562,1621538202.18745,1621538204.26973,1621538208.43795,1621538208.43971,1621538209.22365,1621538209.22157,1621538409.7797,0
19,19,1,2,22,6,2,c2_WhyHand,1,helping?,39,H_024.jpg,1621537802.53525,1621537802.54744,389.470935573578,7.40105223655701,396.890369644165,398.974479904175,0.3,404.243112077713,0.800297498703003,405.044443836212,1,left,0.786118984222412,405.043409576416,604.484452953339,607.244452953339,1621538194.76618,1621538194.76723,1621538202.18562,1621538202.18745,1621538204.26973,1621538209.53836,1621538209.54005,1621538210.33969,1621538210.33866,1621538409.7797,1
19,19,1,2,22,7,2,c2_WhyHand,2,helping?,33,H_091.jpg,1621537802.53525,1621537802.54744,389.470935573578,7.40105223655701,396.890369644165,398.974479904175,0.3,405.360195150375,0.683587789535522,406.045371999741,3,right,0.67313289642334,406.043782939911,604.484452953339,607.244452953339,1621538194.76618,1621538194.76723,1621538202.18562,1621538202.18745,1621538204.26973,1621538210.65544,1621538210.6571,1621538211.34062,1621538211.33903,1621538409.7797,0
19,19,1,2,22,8,2,c2_WhyHand,1,helping?,36,H_349.jpg,1621537802.53525,1621537802.54744,389.470935573578,7.40105223655701,396.890369644165,398.974479904175,0.3,406.360567321777,0.58355188369751,406.945487966537,1,left,0.564069986343384,406.944119205475,604.484452953339,607.244452953339,1621538194.76618,1621538194.76723,1621538202.18562,1621538202.18745,1621538204.26973,1621538211.65581,1621538211.65739,1621538212.24074,1621538212.23937,1621538409.7797,1
19,19,1,2,23,1,1,c1_WhyFace,1,self-doubt?,28,F_754.jpg,1621537802.53525,1621537802.54744,407.027482500076,7.37440133094788,414.41357134819,416.514355173111,2.10078382492065,416.664410581589,0.750280141830444,417.416023960114,1,left,0.727938890457153,417.414690723419,604.484452953339,607.244452953339,1621538212.32273,1621538212.32471,1621538219.70882,1621538219.71075,1621538221.8096,1621538221.95966,1621538221.96124,1621538222.71127,1621538222.70994,1621538409.7797,1
19,19,1,2,23,2,1,c1_WhyFace,2,self-doubt?,32,F_128.jpg,1621537802.53525,1621537802.54744,407.027482500076,7.37440133094788,414.41357134819,416.514355173111,0.3,417.731475105286,0.550205230712891,418.291486968994,3,right,0.543587923049927,418.281680335999,604.484452953339,607.244452953339,1621538212.32273,1621538212.32471,1621538219.70882,1621538219.71075,1621538221.8096,1621538223.02672,1621538223.02829,1621538223.58673,1621538223.57693,1621538409.7797,0
19,19,1,2,23,3,1,c1_WhyFace,1,self-doubt?,29,F_544.jpg,1621537802.53525,1621537802.54744,407.027482500076,7.37440133094788,414.41357134819,416.514355173111,0.3,418.598465194702,0.716933965682983,419.316459884644,1,left,0.698904991149902,419.315399160385,604.484452953339,607.244452953339,1621538212.32273,1621538212.32471,1621538219.70882,1621538219.71075,1621538221.8096,1621538223.89371,1621538223.89558,1621538224.61171,1621538224.61065,1621538409.7797,1
19,19,1,2,23,4,1,c1_WhyFace,2,self-doubt?,27,F_086.jpg,1621537802.53525,1621537802.54744,407.027482500076,7.37440133094788,414.41357134819,416.514355173111,0.3,419.63218378067,0.850317001342773,420.491462936401,3,right,0.840790987014771,420.482500782013,604.484452953339,607.244452953339,1621538212.32273,1621538212.32471,1621538219.70882,1621538219.71075,1621538221.8096,1621538224.92743,1621538224.92942,1621538225.78671,1621538225.77775,1621538409.7797,0
19,19,1,2,23,5,1,c1_WhyFace,1,self-doubt?,25,F_798.jpg,1621537802.53525,1621537802.54744,407.027482500076,7.37440133094788,414.41357134819,416.514355173111,0.3,420.799285640717,0.500186204910278,421.308550825119,1,left,0.489190816879272,421.299471845627,604.484452953339,607.244452953339,1621538212.32273,1621538212.32471,1621538219.70882,1621538219.71075,1621538221.8096,1621538226.09453,1621538226.09622,1621538226.6038,1621538226.59472,1621538409.7797,1
19,19,1,2,23,6,1,c1_WhyFace,1,self-doubt?,30,F_584.jpg,1621537802.53525,1621537802.54744,407.027482500076,7.37440133094788,414.41357134819,416.514355173111,0.3,421.616256942749,1.01704597473145,422.634398927689,3,right,0.999008893966675,422.63330291748,604.484452953339,607.244452953339,1621538212.32273,1621538212.32471,1621538219.70882,1621538219.71075,1621538221.8096,1621538226.9115,1621538226.91341,1621538227.92965,1621538227.92855,1621538409.7797,0
19,19,1,2,23,7,1,c1_WhyFace,1,self-doubt?,26,F_111.jpg,1621537802.53525,1621537802.54744,407.027482500076,7.37440133094788,414.41357134819,416.514355173111,0.3,422.950088253021,0.566877365112305,423.52475689888,1,left,0.557738065719604,423.516965618134,604.484452953339,607.244452953339,1621538212.32273,1621538212.32471,1621538219.70882,1621538219.71075,1621538221.8096,1621538228.24534,1621538228.24757,1621538228.82,1621538228.81221,1621538409.7797,1
19,19,1,2,23,8,1,c1_WhyFace,2,self-doubt?,31,F_774.jpg,1621537802.53525,1621537802.54744,407.027482500076,7.37440133094788,414.41357134819,416.514355173111,0.3,423.833751430511,0.666914463043213,424.508707990646,3,right,0.651355981826782,424.500665893555,604.484452953339,607.244452953339,1621538212.32273,1621538212.32471,1621538219.70882,1621538219.71075,1621538221.8096,1621538229.129,1621538229.13052,1621538229.80396,1621538229.79591,1621538409.7797,0
19,19,1,2,24,1,3,c3_HowFace,1,looking to side?,71,F_433.jpg,1621537802.53525,1621537802.54744,424.58403014183,8.60792875289917,433.203912010193,435.304694881439,2.10078287124634,435.454751005173,0.783625602722168,436.241894950867,1,left,0.76947283744812,436.238376607895,604.484452953339,607.244452953339,1621538229.87928,1621538229.88723,1621538238.49916,1621538238.50415,1621538240.59994,1621538240.75,1621538240.75436,1621538241.53714,1621538241.53362,1621538409.7797,1
19,19,1,2,24,2,3,c3_HowFace,2,looking to side?,70,F_779.jpg,1621537802.53525,1621537802.54744,424.58403014183,8.60792875289917,433.203912010193,435.304694881439,0.3,436.555160751343,0.933681726455688,437.491433849335,1,left,0.917856931686401,437.488842477798,604.484452953339,607.244452953339,1621538229.87928,1621538229.88723,1621538238.49916,1621538238.50415,1621538240.59994,1621538241.85041,1621538241.85414,1621538242.78668,1621538242.78409,1621538409.7797,0
19,19,1,2,24,3,3,c3_HowFace,1,looking to side?,68,F_760.jpg,1621537802.53525,1621537802.54744,424.58403014183,8.60792875289917,433.203912010193,435.304694881439,0.3,437.805627813339,0.733606815338135,438.541890850067,3,right,0.723251104354858,438.539234628677,604.484452953339,607.244452953339,1621538229.87928,1621538229.88723,1621538238.49916,1621538238.50415,1621538240.59994,1621538243.10087,1621538243.10392,1621538243.83714,1621538243.83448,1621538409.7797,0
19,19,1,2,24,4,3,c3_HowFace,2,looking to side?,66,F_111.jpg,1621537802.53525,1621537802.54744,424.58403014183,8.60792875289917,433.203912010193,435.304694881439,0.3,438.856019964218,1.1337559223175,439.991420974731,3,right,1.11305284500122,439.989775886536,604.484452953339,607.244452953339,1621538229.87928,1621538229.88723,1621538238.49916,1621538238.50415,1621538240.59994,1621538244.15127,1621538244.15421,1621538245.28667,1621538245.28502,1621538409.7797,0
19,19,1,2,24,5,3,c3_HowFace,2,looking to side?,65,F_798.jpg,1621537802.53525,1621537802.54744,424.58403014183,8.60792875289917,433.203912010193,435.304694881439,0.3,440.306561460495,0.933681011199951,441.241397848129,3,right,0.920597076416016,441.240242471695,604.484452953339,607.244452953339,1621538229.87928,1621538229.88723,1621538238.49916,1621538238.50415,1621538240.59994,1621538245.60181,1621538245.6039,1621538246.53664,1621538246.53549,1621538409.7797,0
19,19,1,2,24,6,3,c3_HowFace,1,looking to side?,67,F_716.jpg,1621537802.53525,1621537802.54744,424.58403014183,8.60792875289917,433.203912010193,435.304694881439,0.3,441.557027330399,0.783624887466431,442.341707935333,1,left,0.760459899902344,442.340652217865,604.484452953339,607.244452953339,1621538229.87928,1621538229.88723,1621538238.49916,1621538238.50415,1621538240.59994,1621538246.85227,1621538246.85411,1621538247.63696,1621538247.6359,1621538409.7797,1
19,19,1,2,24,7,3,c3_HowFace,1,looking to side?,72,F_590.jpg,1621537802.53525,1621537802.54744,424.58403014183,8.60792875289917,433.203912010193,435.304694881439,0.3,442.65743683815,0.683588027954102,443.342010011673,1,left,0.673379898071289,443.341024866104,604.484452953339,607.244452953339,1621538229.87928,1621538229.88723,1621538238.49916,1621538238.50415,1621538240.59994,1621538247.95268,1621538247.95421,1621538248.63726,1621538248.63627,1621538409.7797,1
19,19,1,2,24,8,3,c3_HowFace,1,looking to side?,69,F_110.jpg,1621537802.53525,1621537802.54744,424.58403014183,8.60792875289917,433.203912010193,435.304694881439,0.3,443.657810201645,1.18377470970154,444.842972984314,1,left,1.16931104660034,444.841584911346,604.484452953339,607.244452953339,1621538229.87928,1621538229.88723,1621538238.49916,1621538238.50415,1621538240.59994,1621538248.95306,1621538248.95459,1621538250.13822,1621538250.13683,1621538409.7797,1
19,19,1,2,25,1,1,c1_WhyFace,1,argument?,43,F_716.jpg,1621537802.53525,1621537802.54744,444.924948921204,6.14194297790527,451.077238550186,453.17802690506,2.10078835487366,453.328082790375,0.866990327835083,454.19615196228,1,left,0.85314679145813,454.19507311821,604.484452953339,607.244452953339,1621538250.2202,1621538250.22192,1621538256.37249,1621538256.37435,1621538258.47327,1621538258.62333,1621538258.62522,1621538259.4914,1621538259.49032,1621538409.7797,1
19,19,1,2,25,2,1,c1_WhyFace,2,argument?,44,F_139.jpg,1621537802.53525,1621537802.54744,444.924948921204,6.14194297790527,451.077238550186,453.17802690506,0.3,454.511858453751,0.683587789535522,455.19703291893,3,right,0.669382095336914,455.195446243286,604.484452953339,607.244452953339,1621538250.2202,1621538250.22192,1621538256.37249,1621538256.37435,1621538258.47327,1621538259.80711,1621538259.80858,1621538260.49228,1621538260.49069,1621538409.7797,0
19,19,1,2,25,3,1,c1_WhyFace,1,argument?,47,F_743.jpg,1621537802.53525,1621537802.54744,444.924948921204,6.14194297790527,451.077238550186,453.17802690506,0.3,455.51223110199,0.583551168441772,456.108734836578,1,left,0.571775913238525,456.095782270432,604.484452953339,607.244452953339,1621538250.2202,1621538250.22192,1621538256.37249,1621538256.37435,1621538258.47327,1621538260.80748,1621538260.80925,1621538261.40398,1621538261.39103,1621538409.7797,1
19,19,1,2,25,4,1,c1_WhyFace,1,argument?,42,F_403.jpg,1621537802.53525,1621537802.54744,444.924948921204,6.14194297790527,451.077238550186,453.17802690506,0.3,456.412567367554,0.666914701461792,457.091746797562,1,left,0.654083967208862,457.079482069016,604.484452953339,607.244452953339,1621538250.2202,1621538250.22192,1621538256.37249,1621538256.37435,1621538258.47327,1621538261.70781,1621538261.70911,1621538262.38699,1621538262.37473,1621538409.7797,1
19,19,1,2,25,5,1,c1_WhyFace,1,argument?,48,F_758.jpg,1621537802.53525,1621537802.54744,444.924948921204,6.14194297790527,451.077238550186,453.17802690506,0.3,457.396267404556,1.01704573631287,458.414989938736,1,left,0.995403051376343,458.413313140869,604.484452953339,607.244452953339,1621538250.2202,1621538250.22192,1621538256.37249,1621538256.37435,1621538258.47327,1621538262.69151,1621538262.69318,1621538263.71024,1621538263.70856,1621538409.7797,1
19,19,1,2,25,6,1,c1_WhyFace,2,argument?,46,F_844.jpg,1621537802.53525,1621537802.54744,444.924948921204,6.14194297790527,451.077238550186,453.17802690506,0.3,458.730098714829,0.683586835861206,459.425132026672,3,right,0.674596071243286,459.41368555069,604.484452953339,607.244452953339,1621538250.2202,1621538250.22192,1621538256.37249,1621538256.37435,1621538258.47327,1621538264.02535,1621538264.02712,1621538264.72038,1621538264.70893,1621538409.7797,0
19,19,1,2,25,7,1,c1_WhyFace,1,argument?,41,F_712.jpg,1621537802.53525,1621537802.54744,444.924948921204,6.14194297790527,451.077238550186,453.17802690506,0.3,459.73047088623,0.750280380249023,460.482542028427,1,left,0.73090386390686,460.48075126648,604.484452953339,607.244452953339,1621538250.2202,1621538250.22192,1621538256.37249,1621538256.37435,1621538258.47327,1621538265.02572,1621538265.02726,1621538265.77779,1621538265.776,1621538409.7797,1
19,19,1,2,25,8,1,c1_WhyFace,2,argument?,45,F_433.jpg,1621537802.53525,1621537802.54744,444.924948921204,6.14194297790527,451.077238550186,453.17802690506,0.3,460.79753493309,0.933681726455688,461.732918968201,1,left,0.912850856781006,461.731216659546,604.484452953339,607.244452953339,1621538250.2202,1621538250.22192,1621538256.37249,1621538256.37435,1621538258.47327,1621538266.09278,1621538266.09461,1621538267.02817,1621538267.02646,1621538409.7797,0
19,19,1,2,26,1,3,c3_HowFace,1,open mouth?,80,F_844.jpg,1621537802.53525,1621537802.54744,461.814580907822,8.36034989356995,470.18436955452,472.285152902603,2.1007833480835,472.4352085495,0.650242805480957,473.087134828568,1,left,0.623053073883057,473.08545135498,604.484452953339,607.244452953339,1621538267.10983,1621538267.1115,1621538275.47962,1621538275.48732,1621538277.5804,1621538277.73046,1621538277.73765,1621538278.38238,1621538278.3807,1621538409.7797,1
19,19,1,2,26,2,3,c3_HowFace,1,open mouth?,78,F_692.jpg,1621537802.53525,1621537802.54744,461.814580907822,8.36034989356995,470.18436955452,472.285152902603,0.3,473.402235736847,0.533533573150635,473.941478004456,1,left,0.520395040512085,473.935769309998,604.484452953339,607.244452953339,1621538267.10983,1621538267.1115,1621538275.47962,1621538275.48732,1621538277.5804,1621538278.69748,1621538278.69914,1621538279.23673,1621538279.23102,1621538409.7797,1
19,19,1,2,26,3,3,c3_HowFace,2,open mouth?,77,F_584.jpg,1621537802.53525,1621537802.54744,461.814580907822,8.36034989356995,470.18436955452,472.285152902603,0.3,474.252553453445,0.666914224624634,474.921190013886,3,right,0.646538972854614,474.91946767807,604.484452953339,607.244452953339,1621538267.10983,1621538267.1115,1621538275.47962,1621538275.48732,1621538277.5804,1621538279.5478,1621538279.54928,1621538280.21644,1621538280.21471,1621538409.7797,0
19,19,1,2,26,4,3,c3_HowFace,1,open mouth?,75,F_086.jpg,1621537802.53525,1621537802.54744,461.814580907822,8.36034989356995,470.18436955452,472.285152902603,0.3,475.236253013611,0.616896629333496,475.855085840225,1,left,0.594831943511963,475.853149642944,604.484452953339,607.244452953339,1621538267.10983,1621538267.1115,1621538275.47962,1621538275.48732,1621538277.5804,1621538280.5315,1621538280.533,1621538281.15033,1621538281.1484,1621538409.7797,1
19,19,1,2,26,5,3,c3_HowFace,1,open mouth?,73,F_403.jpg,1621537802.53525,1621537802.54744,461.814580907822,8.36034989356995,470.18436955452,472.285152902603,0.3,476.169935216904,0.633569002151489,476.808498849869,1,left,0.624417066574097,476.803504219055,604.484452953339,607.244452953339,1621538267.10983,1621538267.1115,1621538275.47962,1621538275.48732,1621538277.5804,1621538281.46518,1621538281.46655,1621538282.10375,1621538282.09875,1621538409.7797,1
19,19,1,2,26,6,3,c3_HowFace,2,open mouth?,76,F_544.jpg,1621537802.53525,1621537802.54744,461.814580907822,8.36034989356995,470.18436955452,472.285152902603,0.3,477.120289077759,0.650242328643799,477.775037994385,3,right,0.63559103012085,477.770531406403,604.484452953339,607.244452953339,1621538267.10983,1621538267.1115,1621538275.47962,1621538275.48732,1621538277.5804,1621538282.41554,1621538282.42096,1621538283.07029,1621538283.06578,1621538409.7797,0
19,19,1,2,26,7,3,c3_HowFace,2,open mouth?,79,F_648.jpg,1621537802.53525,1621537802.54744,461.814580907822,8.36034989356995,470.18436955452,472.285152902603,0.3,478.087315788269,0.750280380249023,478.839289894104,3,right,0.724890947341919,478.837596168518,604.484452953339,607.244452953339,1621538267.10983,1621538267.1115,1621538275.47962,1621538275.48732,1621538277.5804,1621538283.38256,1621538283.38717,1621538284.13454,1621538284.13284,1621538409.7797,0
19,19,1,2,26,8,3,c3_HowFace,1,open mouth?,74,F_776.jpg,1621537802.53525,1621537802.54744,461.814580907822,8.36034989356995,470.18436955452,472.285152902603,0.3,479.154380788803,0.733607292175293,479.88948797226,1,left,0.708914995193481,479.887988080978,604.484452953339,607.244452953339,1621538267.10983,1621538267.1115,1621538275.47962,1621538275.48732,1621538277.5804,1621538284.44963,1621538284.45365,1621538285.18474,1621538285.18324,1621538409.7797,1
19,19,1,2,27,1,4,c4_HowHand,1,lifting?,54,H_170.jpg,1621537802.53525,1621537802.54744,479.971352329254,9.16765666007996,489.158111562729,491.24222158432,2.08411002159119,491.392278184891,0.883662700653076,492.277489891052,1,left,0.850497007369995,492.275940885544,604.484452953339,607.244452953339,1621538285.2666,1621538285.27065,1621538294.45336,1621538294.45525,1621538296.53747,1621538296.68753,1621538296.70514,1621538297.57274,1621538297.57119,1621538409.7797,1
19,19,1,2,27,2,4,c4_HowHand,2,lifting?,53,H_077.jpg,1621537802.53525,1621537802.54744,479.971352329254,9.16765666007996,489.158111562729,491.24222158432,0.3,492.592726221085,1.08373689651489,493.678123941422,3,right,1.06313395500183,493.676463117599,604.484452953339,607.244452953339,1621538285.2666,1621538285.27065,1621538294.45336,1621538294.45525,1621538296.53747,1621538297.88797,1621538297.88952,1621538298.97337,1621538298.97171,1621538409.7797,0
19,19,1,2,27,3,4,c4_HowHand,1,lifting?,52,H_189.jpg,1621537802.53525,1621537802.54744,479.971352329254,9.16765666007996,489.158111562729,491.24222158432,0.3,493.993247737885,0.900336742401123,494.895272006989,1,left,0.883538007736206,494.893584480286,604.484452953339,607.244452953339,1621538285.2666,1621538285.27065,1621538294.45336,1621538294.45525,1621538296.53747,1621538299.28849,1621538299.29013,1621538300.19052,1621538300.18883,1621538409.7797,1
19,19,1,2,27,4,4,c4_HowHand,1,lifting?,49,H_362.jpg,1621537802.53525,1621537802.54744,479.971352329254,9.16765666007996,489.158111562729,491.24222158432,0.3,495.210368862152,0.716934442520142,495.92901181221,1,left,0.701133966445923,495.927303304672,604.484452953339,607.244452953339,1621538285.2666,1621538285.27065,1621538294.45336,1621538294.45525,1621538296.53747,1621538300.50562,1621538300.50745,1621538301.22426,1621538301.22255,1621538409.7797,1
19,19,1,2,27,5,4,c4_HowHand,2,lifting?,55,H_012.jpg,1621537802.53525,1621537802.54744,479.971352329254,9.16765666007996,489.158111562729,491.24222158432,0.3,496.244086732864,0.7169349193573,496.962165822983,3,right,0.694210052490234,496.961021652222,604.484452953339,607.244452953339,1621538285.2666,1621538285.27065,1621538294.45336,1621538294.45525,1621538296.53747,1621538301.53933,1621538301.541,1621538302.25741,1621538302.25627,1621538409.7797,0
19,19,1,2,27,6,4,c4_HowHand,1,lifting?,50,H_443.jpg,1621537802.53525,1621537802.54744,479.971352329254,9.16765666007996,489.158111562729,491.24222158432,0.3,497.277806749344,0.733605623245239,498.012447824478,1,left,0.715999841690063,498.011412372589,604.484452953339,607.244452953339,1621538285.2666,1621538285.27065,1621538294.45336,1621538294.45525,1621538296.53747,1621538302.57305,1621538302.57504,1621538303.30769,1621538303.30666,1621538409.7797,1
19,19,1,2,27,7,4,c4_HowHand,1,lifting?,56,H_136.jpg,1621537802.53525,1621537802.54744,479.971352329254,9.16765666007996,489.158111562729,491.24222158432,0.3,498.328197946548,0.883663415908813,499.225137939453,3,right,0.874197959899902,499.211861362457,604.484452953339,607.244452953339,1621538285.2666,1621538285.27065,1621538294.45336,1621538294.45525,1621538296.53747,1621538303.62345,1621538303.62507,1621538304.52039,1621538304.50711,1621538409.7797,0
19,19,1,2,27,8,4,c4_HowHand,2,lifting?,51,H_038.jpg,1621537802.53525,1621537802.54744,479.971352329254,9.16765666007996,489.158111562729,491.24222158432,0.3,499.528645029068,1.23379397392273,500.763909807205,3,right,1.21909022331238,500.762439002991,604.484452953339,607.244452953339,1621538285.2666,1621538285.27065,1621538294.45336,1621538294.45525,1621538296.53747,1621538304.82389,1621538304.82546,1621538306.05916,1621538306.05769,1621538409.7797,0
