src_subject_id,session_id,run_id,param_counterbalance_ver,param_block_num,param_trial_num,param_cond_type_num,param_cond_type_string,param_normative_response,param_ques_type_string,param_image_num,param_image_filename,param_trigger_onset,param_start_biopac,event01_fixation,event01_fixation_dur,event01_blockquestion_onset,event01_block_isi_blacksreen,event01_blockquestion_dur,event02_image_onset,event02_image_dur,event03_response_onset,event03_response_key,event03_response_keyname,event03_RT,event04_shortquestion_onset,param_end_instruct_onset,param_experiment_duration,RAW_e1_fixation,RAW_e1_fixation_biopac,RAW_e1_blockquestion_onset,RAW_e1_blockquestion_onset_biopac,RAW_e1_block_isi_blacksreen,RAW_e2_image_onset,RAW_e2_image_onset_biopac,RAW_e3_response_onset,RAW_e4_shortquestion_onset,RAW_param_end_instruct_onset,accuracy
35,4,1,3,1,1,4,c4_HowHand,1,reaching?,107,H_007.jpg,1628521842.43307,1628521842.44456,0.0494530105590818,0.0282201766967773,0.0827987098693845,2.11689113616943,2.03409242630005,2.26694749832153,1.43386769294739,3.70740221977234,1,left,1.3990478515625,3.70081519126892,604.474857559204,607.234857559204,1628521845.24252,1628521845.24546,1628521845.27586,1628521845.28241,1628521847.30996,1628521847.46001,1628521847.46589,1628521848.90047,1628521848.89388,1628522449.66792,1
35,4,1,3,1,2,4,c4_HowHand,2,reaching?,108,H_532.jpg,1628521842.43307,1628521842.44456,0.0494530105590818,0.0282201766967773,0.0827987098693845,2.11689113616943,0.3,4.01760004997253,0.950353860855103,4.96986221313477,3,right,0.925780057907104,4.96795391082764,604.474857559204,607.234857559204,1628521845.24252,1628521845.24546,1628521845.27586,1628521845.28241,1628521847.30996,1628521849.21067,1628521849.21283,1628521850.16293,1628521850.16102,1628522449.66792,0
35,4,1,3,1,3,4,c4_HowHand,1,reaching?,109,H_474.jpg,1628521842.43307,1628521842.44456,0.0494530105590818,0.0282201766967773,0.0827987098693845,2.11689113616943,0.3,5.28473972320557,0.833643913269043,6.12276219367981,1,left,0.810277938842773,6.11838363647461,604.474857559204,607.234857559204,1628521845.24252,1628521845.24546,1628521845.27586,1628521845.28241,1628521847.30996,1628521850.47781,1628521850.48294,1628521851.31583,1628521851.31145,1628522449.66792,1
35,4,1,3,1,4,4,c4_HowHand,2,reaching?,105,H_438.jpg,1628521842.43307,1628521842.44456,0.0494530105590818,0.0282201766967773,0.0827987098693845,2.11689113616943,0.3,6.43516801834106,1.13375663757324,7.57303117752075,3,right,1.12126708030701,7.56892465591431,604.474857559204,607.234857559204,1628521845.24252,1628521845.24546,1628521845.27586,1628521845.28241,1628521847.30996,1628521851.62823,1628521851.63284,1628521852.7661,1628521852.76199,1628522449.66792,0
35,4,1,3,1,5,4,c4_HowHand,1,reaching?,110,H_364.jpg,1628521842.43307,1628521842.44456,0.0494530105590818,0.0282201766967773,0.0827987098693845,2.11689113616943,0.3,7.88570903778076,1.35050368309021,9.24007009506226,1,left,1.32344102859497,9.23621272087097,604.474857559204,607.234857559204,1628521845.24252,1628521845.24546,1628521845.27586,1628521845.28241,1628521847.30996,1628521853.07877,1628521853.08358,1628521854.43314,1628521854.42928,1628522449.66792,1
35,4,1,3,1,6,4,c4_HowHand,1,reaching?,106,H_006.jpg,1628521842.43307,1628521842.44456,0.0494530105590818,0.0282201766967773,0.0827987098693845,2.11689113616943,0.3,9.55299829483032,1.25046586990356,10.8057541751862,1,left,1.2300009727478,10.8034641647339,604.474857559204,607.234857559204,1628521845.24252,1628521845.24546,1628521845.27586,1628521845.28241,1628521847.30996,1628521854.74606,1628521854.74928,1628521855.99882,1628521855.99653,1628522449.66792,1
35,4,1,3,1,7,4,c4_HowHand,1,reaching?,111,H_003.jpg,1628521842.43307,1628521842.44456,0.0494530105590818,0.0282201766967773,0.0827987098693845,2.11689113616943,0.3,11.1202487850189,1.16710114479065,12.2893540763855,1,left,1.15903496742249,12.2873499298096,604.474857559204,607.234857559204,1628521845.24252,1628521845.24546,1628521845.27586,1628521845.28241,1628521847.30996,1628521856.31331,1628521856.31605,1628521857.48242,1628521857.48042,1628522449.66792,1
35,4,1,3,1,8,4,c4_HowHand,2,reaching?,112,H_132.jpg,1628521842.43307,1628521842.44456,0.0494530105590818,0.0282201766967773,0.0827987098693845,2.11689113616943,0.3,12.6041350269318,0.883663415908813,13.4888310337067,3,right,0.876013994216919,13.4877984428406,604.474857559204,607.234857559204,1628521845.24252,1628521845.24546,1628521845.27586,1628521845.28241,1628521847.30996,1628521857.7972,1628521857.79926,1628521858.6819,1628521858.68086,1628522449.66792,0
35,4,1,3,2,1,2,c2_WhyHand,1,healthy?,21,H_627.jpg,1628521842.43307,1628521842.44456,13.7212185764313,3.80996346473694,17.5393092536926,19.6400923633575,2.10078310966492,19.7901482486725,0.983700513839722,20.7753951454163,1,left,0.965861082077026,20.7738487625122,604.474857559204,607.234857559204,1628521858.91428,1628521858.91575,1628521862.73238,1628521862.7343,1628521864.83316,1628521864.98321,1628521864.98523,1628521865.96846,1628521865.96691,1628522449.66792,1
35,4,1,3,2,2,2,c2_WhyHand,1,healthy?,18,H_438.jpg,1628521842.43307,1628521842.44456,13.7212185764313,3.80996346473694,17.5393092536926,19.6400923633575,0.3,21.0906338596344,1.00037264823914,22.0924830341339,1,left,0.982822179794312,22.0910065078735,604.474857559204,607.234857559204,1628521858.91428,1628521858.91575,1628521862.73238,1628521862.7343,1628521864.83316,1628521866.2837,1628521866.28512,1628521867.28555,1628521867.28407,1628522449.66792,1
35,4,1,3,2,3,2,c2_WhyHand,1,healthy?,23,H_364.jpg,1628521842.43307,1628521842.44456,13.7212185764313,3.80996346473694,17.5393092536926,19.6400923633575,0.3,22.4077913665771,1.35050249099731,23.7723081016541,1,left,1.34251499176025,23.7582938575745,604.474857559204,607.234857559204,1628521858.91428,1628521858.91575,1628521862.73238,1628521862.7343,1628521864.83316,1628521867.60086,1628521867.60309,1628521868.96537,1628521868.95136,1628522449.66792,1
35,4,1,3,2,4,2,c2_WhyHand,2,healthy?,22,H_130.jpg,1628521842.43307,1628521842.44456,13.7212185764313,3.80996346473694,17.5393092536926,19.6400923633575,0.3,24.0750796699524,0.0166735649108887,24.0933492088318,1,left,0.000233173370361328,24.0917532348633,604.474857559204,607.234857559204,1628521858.91428,1628521858.91575,1628521862.73238,1628521862.7343,1628521864.83316,1628521869.26815,1628521869.27006,1628521869.28642,1628521869.28482,1628522449.66792,0
35,4,1,3,2,5,2,c2_WhyHand,1,healthy?,17,H_362.jpg,1628521842.43307,1628521842.44456,13.7212185764313,3.80996346473694,17.5393092536926,19.6400923633575,0.3,24.4085366630554,0.933682441711426,25.343893995285,1,left,0.91435718536377,25.3422191047668,604.474857559204,607.234857559204,1628521858.91428,1628521858.91575,1628521862.73238,1628521862.7343,1628521864.83316,1628521869.6016,1628521869.6036,1628521870.53696,1628521870.53528,1628522449.66792,1
35,4,1,3,2,6,2,c2_WhyHand,2,healthy?,20,H_007.jpg,1628521842.43307,1628521842.44456,13.7212185764313,3.80996346473694,17.5393092536926,19.6400923633575,0.3,25.6590039634705,0.933681488037109,26.5937120819092,3,right,0.914689779281616,26.5926854515076,604.474857559204,607.234857559204,1628521858.91428,1628521858.91575,1628521862.73238,1628521862.7343,1628521864.83316,1628521870.85207,1628521870.85337,1628521871.78678,1628521871.78575,1628522449.66792,0
35,4,1,3,2,7,2,c2_WhyHand,1,healthy?,19,H_167.jpg,1628521842.43307,1628521842.44456,13.7212185764313,3.80996346473694,17.5393092536926,19.6400923633575,0.3,26.9094705486298,0.81697154045105,27.7281200790405,1,left,0.795097827911377,27.7264420890808,604.474857559204,607.234857559204,1628521858.91428,1628521858.91575,1628521862.73238,1628521862.7343,1628521864.83316,1628521872.10254,1628521872.10417,1628521872.92119,1628521872.91951,1628522449.66792,1
35,4,1,3,2,8,2,c2_WhyHand,2,healthy?,24,H_019.jpg,1628521842.43307,1628521842.44456,13.7212185764313,3.80996346473694,17.5393092536926,19.6400923633575,0.3,28.0432262325287,0.983699560165405,29.0288200283051,3,right,0.961168050765991,29.0269257926941,604.474857559204,607.234857559204,1628521858.91428,1628521858.91575,1628521862.73238,1628521862.7343,1628521864.83316,1628521873.23629,1628521873.23783,1628521874.22189,1628521874.21999,1628522449.66792,0
35,4,1,3,3,1,1,c1_WhyFace,1,admiring?,4,F_779.jpg,1628521842.43307,1628521842.44456,29.1269640827179,7.51220011711121,36.6464345359802,38.7472178840637,2.1007833480835,38.8972742462158,0.683587551116943,39.5825981998444,1,left,0.658277988433838,39.5808617973328,604.474857559204,607.234857559204,1628521874.32003,1628521874.322,1628521881.8395,1628521881.85011,1628521883.94028,1628521884.09034,1628521884.09954,1628521884.77566,1628521884.77393,1628522449.66792,1
35,4,1,3,3,2,1,c1_WhyFace,1,admiring?,1,F_593.jpg,1628521842.43307,1628521842.44456,29.1269640827179,7.51220011711121,36.6464345359802,38.7472178840637,0.3,39.897646894455,0.900336265563965,40.8062941932678,1,left,0.886482954025269,40.7979831600189,604.474857559204,607.234857559204,1628521874.32003,1628521874.322,1628521881.8395,1628521881.85011,1628521883.94028,1628521885.09071,1628521885.09258,1628521885.99936,1628521885.99105,1628522449.66792,1
35,4,1,3,3,3,1,c1_WhyFace,2,admiring?,3,F_110.jpg,1628521842.43307,1628521842.44456,29.1269640827179,7.51220011711121,36.6464345359802,38.7472178840637,0.3,41.1147682571411,1.05039048194885,42.172941198349,3,right,1.03940916061401,42.16515873909,604.474857559204,607.234857559204,1628521874.32003,1628521874.322,1628521881.8395,1628521881.85011,1628521883.94028,1628521886.30783,1628521886.30985,1628521887.36601,1628521887.35822,1628522449.66792,0
35,4,1,3,3,4,1,c1_WhyFace,1,admiring?,8,F_590.jpg,1628521842.43307,1628521842.44456,29.1269640827179,7.51220011711121,36.6464345359802,38.7472178840637,0.3,42.4819440746307,0.883663415908813,43.3673090839386,1,left,0.863527059555054,43.3656074905396,604.474857559204,607.234857559204,1628521874.32003,1628521874.322,1628521881.8395,1628521881.85011,1628521883.94028,1628521887.67501,1628521887.67698,1628521888.56037,1628521888.55867,1628522449.66792,1
35,4,1,3,3,5,1,c1_WhyFace,2,admiring?,6,F_692.jpg,1628521842.43307,1628521842.44456,29.1269640827179,7.51220011711121,36.6464345359802,38.7472178840637,0.3,43.6823928260803,1.35050296783447,45.0396261119843,3,right,1.33186912536621,45.0328957939148,604.474857559204,607.234857559204,1628521874.32003,1628521874.322,1628521881.8395,1628521881.85011,1628521883.94028,1628521888.87546,1628521888.87756,1628521890.23269,1628521890.22596,1628522449.66792,0
35,4,1,3,3,6,1,c1_WhyFace,1,admiring?,5,F_759.jpg,1628521842.43307,1628521842.44456,29.1269640827179,7.51220011711121,36.6464345359802,38.7472178840637,0.3,45.3496794605255,0.967027425765991,46.3223490619659,1,left,0.954877138137817,46.3167068862915,604.474857559204,607.234857559204,1628521874.32003,1628521874.322,1628521881.8395,1628521881.85011,1628521883.94028,1628521890.54275,1628521890.54436,1628521891.51541,1628521891.50977,1628522449.66792,1
35,4,1,3,3,7,1,c1_WhyFace,1,admiring?,7,F_648.jpg,1628521842.43307,1628521842.44456,29.1269640827179,7.51220011711121,36.6464345359802,38.7472178840637,0.3,46.6334915065765,0.816972732543945,47.4556720161438,1,left,0.800189971923828,47.4504642391205,604.474857559204,607.234857559204,1628521874.32003,1628521874.322,1628521881.8395,1628521881.85011,1628521883.94028,1628521891.82656,1628521891.82807,1628521892.64874,1628521892.64353,1628522449.66792,1
35,4,1,3,3,8,1,c1_WhyFace,2,admiring?,2,F_129.jpg,1628521842.43307,1628521842.44456,29.1269640827179,7.51220011711121,36.6464345359802,38.7472178840637,0.3,47.7672479057312,1.00037264823914,48.7723450565338,3,right,0.98179292678833,48.7676205539703,604.474857559204,607.234857559204,1628521874.32003,1628521874.322,1628521881.8395,1628521881.85011,1628521883.94028,1628521892.96031,1628521892.96228,1628521893.96541,1628521893.96069,1628522449.66792,0
35,4,1,3,4,1,3,c3_HowFace,1,smiling?,119,F_139.jpg,1628521842.43307,1628521842.44456,48.8509857559204,6.75215029716492,55.6201770210266,57.720959892273,2.10078287124634,57.8710162544251,1.08373808860779,58.9560542011261,1,left,1.07371807098389,58.9547543430328,604.474857559204,607.234857559204,1628521894.04405,1628521894.04958,1628521900.81324,1628521900.81678,1628521902.91403,1628521903.06408,1628521903.06587,1628521904.14912,1628521904.14782,1628522449.66792,1
35,4,1,3,4,2,3,c3_HowFace,2,smiling?,113,F_712.jpg,1628521842.43307,1628521842.44456,48.8509857559204,6.75215029716492,55.6201770210266,57.720959892273,0.3,59.2715392017365,0.800297975540161,60.0732951068878,3,right,0.792402982711792,60.0718371772766,604.474857559204,607.234857559204,1628521894.04405,1628521894.04958,1628521900.81324,1628521900.81678,1628521902.91403,1628521904.46461,1628521904.46618,1628521905.26636,1628521905.2649,1628522449.66792,0
35,4,1,3,4,3,3,c3_HowFace,1,smiling?,115,F_695.jpg,1628521842.43307,1628521842.44456,48.8509857559204,6.75215029716492,55.6201770210266,57.720959892273,0.3,60.3886222743988,0.700260877609253,61.0899691486359,1,left,0.685092926025391,61.0888831520081,604.474857559204,607.234857559204,1628521894.04405,1628521894.04958,1628521900.81324,1628521900.81678,1628521902.91403,1628521905.58169,1628521905.58339,1628521906.28304,1628521906.28195,1628522449.66792,1
35,4,1,3,4,4,3,c3_HowFace,2,smiling?,120,F_758.jpg,1628521842.43307,1628521842.44456,48.8509857559204,6.75215029716492,55.6201770210266,57.720959892273,0.3,61.4056684875488,0.683588027954102,62.0909480953217,3,right,0.662382841110229,62.0892565155029,604.474857559204,607.234857559204,1628521894.04405,1628521894.04958,1628521900.81324,1628521900.81678,1628521902.91403,1628521906.59873,1628521906.60028,1628521907.28401,1628521907.28232,1628522449.66792,0
35,4,1,3,4,5,3,c3_HowFace,1,smiling?,116,F_083.jpg,1628521842.43307,1628521842.44456,48.8509857559204,6.75215029716492,55.6201770210266,57.720959892273,0.3,62.4060406589508,0.516859292984009,62.9395391845703,1,left,0.509259939193726,62.9228999519348,604.474857559204,607.234857559204,1628521894.04405,1628521894.04958,1628521900.81324,1628521900.81678,1628521902.91403,1628521907.59911,1628521907.60074,1628521908.13261,1628521908.11597,1628522449.66792,1
35,4,1,3,4,6,3,c3_HowFace,1,smiling?,118,F_759.jpg,1628521842.43307,1628521842.44456,48.8509857559204,6.75215029716492,55.6201770210266,57.720959892273,0.3,63.2396848106384,0.900336503982544,64.1411371135712,1,left,0.879812955856323,64.140021314621,604.474857559204,607.234857559204,1628521894.04405,1628521894.04958,1628521900.81324,1628521900.81678,1628521902.91403,1628521908.43275,1628521908.43475,1628521909.3342,1628521909.33309,1628522449.66792,1
35,4,1,3,4,7,3,c3_HowFace,2,smiling?,114,F_412.jpg,1628521842.43307,1628521842.44456,48.8509857559204,6.75215029716492,55.6201770210266,57.720959892273,0.3,64.4568061733246,0.716933727264404,65.1751470470428,3,right,0.698769092559814,65.173739900589,604.474857559204,607.234857559204,1628521894.04405,1628521894.04958,1628521900.81324,1628521900.81678,1628521902.91403,1628521909.64987,1628521909.65123,1628521910.36821,1628521910.36681,1628522449.66792,0
35,4,1,3,4,8,3,c3_HowFace,1,smiling?,117,F_593.jpg,1628521842.43307,1628521842.44456,48.8509857559204,6.75215029716492,55.6201770210266,57.720959892273,0.3,65.4905242824554,0.650241851806641,66.1418750190735,1,left,0.631899118423462,66.1407661342621,604.474857559204,607.234857559204,1628521894.04405,1628521894.04958,1628521900.81324,1628521900.81678,1628521902.91403,1628521910.68359,1628521910.68562,1628521911.33494,1628521911.33383,1628522449.66792,1
35,4,1,3,5,1,4,c4_HowHand,1,lifting?,56,H_136.jpg,1628521842.43307,1628521842.44456,66.2074592018127,6.92637586593628,73.1433780097961,75.2441625499725,2.10078454017639,75.3942177200317,1.11708307266235,76.5228340530395,1,left,1.10653710365295,76.5113007926941,604.474857559204,607.234857559204,1628521911.40053,1628521911.40317,1628521918.33644,1628521918.35089,1628521920.43723,1628521920.58728,1628521920.58945,1628521921.7159,1628521921.70437,1628522449.66792,1
35,4,1,3,5,2,4,c4_HowHand,2,lifting?,51,H_038.jpg,1628521842.43307,1628521842.44456,66.2074592018127,6.92637586593628,73.1433780097961,75.2441625499725,0.3,76.8280858898163,1.0670645236969,77.8966121578217,3,right,1.04959011077881,77.8951504135132,604.474857559204,607.234857559204,1628521911.40053,1628521911.40317,1628521918.33644,1628521918.35089,1628521920.43723,1628521922.02115,1628521922.02233,1628521923.08968,1628521923.08822,1628522449.66792,0
35,4,1,3,5,3,4,c4_HowHand,1,lifting?,52,H_189.jpg,1628521842.43307,1628521842.44456,66.2074592018127,6.92637586593628,73.1433780097961,75.2441625499725,0.3,78.2119347953796,1.35050415992737,79.5642290019989,1,left,1.32987809181213,79.562438955307,604.474857559204,607.234857559204,1628521911.40053,1628521911.40317,1628521918.33644,1628521918.35089,1628521920.43723,1628521923.405,1628521923.40685,1628521924.75729,1628521924.7555,1628522449.66792,1
35,4,1,3,5,4,4,c4_HowHand,2,lifting?,53,H_077.jpg,1628521842.43307,1628521842.44456,66.2074592018127,6.92637586593628,73.1433780097961,75.2441625499725,0.3,79.8792240524292,1.15042853355408,81.0307531261444,3,right,1.12853407859802,81.0296525859833,604.474857559204,607.234857559204,1628521911.40053,1628521911.40317,1628521918.33644,1628521918.35089,1628521920.43723,1628521925.07229,1628521925.07425,1628521926.22382,1628521926.22272,1628522449.66792,0
35,4,1,3,5,5,4,c4_HowHand,1,lifting?,50,H_443.jpg,1628521842.43307,1628521842.44456,66.2074592018127,6.92637586593628,73.1433780097961,75.2441625499725,0.3,81.3464369678497,1.1337571144104,82.4890510940552,1,left,1.12325406074524,82.4801940822601,604.474857559204,607.234857559204,1628521911.40053,1628521911.40317,1628521918.33644,1628521918.35089,1628521920.43723,1628521926.5395,1628521926.5408,1628521927.68212,1628521927.67326,1628522449.66792,1
35,4,1,3,5,6,4,c4_HowHand,2,lifting?,55,H_012.jpg,1628521842.43307,1628521842.44456,66.2074592018127,6.92637586593628,73.1433780097961,75.2441625499725,0.3,82.7969789409637,0.983700275421143,83.7816851043701,3,right,0.964958906173706,83.7806792163849,604.474857559204,607.234857559204,1628521911.40053,1628521911.40317,1628521918.33644,1628521918.35089,1628521920.43723,1628521927.99004,1628521927.99184,1628521928.97475,1628521928.97375,1628522449.66792,0
35,4,1,3,5,7,4,c4_HowHand,1,lifting?,49,H_362.jpg,1628521842.43307,1628521842.44456,66.2074592018127,6.92637586593628,73.1433780097961,75.2441625499725,0.3,84.0974635982513,0.816971302032471,84.9158601665497,1,left,0.79946494102478,84.9144349002838,604.474857559204,607.234857559204,1628521911.40053,1628521911.40317,1628521918.33644,1628521918.35089,1628521920.43723,1628521929.29053,1628521929.29209,1628521930.10893,1628521930.1075,1628522449.66792,1
35,4,1,3,5,8,4,c4_HowHand,1,lifting?,54,H_170.jpg,1628521842.43307,1628521842.44456,66.2074592018127,6.92637586593628,73.1433780097961,75.2441625499725,0.3,85.2312197589874,0.900335311889648,86.139423122406,3,right,0.885576963424683,86.1315550708771,604.474857559204,607.234857559204,1628521911.40053,1628521911.40317,1628521918.33644,1628521918.35089,1628521920.43723,1628521930.42429,1628521930.42599,1628521931.33249,1628521931.32462,1628522449.66792,0
35,4,1,3,6,1,2,c2_WhyHand,1,helping?,38,H_077.jpg,1628521842.43307,1628521842.44456,86.2315916919708,9.38336849212646,95.6350989246368,97.7192103767395,2.08411145210266,97.8692660236359,1.28381252288818,99.1562390232086,1,left,1.26327896118164,99.153078546524,604.474857559204,607.234857559204,1628521931.42466,1628521931.43273,1628521940.82816,1628521940.83014,1628521942.91228,1628521943.06233,1628521943.06655,1628521944.3493,1628521944.34614,1628522449.66792,1
35,4,1,3,6,2,2,c2_WhyHand,1,helping?,36,H_349.jpg,1628521842.43307,1628521842.44456,86.2315916919708,9.38336849212646,95.6350989246368,97.7192103767395,0.3,99.4698631668091,1.01704573631287,100.489734163284,1,left,1.00057697296143,100.486908903122,604.474857559204,607.234857559204,1628521931.42466,1628521931.43273,1628521940.82816,1628521940.83014,1628521942.91228,1628521944.66293,1628521944.66604,1628521945.6828,1628521945.67997,1628522449.66792,1
35,4,1,3,6,3,2,c2_WhyHand,1,helping?,37,H_474.jpg,1628521842.43307,1628521842.44456,86.2315916919708,9.38336849212646,95.6350989246368,97.7192103767395,0.3,100.803693523407,0.0166728496551514,100.823181142807,1,left,0.000371932983398438,100.820366373062,604.474857559204,607.234857559204,1628521931.42466,1628521931.43273,1628521940.82816,1628521940.83014,1628521942.91228,1628521945.99676,1628521945.99981,1628521946.01625,1628521946.01343,1628522449.66792,1
35,4,1,3,6,4,2,c2_WhyHand,1,helping?,39,H_024.jpg,1628521842.43307,1628521842.44456,86.2315916919708,9.38336849212646,95.6350989246368,97.7192103767395,0.3,101.137151470184,1.71730709075928,103.008846035004,1,left,1.85042495727539,102.854458560944,604.474857559204,607.234857559204,1628521931.42466,1628521931.43273,1628521940.82816,1628521940.83014,1628521942.91228,1628521946.33022,1628521946.33299,1628521948.20191,1628521948.04752,1628522449.66792,1
35,4,1,3,6,5,2,c2_WhyHand,2,helping?,40,H_012.jpg,1628521842.43307,1628521842.44456,86.2315916919708,9.38336849212646,95.6350989246368,97.7192103767395,0.3,103.17124294281,0.0166738033294678,103.189355125427,1,left,0.000231027603149414,103.18791674614,604.474857559204,607.234857559204,1628521931.42466,1628521931.43273,1628521940.82816,1628521940.83014,1628521942.91228,1628521948.36431,1628521948.36582,1628521948.38242,1628521948.38098,1628522449.66792,0
35,4,1,3,6,6,2,c2_WhyHand,2,helping?,35,H_159.jpg,1628521842.43307,1628521842.44456,86.2315916919708,9.38336849212646,95.6350989246368,97.7192103767395,0.3,103.504701366425,1.66728782653809,105.173085203171,3,right,1.65055108070374,105.171989192963,604.474857559204,607.234857559204,1628521931.42466,1628521931.43273,1628521940.82816,1628521940.83014,1628521942.91228,1628521948.69777,1628521948.69952,1628521950.36615,1628521950.36506,1628522449.66792,0
35,4,1,3,6,7,2,c2_WhyHand,1,helping?,34,H_111.jpg,1628521842.43307,1628521842.44456,86.2315916919708,9.38336849212646,95.6350989246368,97.7192103767395,0.3,105.488774051666,0.933682203292847,106.424140205383,1,left,0.911796808242798,106.422456254959,604.474857559204,607.234857559204,1628521931.42466,1628521931.43273,1628521940.82816,1628521940.83014,1628521942.91228,1628521950.68184,1628521950.68328,1628521951.61721,1628521951.61552,1628522449.66792,1
35,4,1,3,6,8,2,c2_WhyHand,2,helping?,33,H_091.jpg,1628521842.43307,1628521842.44456,86.2315916919708,9.38336849212646,95.6350989246368,97.7192103767395,0.3,106.739241113663,1.05039095878601,107.79065202713,3,right,1.02827000617981,107.789632072449,604.474857559204,607.234857559204,1628521931.42466,1628521931.43273,1628521940.82816,1628521940.83014,1628521942.91228,1628521951.93231,1628521951.93414,1628521952.98372,1628521952.9827,1628522449.66792,0
35,4,1,3,7,1,1,c1_WhyFace,1,proud?,104,F_598.jpg,1628521842.43307,1628521842.44456,107.856322994232,5.63363814353943,113.508432378769,115.592542161942,2.08410978317261,115.742598047256,1.33383107185364,117.08907913208,1,left,1.3110728263855,117.07642911911,604.474857559204,607.234857559204,1628521953.04939,1628521953.05095,1628521958.7015,1628521958.70412,1628521960.78561,1628521960.93566,1628521960.94951,1628521962.28215,1628521962.2695,1628522449.66792,1
35,4,1,3,7,2,1,c1_WhyFace,2,proud?,102,F_760.jpg,1628521842.43307,1628521842.44456,107.856322994232,5.63363814353943,113.508432378769,115.592542161942,0.3,117.393213500977,0.96702766418457,118.372301092148,3,right,0.959814071655273,118.360241165161,604.474857559204,607.234857559204,1628521953.04939,1628521953.05095,1628521958.7015,1628521958.70412,1628521960.78561,1628521962.58628,1628521962.58805,1628521963.56537,1628521963.55331,1628522449.66792,0
35,4,1,3,7,3,1,c1_WhyFace,1,proud?,97,F_582.jpg,1628521842.43307,1628521842.44456,107.856322994232,5.63363814353943,113.508432378769,115.592542161942,0.3,118.677024831772,0.983701229095459,119.662418117523,1,left,0.963238954544067,119.660726060867,604.474857559204,607.234857559204,1628521953.04939,1628521953.05095,1628521958.7015,1628521958.70412,1628521960.78561,1628521963.87009,1628521963.87182,1628521964.85548,1628521964.85379,1628522449.66792,1
35,4,1,3,7,4,1,c1_WhyFace,2,proud?,98,F_412.jpg,1628521842.43307,1628521842.44456,107.856322994232,5.63363814353943,113.508432378769,115.592542161942,0.3,119.977511396408,0.716933965682983,120.705632200241,3,right,0.709157943725586,120.694445362091,604.474857559204,607.234857559204,1628521953.04939,1628521953.05095,1628521958.7015,1628521958.70412,1628521960.78561,1628521965.17058,1628521965.17216,1628521965.8987,1628521965.88751,1628522449.66792,0
35,4,1,3,7,5,1,c1_WhyFace,1,proud?,101,F_083.jpg,1628521842.43307,1628521842.44456,107.856322994232,5.63363814353943,113.508432378769,115.592542161942,0.3,121.011229028702,0.933682441711426,121.946059217453,1,left,0.912221908569336,121.944911470413,604.474857559204,607.234857559204,1628521953.04939,1628521953.05095,1628521958.7015,1628521958.70412,1628521960.78561,1628521966.20429,1628521966.20604,1628521967.13913,1628521967.13798,1628522449.66792,1
35,4,1,3,7,6,1,c1_WhyFace,2,proud?,100,F_776.jpg,1628521842.43307,1628521842.44456,107.856322994232,5.63363814353943,113.508432378769,115.592542161942,0.3,122.261695613861,1.15042972564697,123.413641204834,3,right,1.12733316421509,123.412125339508,604.474857559204,607.234857559204,1628521953.04939,1628521953.05095,1628521958.7015,1628521958.70412,1628521960.78561,1628521967.45476,1628521967.45635,1628521968.60671,1628521968.60519,1628522449.66792,0
35,4,1,3,7,7,1,c1_WhyFace,1,proud?,103,F_618.jpg,1628521842.43307,1628521842.44456,107.856322994232,5.63363814353943,113.508432378769,115.592542161942,0.3,123.728909959793,1.16710257530212,124.897225131989,1,left,1.14896297454834,124.896012535095,604.474857559204,607.234857559204,1628521953.04939,1628521953.05095,1628521958.7015,1628521958.70412,1628521960.78561,1628521968.92198,1628521968.92385,1628521970.09029,1628521970.08908,1628522449.66792,1
35,4,1,3,7,8,1,c1_WhyFace,1,proud?,99,F_695.jpg,1628521842.43307,1628521842.44456,107.856322994232,5.63363814353943,113.508432378769,115.592542161942,0.3,125.212796201706,1.33382987976074,126.547634115219,1,left,1.31593990325928,126.546626081467,604.474857559204,607.234857559204,1628521953.04939,1628521953.05095,1628521958.7015,1628521958.70412,1628521960.78561,1628521970.40586,1628521970.40747,1628521971.7407,1628521971.73969,1628522449.66792,1
35,4,1,3,8,1,3,c3_HowFace,1,looking to side?,72,F_590.jpg,1628521842.43307,1628521842.44456,126.613317956924,4.40668106079102,131.03163312912,133.132416238785,2.10078310966492,133.282471885681,1.00037360191345,134.289044132233,1,left,0.985562086105347,134.282845487595,604.474857559204,607.234857559204,1628521971.80638,1628521971.80799,1628521976.2247,1628521976.2328,1628521978.32548,1628521978.47554,1628521978.48259,1628521979.48211,1628521979.47591,1628522449.66792,1
35,4,1,3,8,2,3,c3_HowFace,1,looking to side?,71,F_433.jpg,1628521842.43307,1628521842.44456,126.613317956924,4.40668106079102,131.03163312912,133.132416238785,0.3,134.599630584717,0.0166730880737305,134.622744073868,1,left,0.000311136245727539,134.616303672791,604.474857559204,607.234857559204,1628521971.80638,1628521971.80799,1628521976.2247,1628521976.2328,1628521978.32548,1628521979.7927,1628521979.79448,1628521979.81581,1628521979.80937,1628522449.66792,1
35,4,1,3,8,3,3,c3_HowFace,1,looking to side?,67,F_716.jpg,1628521842.43307,1628521842.44456,126.613317956924,4.40668106079102,131.03163312912,133.132416238785,0.3,134.933088054657,0.883662700653076,135.82221912384,1,left,0.876403093338013,135.81675075531,604.474857559204,607.234857559204,1628521971.80638,1628521971.80799,1628521976.2247,1628521976.2328,1628521978.32548,1628521980.12615,1628521980.12809,1628521981.01529,1628521981.00982,1628522449.66792,1
35,4,1,3,8,4,3,c3_HowFace,2,looking to side?,70,F_779.jpg,1628521842.43307,1628521842.44456,126.613317956924,4.40668106079102,131.03163312912,133.132416238785,0.3,136.133535137177,0.933681964874268,137.072297086716,1,left,0.925794124603271,137.067217102051,604.474857559204,607.234857559204,1628521971.80638,1628521971.80799,1628521976.2247,1628521976.2328,1628521978.32548,1628521981.3266,1628521981.32815,1628521982.26536,1628521982.26028,1628522449.66792,0
35,4,1,3,8,5,3,c3_HowFace,1,looking to side?,68,F_760.jpg,1628521842.43307,1628521842.44456,126.613317956924,4.40668106079102,131.03163312912,133.132416238785,0.3,137.384001960754,1.26713943481445,138.655603160858,1,left,1.25471115112305,138.651141395569,604.474857559204,607.234857559204,1628521971.80638,1628521971.80799,1628521976.2247,1628521976.2328,1628521978.32548,1628521982.57707,1628521982.57893,1628521983.84867,1628521983.84421,1628522449.66792,1
35,4,1,3,8,6,3,c3_HowFace,2,looking to side?,66,F_111.jpg,1628521842.43307,1628521842.44456,126.613317956924,4.40668106079102,131.03163312912,133.132416238785,0.3,138.967926254272,1.01704573631287,139.988898029327,3,right,1.00843715667725,139.984971990585,604.474857559204,607.234857559204,1628521971.80638,1628521971.80799,1628521976.2247,1628521976.2328,1628521978.32548,1628521984.16099,1628521984.16257,1628521985.18196,1628521985.17804,1628522449.66792,0
35,4,1,3,8,7,3,c3_HowFace,1,looking to side?,69,F_110.jpg,1628521842.43307,1628521842.44456,126.613317956924,4.40668106079102,131.03163312912,133.132416238785,0.3,140.301755657196,0.783626079559326,141.089717140198,1,left,0.770626068115234,141.085381736755,604.474857559204,607.234857559204,1628521971.80638,1628521971.80799,1628521976.2247,1628521976.2328,1628521978.32548,1628521985.49482,1628521985.49926,1628521986.28278,1628521986.27845,1628522449.66792,1
35,4,1,3,8,8,3,c3_HowFace,2,looking to side?,65,F_798.jpg,1628521842.43307,1628521842.44456,126.613317956924,4.40668106079102,131.03163312912,133.132416238785,0.3,141.402167549133,1.1837739944458,142.587140073776,3,right,1.15901017189026,142.585941543579,604.474857559204,607.234857559204,1628521971.80638,1628521971.80799,1628521976.2247,1628521976.2328,1628521978.32548,1628521986.59523,1628521986.59934,1628521987.78021,1628521987.77901,1628522449.66792,0
35,4,1,3,9,1,1,c1_WhyFace,1,argument?,43,F_716.jpg,1628521842.43307,1628521842.44456,142.652634372711,7.47550773620605,150.138759126663,152.239542236328,2.10078310966492,152.389598836899,0.983698844909668,153.37494515419,1,left,0.967201948165894,153.373297681808,604.474857559204,607.234857559204,1628521987.8457,1628521987.84866,1628521995.33183,1628521995.33356,1628521997.43261,1628521997.58266,1628521997.58399,1628521998.56801,1628521998.56636,1628522449.66792,1
35,4,1,3,9,2,1,c1_WhyFace,2,argument?,44,F_139.jpg,1628521842.43307,1628521842.44456,142.652634372711,7.47550773620605,150.138759126663,152.239542236328,0.3,153.690083255768,0.766952037811279,154.473017206192,3,right,0.760127067565918,154.457035293579,604.474857559204,607.234857559204,1628521987.8457,1628521987.84866,1628521995.33183,1628521995.33356,1628521997.43261,1628521998.88315,1628521998.88473,1628521999.66608,1628521999.6501,1628522449.66792,0
35,4,1,3,9,3,1,c1_WhyFace,1,argument?,41,F_712.jpg,1628521842.43307,1628521842.44456,142.652634372711,7.47550773620605,150.138759126663,152.239542236328,0.3,154.773820152283,0.917008638381958,155.692526092529,1,left,0.894103765487671,155.690828790665,604.474857559204,607.234857559204,1628521987.8457,1628521987.84866,1628521995.33183,1628521995.33356,1628521997.43261,1628521999.96689,1628521999.96848,1628522000.88559,1628522000.88389,1628522449.66792,1
35,4,1,3,9,4,1,c1_WhyFace,2,argument?,45,F_433.jpg,1628521842.43307,1628521842.44456,142.652634372711,7.47550773620605,150.138759126663,152.239542236328,0.3,156.007612934113,1.00037312507629,157.022482147217,3,right,0.989861965179443,157.007986059189,604.474857559204,607.234857559204,1628521987.8457,1628521987.84866,1628521995.33183,1628521995.33356,1628521997.43261,1628522001.20068,1628522001.2028,1628522002.21555,1628522002.20105,1628522449.66792,0
35,4,1,3,9,5,1,c1_WhyFace,1,argument?,42,F_403.jpg,1628521842.43307,1628521842.44456,142.652634372711,7.47550773620605,150.138759126663,152.239542236328,0.3,157.324772348404,0.716933250427246,158.042745103836,1,left,0.697654962539673,158.041705598831,604.474857559204,607.234857559204,1628521987.8457,1628521987.84866,1628521995.33183,1628521995.33356,1628521997.43261,1628522002.51784,1628522002.5195,1628522003.23581,1628522003.23477,1628522449.66792,1
35,4,1,3,9,6,1,c1_WhyFace,2,argument?,46,F_844.jpg,1628521842.43307,1628521842.44456,142.652634372711,7.47550773620605,150.138759126663,152.239542236328,0.3,158.358490457535,0.833643198013306,159.206019153595,3,right,0.824847936630249,159.192133655548,604.474857559204,607.234857559204,1628521987.8457,1628521987.84866,1628521995.33183,1628521995.33356,1628521997.43261,1628522003.55156,1628522003.553,1628522004.39909,1628522004.3852,1628522449.66792,0
35,4,1,3,9,7,1,c1_WhyFace,1,argument?,47,F_743.jpg,1628521842.43307,1628521842.44456,142.652634372711,7.47550773620605,150.138759126663,152.239542236328,0.3,159.508919944763,0.833644151687622,160.343571176529,1,left,0.816601991653442,160.342564096451,604.474857559204,607.234857559204,1628521987.8457,1628521987.84866,1628521995.33183,1628521995.33356,1628521997.43261,1628522004.70199,1628522004.70383,1628522005.53664,1628522005.53563,1628522449.66792,1
35,4,1,3,9,8,1,c1_WhyFace,1,argument?,48,F_758.jpg,1628521842.43307,1628521842.44456,142.652634372711,7.47550773620605,150.138759126663,152.239542236328,0.3,160.659348478317,0.933681964874268,161.594404211044,1,left,0.920171976089478,161.593030443192,604.474857559204,607.234857559204,1628521987.8457,1628521987.84866,1628521995.33183,1628521995.33356,1628521997.43261,1628522005.85241,1628522005.85429,1628522006.78747,1628522006.7861,1628522449.66792,1
35,4,1,3,10,1,3,c3_HowFace,1,open mouth?,80,F_844.jpg,1628521842.43307,1628521842.44456,161.659721126556,6.30817103385925,167.978745212555,170.07952832222,2.10078310966492,170.229583969116,0.616897106170654,170.856218090057,1,left,0.606881856918335,170.846481075287,604.474857559204,607.234857559204,1628522006.85279,1628522006.85377,1628522013.17181,1628522013.17337,1628522015.27259,1628522015.42265,1628522015.42447,1628522016.04928,1628522016.03955,1628522449.66792,1
35,4,1,3,10,2,3,c3_HowFace,1,open mouth?,74,F_776.jpg,1628521842.43307,1628521842.44456,161.659721126556,6.30817103385925,167.978745212555,170.07952832222,0.3,171.163266649246,0.85031533241272,172.023002138138,1,left,0.84080696105957,172.013581981659,604.474857559204,607.234857559204,1628522006.85279,1628522006.85377,1628522013.17181,1628522013.17337,1628522015.27259,1628522016.35633,1628522016.35784,1628522017.21607,1628522017.20665,1628522449.66792,1
35,4,1,3,10,3,3,c3_HowFace,2,open mouth?,76,F_544.jpg,1628521842.43307,1628521842.44456,161.659721126556,6.30817103385925,167.978745212555,170.07952832222,0.3,172.330368270874,0.783624410629272,173.12231420517,3,right,0.768336057662964,173.113992681503,604.474857559204,607.234857559204,1628522006.85279,1628522006.85377,1628522013.17181,1628522013.17337,1628522015.27259,1628522017.52343,1628522017.52471,1628522018.31538,1628522018.30706,1628522449.66792,0
35,4,1,3,10,4,3,c3_HowFace,1,open mouth?,78,F_692.jpg,1628521842.43307,1628521842.44456,161.659721126556,6.30817103385925,167.978745212555,170.07952832222,0.3,173.430777540207,0.5668785572052,174.005995025635,1,left,0.552855968475342,173.997656097412,604.474857559204,607.234857559204,1628522006.85279,1628522006.85377,1628522013.17181,1628522013.17337,1628522015.27259,1628522018.62384,1628522018.62576,1628522019.19906,1628522019.19072,1628522449.66792,1
35,4,1,3,10,5,3,c3_HowFace,2,open mouth?,77,F_584.jpg,1628521842.43307,1628521842.44456,161.659721126556,6.30817103385925,167.978745212555,170.07952832222,0.3,174.314440956116,0.700261354446411,175.01650809288,3,right,0.680324077606201,175.014702310562,604.474857559204,607.234857559204,1628522006.85279,1628522006.85377,1628522013.17181,1628522013.17337,1628522015.27259,1628522019.50751,1628522019.5094,1628522020.20957,1628522020.20777,1628522449.66792,0
35,4,1,3,10,6,3,c3_HowFace,1,open mouth?,73,F_403.jpg,1628521842.43307,1628521842.44456,161.659721126556,6.30817103385925,167.978745212555,170.07952832222,0.3,175.331487169266,0.7669517993927,176.099511137009,1,left,0.748039960861206,176.098438968658,604.474857559204,607.234857559204,1628522006.85279,1628522006.85377,1628522013.17181,1628522013.17337,1628522015.27259,1628522020.52455,1628522020.52616,1628522021.29258,1628522021.2915,1628522449.66792,1
35,4,1,3,10,7,3,c3_HowFace,1,open mouth?,75,F_086.jpg,1628521842.43307,1628521842.44456,161.659721126556,6.30817103385925,167.978745212555,170.07952832222,0.3,176.415224304199,0.700260877609253,177.1174061203,1,left,0.679018020629883,177.115485181808,604.474857559204,607.234857559204,1628522006.85279,1628522006.85377,1628522013.17181,1628522013.17337,1628522015.27259,1628522021.60829,1628522021.61004,1628522022.31047,1628522022.30855,1628522449.66792,1
35,4,1,3,10,8,3,c3_HowFace,2,open mouth?,79,F_648.jpg,1628521842.43307,1628521842.44456,161.659721126556,6.30817103385925,167.978745212555,170.07952832222,0.3,177.432269802094,1.00037312507629,178.43907617569,3,right,0.986323118209839,178.43264292717,604.474857559204,607.234857559204,1628522006.85279,1628522006.85377,1628522013.17181,1628522013.17337,1628522015.27259,1628522022.62534,1628522022.62706,1628522023.63214,1628522023.62571,1628522449.66792,0
35,4,1,3,11,1,4,c4_HowHand,1,pressing button?,88,H_019.jpg,1628521842.43307,1628521842.44456,178.499335041046,7.3585159778595,185.868748655319,187.969532718658,2.10078406333923,188.119589080811,1.15042948722839,189.272388210297,1,left,1.13001394271851,189.270018568039,604.474857559204,607.234857559204,1628522023.6924,1628522023.69932,1628522031.06181,1628522031.0663,1628522033.1626,1628522033.31265,1628522033.31619,1628522034.46545,1628522034.46308,1628522449.66792,1
35,4,1,3,11,2,4,c4_HowHand,2,pressing button?,87,H_024.jpg,1628521842.43307,1628521842.44456,178.499335041046,7.3585159778595,185.868748655319,187.969532718658,0.3,189.586802711487,0.933681726455688,190.522201051712,3,right,0.92396092414856,190.520484437943,604.474857559204,607.234857559204,1628522023.6924,1628522023.69932,1628522031.06181,1628522031.0663,1628522033.1626,1628522034.77987,1628522034.78253,1628522035.71527,1628522035.71355,1628522449.66792,0
35,4,1,3,11,3,4,c4_HowHand,2,pressing button?,85,H_130.jpg,1628521842.43307,1628521842.44456,178.499335041046,7.3585159778595,185.868748655319,187.969532718658,0.3,190.837269535065,0.950353384017944,191.789096107483,3,right,0.930979013442993,191.787622919083,604.474857559204,607.234857559204,1628522023.6924,1628522023.69932,1628522031.06181,1628522031.0663,1628522033.1626,1628522036.03034,1628522036.03251,1628522036.98216,1628522036.98069,1628522449.66792,0
35,4,1,3,11,4,4,c4_HowHand,1,pressing button?,83,H_502.jpg,1628521842.43307,1628521842.44456,178.499335041046,7.3585159778595,185.868748655319,187.969532718658,0.3,192.104408254623,0.666915655136108,192.772394170761,1,left,0.655971050262451,192.77132390976,604.474857559204,607.234857559204,1628522023.6924,1628522023.69932,1628522031.06181,1628522031.0663,1628522033.1626,1628522037.29747,1628522037.29934,1628522037.96546,1628522037.96439,1628522449.66792,1
35,4,1,3,11,5,4,c4_HowHand,2,pressing button?,81,H_261.jpg,1628521842.43307,1628521842.44456,178.499335041046,7.3585159778595,185.868748655319,187.969532718658,0.3,193.088109006882,0.783624887466431,193.872795095444,3,right,0.761691093444824,193.871733894348,604.474857559204,607.234857559204,1628522023.6924,1628522023.69932,1628522031.06181,1628522031.0663,1628522033.1626,1628522038.28117,1628522038.28288,1628522039.06586,1628522039.0648,1628522449.66792,0
35,4,1,3,11,6,4,c4_HowHand,1,pressing button?,86,H_332.jpg,1628521842.43307,1628521842.44456,178.499335041046,7.3585159778595,185.868748655319,187.969532718658,0.3,194.18851899147,0.83364462852478,195.023523082733,1,left,0.820427894592285,195.022163619995,604.474857559204,607.234857559204,1628522023.6924,1628522023.69932,1628522031.06181,1628522031.0663,1628522033.1626,1628522039.38158,1628522039.3833,1628522040.21659,1628522040.21523,1628522449.66792,1
35,4,1,3,11,7,4,c4_HowHand,1,pressing button?,82,H_126.jpg,1628521842.43307,1628521842.44456,178.499335041046,7.3585159778595,185.868748655319,187.969532718658,0.3,195.338948001862,0.716934680938721,196.057310094833,1,left,0.701889991760254,196.0558826828,604.474857559204,607.234857559204,1628522023.6924,1628522023.69932,1628522031.06181,1628522031.0663,1628522033.1626,1628522040.53201,1628522040.53377,1628522041.25038,1628522041.24895,1628522449.66792,1
35,4,1,3,11,8,4,c4_HowHand,1,pressing button?,84,H_483.jpg,1628521842.43307,1628521842.44456,178.499335041046,7.3585159778595,185.868748655319,187.969532718658,0.3,196.37266658783,0.917008638381958,197.291055192947,1,left,0.896459102630615,197.289675226212,604.474857559204,607.234857559204,1628522023.6924,1628522023.69932,1628522031.06181,1628522031.0663,1628522033.1626,1628522041.56573,1628522041.56735,1628522042.48412,1628522042.48274,1628522449.66792,1
35,4,1,3,12,1,2,c2_WhyHand,1,competing?,9,H_261.jpg,1628521842.43307,1628521842.44456,197.373039951324,6.27484321594238,203.658716907501,205.759500017166,2.10078310966492,205.909557094574,1.3671760559082,207.278261175156,1,left,1.34471201896667,207.276733150482,604.474857559204,607.234857559204,1628522042.56611,1628522042.56775,1628522048.85178,1628522048.85413,1628522050.95257,1628522051.10262,1628522051.1044,1628522052.47133,1628522052.4698,1628522449.66792,1
35,4,1,3,12,2,2,c2_WhyHand,2,competing?,12,H_483.jpg,1628521842.43307,1628521842.44456,197.373039951324,6.27484321594238,203.658716907501,205.759500017166,0.3,207.593517770767,0.7669517993927,208.362072219849,3,right,0.747123003005981,208.36046957016,604.474857559204,607.234857559204,1628522042.56611,1628522042.56775,1628522048.85178,1628522048.85413,1628522050.95257,1628522052.78658,1628522052.78815,1628522053.55514,1628522053.55354,1628522449.66792,0
35,4,1,3,12,3,2,c2_WhyHand,1,competing?,14,H_132.jpg,1628521842.43307,1628521842.44456,197.373039951324,6.27484321594238,203.658716907501,205.759500017166,0.3,208.677254905701,0.600224256515503,209.289610137939,1,left,0.589940071105957,209.277479162216,604.474857559204,607.234857559204,1628522042.56611,1628522042.56775,1628522048.85178,1628522048.85413,1628522050.95257,1628522053.87032,1628522053.8719,1628522054.48268,1628522054.47055,1628522449.66792,1
35,4,1,3,12,4,2,c2_WhyHand,2,competing?,10,H_126.jpg,1628521842.43307,1628521842.44456,197.373039951324,6.27484321594238,203.658716907501,205.759500017166,0.3,209.594264259338,0.833643913269043,210.429102172852,3,right,0.813476085662842,210.427908172607,604.474857559204,607.234857559204,1628522042.56611,1628522042.56775,1628522048.85178,1628522048.85413,1628522050.95257,1628522054.78733,1628522054.78902,1628522055.62217,1628522055.62097,1628522449.66792,0
35,4,1,3,12,5,2,c2_WhyHand,1,competing?,16,H_136.jpg,1628521842.43307,1628521842.44456,197.373039951324,6.27484321594238,203.658716907501,205.759500017166,0.3,210.74469326973,0.900335788726807,211.646877994537,1,left,0.884130954742432,211.645029058456,604.474857559204,607.234857559204,1628522042.56611,1628522042.56775,1628522048.85178,1628522048.85413,1628522050.95257,1628522055.93776,1628522055.93908,1628522056.83994,1628522056.83809,1628522449.66792,1
35,4,1,3,12,6,2,c2_WhyHand,2,competing?,11,H_502.jpg,1628521842.43307,1628521842.44456,197.373039951324,6.27484321594238,203.658716907501,205.759500017166,0.3,211.961813201904,1.20044803619385,213.164042224884,3,right,1.17760896682739,213.162261238098,604.474857559204,607.234857559204,1628522042.56611,1628522042.56775,1628522048.85178,1628522048.85413,1628522050.95257,1628522057.15488,1628522057.15641,1628522058.35711,1628522058.35533,1628522449.66792,0
35,4,1,3,12,7,2,c2_WhyHand,1,competing?,13,H_003.jpg,1628521842.43307,1628521842.44456,197.373039951324,6.27484321594238,203.658716907501,205.759500017166,0.3,213.479046573639,0.766953229904175,214.256003131866,1,left,0.756988048553467,214.245999803543,604.474857559204,607.234857559204,1628522042.56611,1628522042.56775,1628522048.85178,1628522048.85413,1628522050.95257,1628522058.67211,1628522058.6739,1628522059.44907,1628522059.43907,1628522449.66792,1
35,4,1,3,12,8,2,c2_WhyHand,1,competing?,15,H_170.jpg,1628521842.43307,1628521842.44456,197.373039951324,6.27484321594238,203.658716907501,205.759500017166,0.3,214.562783231735,0.850317478179932,215.422920217514,1,left,0.840685844421387,215.413100709915,604.474857559204,607.234857559204,1628522042.56611,1628522042.56775,1628522048.85178,1628522048.85413,1628522050.95257,1628522059.75585,1628522059.75746,1628522060.61599,1628522060.60617,1628522449.66792,1
35,4,1,3,13,1,1,c1_WhyFace,1,self-doubt?,29,F_544.jpg,1628521842.43307,1628521842.44456,215.496465435028,6.2214035987854,221.732124557495,223.832906475067,2.10078191757202,223.982962598801,1.2838122844696,225.268486013412,1,left,1.26324200630188,225.26677488327,604.474857559204,607.234857559204,1628522060.68953,1628522060.69114,1628522066.92519,1628522066.92753,1628522069.02597,1628522069.17603,1628522069.17776,1628522070.46155,1628522070.45984,1628522449.66792,1
35,4,1,3,13,2,1,c1_WhyFace,2,self-doubt?,27,F_086.jpg,1628521842.43307,1628521842.44456,215.496465435028,6.2214035987854,221.732124557495,223.832906475067,0.3,225.583560218811,0.900336265563965,226.488923063278,3,right,0.892796993255615,226.483896484375,604.474857559204,607.234857559204,1628522060.68953,1628522060.69114,1628522066.92519,1628522066.92753,1628522069.02597,1628522070.77663,1628522070.77854,1628522071.68199,1628522071.67696,1628522449.66792,0
35,4,1,3,13,3,1,c1_WhyFace,1,self-doubt?,25,F_798.jpg,1628521842.43307,1628521842.44456,215.496465435028,6.2214035987854,221.732124557495,223.832906475067,0.3,226.800680389404,0.666915893554688,227.472267141342,1,left,0.655219078063965,227.467596282959,604.474857559204,607.234857559204,1628522060.68953,1628522060.69114,1628522066.92519,1628522066.92753,1628522069.02597,1628522071.99375,1628522071.9953,1628522072.66533,1628522072.66066,1628522449.66792,1
35,4,1,3,13,4,1,c1_WhyFace,1,self-doubt?,26,F_111.jpg,1628521842.43307,1628521842.44456,215.496465435028,6.2214035987854,221.732124557495,223.832906475067,0.3,227.784379711151,0.716935396194458,228.506378164291,1,left,0.700556039810181,228.501315107346,604.474857559204,607.234857559204,1628522060.68953,1628522060.69114,1628522066.92519,1628522066.92753,1628522069.02597,1628522072.97745,1628522072.97936,1628522073.69944,1628522073.69438,1628522449.66792,1
35,4,1,3,13,5,1,c1_WhyFace,2,self-doubt?,31,F_774.jpg,1628521842.43307,1628521842.44456,215.496465435028,6.2214035987854,221.732124557495,223.832906475067,0.3,228.818099727631,0.766952276229858,229.589404096603,3,right,0.751670122146606,229.58505200386,604.474857559204,607.234857559204,1628522060.68953,1628522060.69114,1628522066.92519,1628522066.92753,1628522069.02597,1628522074.01117,1628522074.01613,1628522074.78247,1628522074.77812,1628522449.66792,0
35,4,1,3,13,6,1,c1_WhyFace,1,self-doubt?,28,F_754.jpg,1628521842.43307,1628521842.44456,215.496465435028,6.2214035987854,221.732124557495,223.832906475067,0.3,229.901837100983,0.800298690795898,230.706014146805,1,left,0.779774188995361,230.702135791779,604.474857559204,607.234857559204,1628522060.68953,1628522060.69114,1628522066.92519,1628522066.92753,1628522069.02597,1628522075.0949,1628522075.0992,1628522075.89908,1628522075.8952,1628522449.66792,1
35,4,1,3,13,7,1,c1_WhyFace,2,self-doubt?,32,F_128.jpg,1628521842.43307,1628521842.44456,215.496465435028,6.2214035987854,221.732124557495,223.832906475067,0.3,231.018919696808,1.05039238929749,232.072305192947,3,right,1.03092408180237,232.069312086105,604.474857559204,607.234857559204,1628522060.68953,1628522060.69114,1628522066.92519,1628522066.92753,1628522069.02597,1628522076.21199,1628522076.21605,1628522077.26537,1628522077.26238,1628522449.66792,0
35,4,1,3,13,8,1,c1_WhyFace,1,self-doubt?,30,F_584.jpg,1628521842.43307,1628521842.44456,215.496465435028,6.2214035987854,221.732124557495,223.832906475067,0.3,232.386097183228,1.28381180763245,233.673130025864,1,left,1.26292610168457,233.66990899086,604.474857559204,607.234857559204,1628522060.68953,1628522060.69114,1628522066.92519,1628522066.92753,1628522069.02597,1628522077.57916,1628522077.58255,1628522078.8662,1628522078.86297,1628522449.66792,1
35,4,1,3,14,1,3,c3_HowFace,1,looking at camera?,64,F_128.jpg,1628521842.43307,1628521842.44456,233.736600627899,7.03530955314636,240.789230575562,242.890014162064,2.10078358650208,243.040070047379,0.700261116027832,243.741956224442,1,left,0.685942888259888,243.740331163406,604.474857559204,607.234857559204,1628522078.92967,1628522078.93195,1628522085.9823,1628522085.98406,1628522088.08308,1628522088.23314,1628522088.23486,1628522088.93502,1628522088.9334,1628522449.66792,1
35,4,1,3,14,2,3,c3_HowFace,1,looking at camera?,60,F_618.jpg,1628521842.43307,1628521842.44456,233.736600627899,7.03530955314636,240.789230575562,242.890014162064,0.3,244.057116260529,0.65024209022522,244.708849182129,1,left,0.640520095825195,244.707358350754,604.474857559204,607.234857559204,1628522078.92967,1628522078.93195,1628522085.9823,1628522085.98406,1628522088.08308,1628522089.25018,1628522089.25191,1628522089.90192,1628522089.90042,1628522449.66792,1
35,4,1,3,14,3,3,c3_HowFace,1,looking at camera?,62,F_598.jpg,1628521842.43307,1628521842.44456,233.736600627899,7.03530955314636,240.789230575562,242.890014162064,0.3,245.024143209457,0.716933965682983,245.742414226532,1,left,0.697564125061035,245.74107717514,604.474857559204,607.234857559204,1628522078.92967,1628522078.93195,1628522085.9823,1628522085.98406,1628522088.08308,1628522090.21721,1628522090.21889,1628522090.93548,1628522090.93414,1628522449.66792,1
35,4,1,3,14,4,3,c3_HowFace,2,looking at camera?,63,F_743.jpg,1628521842.43307,1628521842.44456,233.736600627899,7.03530955314636,240.789230575562,242.890014162064,0.3,246.057862272263,0.850316762924194,246.909161081314,3,right,0.839670896530151,246.908179035187,604.474857559204,607.234857559204,1628522078.92967,1628522078.93195,1628522085.9823,1628522085.98406,1628522088.08308,1628522091.25093,1628522091.25259,1628522092.10223,1628522092.10124,1628522449.66792,0
35,4,1,3,14,5,3,c3_HowFace,1,looking at camera?,61,F_774.jpg,1628521842.43307,1628521842.44456,233.736600627899,7.03530955314636,240.789230575562,242.890014162064,0.3,247.224964132309,0.733606815338135,247.95971321106,1,left,0.713438034057617,247.958570947647,604.474857559204,607.234857559204,1628522078.92967,1628522078.93195,1628522085.9823,1628522085.98406,1628522088.08308,1628522092.41803,1628522092.41989,1628522093.15278,1628522093.15164,1628522449.66792,1
35,4,1,3,14,6,3,c3_HowFace,2,looking at camera?,57,F_582.jpg,1628521842.43307,1628521842.44456,233.736600627899,7.03530955314636,240.789230575562,242.890014162064,0.3,248.275355806351,1.11708307266235,249.405673017502,3,right,1.10663199424744,249.392438879013,604.474857559204,607.234857559204,1628522078.92967,1628522078.93195,1628522085.9823,1628522085.98406,1628522088.08308,1628522093.46842,1628522093.47009,1628522094.59874,1628522094.5855,1628522449.66792,0
35,4,1,3,14,7,3,c3_HowFace,2,looking at camera?,58,F_754.jpg,1628521842.43307,1628521842.44456,233.736600627899,7.03530955314636,240.789230575562,242.890014162064,0.3,249.709224214554,1.05039119720459,250.760708084106,3,right,1.03179788589478,250.759615411758,604.474857559204,607.234857559204,1628522078.92967,1628522078.93195,1628522085.9823,1628522085.98406,1628522088.08308,1628522094.90229,1628522094.9039,1628522095.95377,1628522095.95268,1628522449.66792,0
35,4,1,3,14,8,3,c3_HowFace,1,looking at camera?,59,F_129.jpg,1628521842.43307,1628521842.44456,233.736600627899,7.03530955314636,240.789230575562,242.890014162064,0.3,251.076400508881,0.766952276229858,251.844793071747,1,left,0.751718044281006,251.84335278511,604.474857559204,607.234857559204,1628522078.92967,1628522078.93195,1628522085.9823,1628522085.98406,1628522088.08308,1628522096.26947,1628522096.27103,1628522097.03786,1628522097.03642,1628522449.66792,1
35,4,1,3,15,1,4,c4_HowHand,1,both hands?,123,H_167.jpg,1628521842.43307,1628521842.44456,251.926717748642,7.63516545295715,259.579571475983,261.680354347229,2.10078287124634,261.830411186218,1.3671760559082,263.205625047684,1,left,1.35383796691895,263.197587242126,604.474857559204,607.234857559204,1628522097.11978,1628522097.12135,1628522104.77264,1628522104.77589,1628522106.87342,1628522107.02348,1628522107.02526,1628522108.39869,1628522108.39065,1628522449.66792,1
35,4,1,3,15,2,4,c4_HowHand,2,both hands?,121,H_091.jpg,1628521842.43307,1628521842.44456,251.926717748642,7.63516545295715,259.579571475983,261.680354347229,0.3,263.514370670319,0.917009592056274,264.439505090714,3,right,0.905294179916382,264.431380262375,604.474857559204,607.234857559204,1628522097.11978,1628522097.12135,1628522104.77264,1628522104.77589,1628522106.87342,1628522108.70744,1628522108.70923,1628522109.63257,1628522109.62445,1628522449.66792,0
35,4,1,3,15,3,4,c4_HowHand,2,both hands?,125,H_627.jpg,1628521842.43307,1628521842.44456,251.926717748642,7.63516545295715,259.579571475983,261.680354347229,0.3,264.748165121079,1.06706476211548,265.816290130615,3,right,1.04440093040466,265.815229883194,604.474857559204,607.234857559204,1628522097.11978,1628522097.12135,1628522104.77264,1628522104.77589,1628522106.87342,1628522109.94123,1628522109.94287,1628522111.00936,1628522111.0083,1628522449.66792,0
35,4,1,3,15,4,4,c4_HowHand,1,both hands?,128,H_027.jpg,1628521842.43307,1628521842.44456,251.926717748642,7.63516545295715,259.579571475983,261.680354347229,0.3,266.132015218735,0.783625602722168,266.922382106781,1,left,0.770174026489258,266.915640821457,604.474857559204,607.234857559204,1628522097.11978,1628522097.12135,1628522104.77264,1628522104.77589,1628522106.87342,1628522111.32508,1628522111.32707,1628522112.11545,1628522112.10871,1628522449.66792,1
35,4,1,3,15,5,4,c4_HowHand,1,both hands?,122,H_111.jpg,1628521842.43307,1628521842.44456,251.926717748642,7.63516545295715,259.579571475983,261.680354347229,0.3,267.232425441742,1.05039143562317,268.288947095871,1,left,1.03301310539246,268.282816877365,604.474857559204,607.234857559204,1628522097.11978,1628522097.12135,1628522104.77264,1628522104.77589,1628522106.87342,1628522112.42549,1628522112.42687,1628522113.48201,1628522113.47588,1628522449.66792,1
35,4,1,3,15,6,4,c4_HowHand,2,both hands?,126,H_159.jpg,1628521842.43307,1628521842.44456,251.926717748642,7.63516545295715,259.579571475983,261.680354347229,0.3,268.599604120255,1.03371572494507,269.634742012024,3,right,1.01397681236267,269.6333198452,604.474857559204,607.234857559204,1628522097.11978,1628522097.12135,1628522104.77264,1628522104.77589,1628522106.87342,1628522113.79267,1628522113.79443,1628522114.82781,1628522114.82639,1628522449.66792,0
35,4,1,3,15,7,4,c4_HowHand,1,both hands?,124,H_581.jpg,1628521842.43307,1628521842.44456,251.926717748642,7.63516545295715,259.579571475983,261.680354347229,0.3,269.95010518074,0.950354814529419,270.905740013123,1,left,0.936528205871582,270.90045999527,604.474857559204,607.234857559204,1628522097.11978,1628522097.12135,1628522104.77264,1628522104.77589,1628522106.87342,1628522115.14317,1628522115.14485,1628522116.09881,1628522116.09353,1628522449.66792,1
35,4,1,3,15,8,4,c4_HowHand,1,both hands?,127,H_349.jpg,1628521842.43307,1628521842.44456,251.926717748642,7.63516545295715,259.579571475983,261.680354347229,0.3,271.217245569229,0.850316762924194,272.068951120377,1,left,0.828374862670898,272.067562332153,604.474857559204,607.234857559204,1628522097.11978,1628522097.12135,1628522104.77264,1628522104.77589,1628522106.87342,1628522116.41031,1628522116.4121,1628522117.26202,1628522117.26063,1628522449.66792,1
35,4,1,3,16,1,2,c2_WhyHand,1,self-protection?,89,H_443.jpg,1628521842.43307,1628521842.44456,272.134253253937,6.21763396263123,278.369911899567,280.47069524765,2.1007833480835,280.620751848221,0.81697154045105,281.438879003525,1,left,0.806056022644043,281.437723388672,604.474857559204,607.234857559204,1628522117.32732,1628522117.33193,1628522123.56298,1628522123.56608,1628522125.66376,1628522125.81382,1628522125.81614,1628522126.63194,1628522126.63079,1628522449.66792,1
35,4,1,3,16,2,2,c2_WhyHand,2,self-protection?,90,H_006.jpg,1628521842.43307,1628521842.44456,272.134253253937,6.21763396263123,278.369911899567,280.47069524765,0.3,281.754506816864,1.20044875144958,282.956519117355,3,right,1.18150186538696,282.954955568314,604.474857559204,607.234857559204,1628522117.32732,1628522117.33193,1628522123.56298,1628522123.56608,1628522125.66376,1628522126.94757,1628522126.949,1628522128.14959,1628522128.14802,1628522449.66792,0
35,4,1,3,16,3,2,c2_WhyHand,1,self-protection?,91,H_581.jpg,1628521842.43307,1628521842.44456,272.134253253937,6.21763396263123,278.369911899567,280.47069524765,0.3,283.271740427017,1.43386745452881,284.707396020889,1,left,1.42094707489014,284.705607881546,604.474857559204,607.234857559204,1628522117.32732,1628522117.33193,1628522123.56298,1628522123.56608,1628522125.66376,1628522128.46481,1628522128.46624,1628522129.90046,1628522129.89867,1628522449.66792,1
35,4,1,3,16,4,2,c2_WhyHand,2,self-protection?,92,H_532.jpg,1628521842.43307,1628521842.44456,272.134253253937,6.21763396263123,278.369911899567,280.47069524765,0.3,285.022393217087,1.16710233688354,286.19121216774,3,right,1.14575386047363,286.18949555397,604.474857559204,607.234857559204,1628522117.32732,1628522117.33193,1628522123.56298,1628522123.56608,1628522125.66376,1628522130.21546,1628522130.21726,1628522131.38428,1628522131.38256,1628522449.66792,0
35,4,1,3,16,5,2,c2_WhyHand,1,self-protection?,96,H_027.jpg,1628521842.43307,1628521842.44456,272.134253253937,6.21763396263123,278.369911899567,280.47069524765,0.3,286.506280651093,0.900334358215332,287.407732000351,1,left,0.878570079803467,287.406615009308,604.474857559204,607.234857559204,1628522117.32732,1628522117.33193,1628522123.56298,1628522123.56608,1628522125.66376,1628522131.69935,1628522131.70086,1628522132.6008,1628522132.59968,1628522449.66792,1
35,4,1,3,16,6,2,c2_WhyHand,1,self-protection?,93,H_038.jpg,1628521842.43307,1628521842.44456,272.134253253937,6.21763396263123,278.369911899567,280.47069524765,0.3,287.723399629593,1.26713967323303,288.9920840168,1,left,1.25509595870972,288.990539302826,604.474857559204,607.234857559204,1628522117.32732,1628522117.33193,1628522123.56298,1628522123.56608,1628522125.66376,1628522132.91647,1628522132.91798,1628522134.18515,1628522134.18361,1628522449.66792,1
35,4,1,3,16,7,2,c2_WhyHand,2,self-protection?,95,H_332.jpg,1628521842.43307,1628521842.44456,272.134253253937,6.21763396263123,278.369911899567,280.47069524765,0.3,289.307323684692,1.15042924880981,290.458816041946,3,right,1.12745404243469,290.457752933502,604.474857559204,607.234857559204,1628522117.32732,1628522117.33193,1628522123.56298,1628522123.56608,1628522125.66376,1628522134.50039,1628522134.50196,1628522135.65188,1628522135.65082,1628522449.66792,0
35,4,1,3,16,8,2,c2_WhyHand,1,self-protection?,94,H_189.jpg,1628521842.43307,1628521842.44456,272.134253253937,6.21763396263123,278.369911899567,280.47069524765,0.3,290.774538030624,1.13375639915466,291.922332038879,1,left,1.12392711639404,291.908294429779,604.474857559204,607.234857559204,1628522117.32732,1628522117.33193,1628522123.56298,1628522123.56608,1628522125.66376,1628522135.9676,1628522135.96939,1628522137.1154,1628522137.10136,1628522449.66792,1
35,4,1,3,17,1,3,c3_HowFace,1,smiling?,118,F_759.jpg,1628521842.43307,1628521842.44456,291.991658678055,7.84023642539978,299.844587316513,301.945370664597,2.1007833480835,302.095427265167,0.666914224624634,302.763383140564,1,left,0.649124145507812,302.762341489792,604.474857559204,607.234857559204,1628522137.18472,1628522137.18617,1628522145.03765,1628522145.03945,1628522147.13844,1628522147.28849,1628522147.28998,1628522147.95645,1628522147.95541,1628522449.66792,1
35,4,1,3,17,2,3,c3_HowFace,2,smiling?,114,F_412.jpg,1628521842.43307,1628521842.44456,291.991658678055,7.84023642539978,299.844587316513,301.945370664597,0.3,303.079125871658,0.633570432662964,303.714155187607,3,right,0.616367101669312,303.712696304321,604.474857559204,607.234857559204,1628522137.18472,1628522137.18617,1628522145.03765,1628522145.03945,1628522147.13844,1628522148.27219,1628522148.27395,1628522148.90722,1628522148.90576,1628522449.66792,0
35,4,1,3,17,3,3,c3_HowFace,1,smiling?,117,F_593.jpg,1628521842.43307,1628521842.44456,291.991658678055,7.84023642539978,299.844587316513,301.945370664597,0.3,304.029481639862,0.600223064422607,304.63166021347,1,left,0.581913948059082,304.629704704285,604.474857559204,607.234857559204,1628522137.18472,1628522137.18617,1628522145.03765,1628522145.03945,1628522147.13844,1628522149.22255,1628522149.2243,1628522149.82473,1628522149.82277,1628522449.66792,1
35,4,1,3,17,4,3,c3_HowFace,2,smiling?,113,F_712.jpg,1628521842.43307,1628521842.44456,291.991658678055,7.84023642539978,299.844587316513,301.945370664597,0.3,304.946489086151,0.733607769012451,305.689412107468,3,right,0.725886821746826,305.680096855164,604.474857559204,607.234857559204,1628522137.18472,1628522137.18617,1628522145.03765,1628522145.03945,1628522147.13844,1628522150.13955,1628522150.14135,1628522150.88248,1628522150.87316,1628522449.66792,0
35,4,1,3,17,5,3,c3_HowFace,1,smiling?,115,F_695.jpg,1628521842.43307,1628521842.44456,291.991658678055,7.84023642539978,299.844587316513,301.945370664597,0.3,305.996880998611,0.516860485076904,306.522664060593,1,left,0.507966995239258,306.513741483688,604.474857559204,607.234857559204,1628522137.18472,1628522137.18617,1628522145.03765,1628522145.03945,1628522147.13844,1628522151.18995,1628522151.19146,1628522151.71573,1628522151.70681,1628522449.66792,1
35,4,1,3,17,6,3,c3_HowFace,1,smiling?,119,F_139.jpg,1628521842.43307,1628521842.44456,291.991658678055,7.84023642539978,299.844587316513,301.945370664597,0.3,306.830526819229,0.683587551116943,307.515234222412,1,left,0.66259503364563,307.514114370346,604.474857559204,607.234857559204,1628522137.18472,1628522137.18617,1628522145.03765,1628522145.03945,1628522147.13844,1628522152.02359,1628522152.02521,1628522152.7083,1628522152.70718,1628522449.66792,1
35,4,1,3,17,7,3,c3_HowFace,1,smiling?,116,F_083.jpg,1628521842.43307,1628521842.44456,291.991658678055,7.84023642539978,299.844587316513,301.945370664597,0.3,307.830898990631,0.566878318786621,308.399446001053,1,left,0.544381856918335,308.397777309418,604.474857559204,607.234857559204,1628522137.18472,1628522137.18617,1628522145.03765,1628522145.03945,1628522147.13844,1628522153.02396,1628522153.02596,1628522153.59251,1628522153.59084,1628522449.66792,1
35,4,1,3,17,8,3,c3_HowFace,2,smiling?,120,F_758.jpg,1628521842.43307,1628521842.44456,291.991658678055,7.84023642539978,299.844587316513,301.945370664597,0.3,308.714561691284,0.616896390914917,309.332527151108,3,right,0.598602056503296,309.331458082199,604.474857559204,607.234857559204,1628522137.18472,1628522137.18617,1628522145.03765,1628522145.03945,1628522147.13844,1628522153.90763,1628522153.90941,1628522154.52559,1628522154.52452,1628522449.66792,0
35,4,1,3,18,1,1,c1_WhyFace,1,admiring?,1,F_593.jpg,1628521842.43307,1628521842.44456,309.398150434494,8.22379565238953,317.634555091858,319.735337724686,2.10078263282776,319.885394086838,0.78362512588501,320.670426120758,1,left,0.759135007858276,320.669019212723,604.474857559204,607.234857559204,1628522154.59122,1628522154.59918,1628522162.82762,1628522162.83309,1628522164.9284,1628522165.07846,1628522165.08294,1628522165.86349,1628522165.86209,1628522449.66792,1
35,4,1,3,18,2,1,c1_WhyFace,2,admiring?,2,F_129.jpg,1628521842.43307,1628521842.44456,309.398150434494,8.22379565238953,317.634555091858,319.735337724686,0.3,320.985804786682,0.666914463043213,321.656259050369,3,right,0.656583070755005,321.652719249725,604.474857559204,607.234857559204,1628522154.59122,1628522154.59918,1628522162.82762,1628522162.83309,1628522164.9284,1628522166.17887,1628522166.18244,1628522166.84932,1628522166.84579,1628522449.66792,0
35,4,1,3,18,3,1,c1_WhyFace,1,admiring?,5,F_759.jpg,1628521842.43307,1628521842.44456,309.398150434494,8.22379565238953,317.634555091858,319.735337724686,0.3,321.969504346848,1.1337559223175,323.106224050522,1,left,1.11250615119934,323.103260269165,604.474857559204,607.234857559204,1628522154.59122,1628522154.59918,1628522162.82762,1628522162.83309,1628522164.9284,1628522167.16257,1628522167.16598,1628522168.29929,1628522168.29633,1628522449.66792,1
35,4,1,3,18,4,1,c1_WhyFace,2,admiring?,6,F_692.jpg,1628521842.43307,1628521842.44456,309.398150434494,8.22379565238953,317.634555091858,319.735337724686,0.3,323.420045604706,0.733606338500977,324.155673017502,3,right,0.720850944519043,324.153651943207,604.474857559204,607.234857559204,1628522154.59122,1628522154.59918,1628522162.82762,1628522162.83309,1628522164.9284,1628522168.61311,1628522168.61613,1628522169.34874,1628522169.34672,1628522449.66792,0
35,4,1,3,18,5,1,c1_WhyFace,1,admiring?,4,F_779.jpg,1628521842.43307,1628521842.44456,309.398150434494,8.22379565238953,317.634555091858,319.735337724686,0.3,324.47043680191,0.66691517829895,325.139090051651,1,left,0.656375885009766,325.137351980209,604.474857559204,607.234857559204,1628522154.59122,1628522154.59918,1628522162.82762,1628522162.83309,1628522164.9284,1628522169.6635,1628522169.66609,1628522170.33216,1628522170.33042,1628522449.66792,1
35,4,1,3,18,6,1,c1_WhyFace,1,admiring?,8,F_590.jpg,1628521842.43307,1628521842.44456,309.398150434494,8.22379565238953,317.634555091858,319.735337724686,0.3,325.454137792587,0.900335550308228,326.35558008194,1,left,0.890246868133545,326.354473342896,604.474857559204,607.234857559204,1628522154.59122,1628522154.59918,1628522162.82762,1628522162.83309,1628522164.9284,1628522170.6472,1628522170.64935,1628522171.54865,1628522171.54754,1628522449.66792,1
35,4,1,3,18,7,1,c1_WhyFace,1,admiring?,7,F_648.jpg,1628521842.43307,1628521842.44456,309.398150434494,8.22379565238953,317.634555091858,319.735337724686,0.3,326.671258678436,0.816970586776733,327.489880075455,1,left,0.795680046081543,327.488229265213,604.474857559204,607.234857559204,1628522154.59122,1628522154.59918,1628522162.82762,1628522162.83309,1628522164.9284,1628522171.86432,1628522171.86629,1628522172.68295,1628522172.6813,1628522449.66792,1
35,4,1,3,18,8,1,c1_WhyFace,2,admiring?,3,F_110.jpg,1628521842.43307,1628521842.44456,309.398150434494,8.22379565238953,317.634555091858,319.735337724686,0.3,327.805014123917,0.716934204101562,328.523410072327,3,right,0.703994989395142,328.521948328018,604.474857559204,607.234857559204,1628522154.59122,1628522154.59918,1628522162.82762,1628522162.83309,1628522164.9284,1628522172.99808,1628522172.99975,1628522173.71648,1628522173.71501,1628522449.66792,0
35,4,1,3,19,1,2,c2_WhyHand,1,competing?,9,H_261.jpg,1628521842.43307,1628521842.44456,328.605312099457,6.90656304359436,335.524559011459,337.625343074799,2.10078406333923,337.775398960114,0.766952276229858,338.543592205048,1,left,0.751203060150146,338.542351236343,604.474857559204,607.234857559204,1628522173.79838,1628522173.79991,1628522180.71762,1628522180.71948,1628522182.81841,1628522182.96846,1628522182.97047,1628522183.73666,1628522183.73542,1628522449.66792,1
35,4,1,3,19,2,2,c2_WhyHand,1,competing?,15,H_170.jpg,1628521842.43307,1628521842.44456,328.605312099457,6.90656304359436,335.524559011459,337.625343074799,0.3,338.859136571884,0.616896629333496,339.477404108047,1,left,0.601473093032837,339.476033201218,604.474857559204,607.234857559204,1628522173.79838,1628522173.79991,1628522180.71762,1628522180.71948,1628522182.81841,1628522184.0522,1628522184.05383,1628522184.67047,1628522184.6691,1628522449.66792,1
35,4,1,3,19,3,2,c2_WhyHand,2,competing?,12,H_483.jpg,1628521842.43307,1628521842.44456,328.605312099457,6.90656304359436,335.524559011459,337.625343074799,0.3,339.792817821503,0.917008876800537,340.711563100815,3,right,0.894675016403198,340.709826698303,604.474857559204,607.234857559204,1628522173.79838,1628522173.79991,1628522180.71762,1628522180.71948,1628522182.81841,1628522184.98588,1628522184.98733,1628522185.90463,1628522185.90289,1628522449.66792,0
35,4,1,3,19,4,2,c2_WhyHand,1,competing?,14,H_132.jpg,1628521842.43307,1628521842.44456,328.605312099457,6.90656304359436,335.524559011459,337.625343074799,0.3,341.026611557007,0.83364462852478,341.861723175049,1,left,0.812585115432739,341.860256185532,604.474857559204,607.234857559204,1628522173.79838,1628522173.79991,1628522180.71762,1628522180.71948,1628522182.81841,1628522186.21968,1628522186.22128,1628522187.05479,1628522187.05332,1628522449.66792,1
35,4,1,3,19,5,2,c2_WhyHand,1,competing?,16,H_136.jpg,1628521842.43307,1628521842.44456,328.605312099457,6.90656304359436,335.524559011459,337.625343074799,0.3,342.17704032898,0.783626079559326,342.961777200699,1,left,0.766185998916626,342.960666408539,604.474857559204,607.234857559204,1628522173.79838,1628522173.79991,1628522180.71762,1628522180.71948,1628522182.81841,1628522187.37011,1628522187.37175,1628522188.15484,1628522188.15373,1628522449.66792,1
35,4,1,3,19,6,2,c2_WhyHand,1,competing?,13,H_003.jpg,1628521842.43307,1628521842.44456,328.605312099457,6.90656304359436,335.524559011459,337.625343074799,0.3,343.277451028824,0.683587789535522,343.96242307663,1,left,0.663226842880249,343.961038818359,604.474857559204,607.234857559204,1628522173.79838,1628522173.79991,1628522180.71762,1628522180.71948,1628522182.81841,1628522188.47052,1628522188.47216,1628522189.15549,1628522189.1541,1628522449.66792,1
35,4,1,3,19,7,2,c2_WhyHand,2,competing?,10,H_126.jpg,1628521842.43307,1628521842.44456,328.605312099457,6.90656304359436,335.524559011459,337.625343074799,0.3,344.277823915482,1.31715798377991,345.606347074509,3,right,1.30406999588013,345.594981899261,604.474857559204,607.234857559204,1628522173.79838,1628522173.79991,1628522180.71762,1628522180.71948,1628522182.81841,1628522189.47089,1628522189.47263,1628522190.79941,1628522190.78805,1628522449.66792,0
35,4,1,3,19,8,2,c2_WhyHand,2,competing?,11,H_502.jpg,1628521842.43307,1628521842.44456,328.605312099457,6.90656304359436,335.524559011459,337.625343074799,0.3,345.911766281128,0.933681964874268,346.856312026978,3,right,0.920693159103394,346.845448246002,604.474857559204,607.234857559204,1628522173.79838,1628522173.79991,1628522180.71762,1628522180.71948,1628522182.81841,1628522191.10483,1628522191.10715,1628522192.04938,1628522192.03851,1628522449.66792,0
35,4,1,3,20,1,4,c4_HowHand,1,reaching?,111,H_003.jpg,1628521842.43307,1628521842.44456,346.928812732697,10.0630784034729,356.999234428406,359.100017776489,2.1007833480835,359.25007437706,0.983700037002563,360.235501041412,1,left,0.959298849105835,360.233774414063,604.474857559204,607.234857559204,1628522192.12188,1628522192.1326,1628522202.1923,1628522202.19971,1628522204.29308,1628522204.44314,1628522204.4497,1628522205.42857,1628522205.42684,1628522449.66792,1
35,4,1,3,20,2,4,c4_HowHand,1,reaching?,110,H_364.jpg,1628521842.43307,1628521842.44456,346.928812732697,10.0630784034729,356.999234428406,359.100017776489,0.3,360.550559511185,0.733607053756714,361.288958063126,1,left,0.714333057403564,361.284166564941,604.474857559204,607.234857559204,1628522192.12188,1628522192.1326,1628522202.1923,1628522202.19971,1628522204.29308,1628522205.74363,1628522205.74512,1628522206.48202,1628522206.47723,1628522449.66792,1
35,4,1,3,20,3,4,c4_HowHand,2,reaching?,108,H_532.jpg,1628521842.43307,1628521842.44456,346.928812732697,10.0630784034729,356.999234428406,359.100017776489,0.3,361.600949516296,0.983699321746826,362.589415063858,3,right,0.974017858505249,362.584648838043,604.474857559204,607.234857559204,1628522192.12188,1628522192.1326,1628522202.1923,1628522202.19971,1628522204.29308,1628522206.79402,1628522206.7955,1628522207.78248,1628522207.77771,1628522449.66792,0
35,4,1,3,20,4,4,c4_HowHand,1,reaching?,106,H_006.jpg,1628521842.43307,1628521842.44456,346.928812732697,10.0630784034729,356.999234428406,359.100017776489,0.3,362.901435365677,0.766952991485596,363.669454088211,1,left,0.742300033569336,363.668388357162,604.474857559204,607.234857559204,1628522192.12188,1628522192.1326,1628522202.1923,1628522202.19971,1628522204.29308,1628522208.0945,1628522208.09923,1628522208.86252,1628522208.86145,1628522449.66792,1
35,4,1,3,20,5,4,c4_HowHand,2,reaching?,105,H_438.jpg,1628521842.43307,1628521842.44456,346.928812732697,10.0630784034729,356.999234428406,359.100017776489,0.3,363.985172739029,0.883663177490234,364.872645130157,3,right,0.863100051879883,364.868835916519,604.474857559204,607.234857559204,1628522192.12188,1628522192.1326,1628522202.1923,1628522202.19971,1628522204.29308,1628522209.17824,1628522209.18277,1628522210.06571,1628522210.0619,1628522449.66792,0
35,4,1,3,20,6,4,c4_HowHand,1,reaching?,107,H_007.jpg,1628521842.43307,1628521842.44456,346.928812732697,10.0630784034729,356.999234428406,359.100017776489,0.3,365.185621490479,0.700259923934937,365.886954059601,1,left,0.674787998199463,365.885881414413,604.474857559204,607.234857559204,1628522192.12188,1628522192.1326,1628522202.1923,1628522202.19971,1628522204.29308,1628522210.37869,1628522210.38277,1628522211.08002,1628522211.07895,1628522449.66792,1
35,4,1,3,20,7,4,c4_HowHand,1,reaching?,109,H_474.jpg,1628521842.43307,1628521842.44456,346.928812732697,10.0630784034729,356.999234428406,359.100017776489,0.3,366.202667226791,1.23379230499268,367.439421167374,3,right,1.22042298316956,367.436459531784,604.474857559204,607.234857559204,1628522192.12188,1628522192.1326,1628522202.1923,1628522202.19971,1628522204.29308,1628522211.39573,1628522211.39926,1628522212.63249,1628522212.62953,1628522449.66792,0
35,4,1,3,20,8,4,c4_HowHand,2,reaching?,112,H_132.jpg,1628521842.43307,1628521842.44456,346.928812732697,10.0630784034729,356.999234428406,359.100017776489,0.3,367.753245344162,1.13375616073608,368.889016141891,3,right,1.1214759349823,368.887001504898,604.474857559204,607.234857559204,1628522192.12188,1628522192.1326,1628522202.1923,1628522202.19971,1628522204.29308,1628522212.94631,1628522212.94905,1628522214.08208,1628522214.08007,1628522449.66792,0
35,4,1,3,21,1,3,c3_HowFace,1,open mouth?,73,F_403.jpg,1628521842.43307,1628521842.44456,368.970365753174,5.86151742935181,374.839221229553,376.940004339218,2.10078310966492,377.090059747696,0.666915655136108,377.758772125244,1,left,0.643940210342407,377.756975402832,604.474857559204,607.234857559204,1628522214.16343,1628522214.16595,1628522220.03229,1628522220.03418,1628522222.13307,1628522222.28313,1628522222.28494,1628522222.95184,1628522222.95004,1628522449.66792,1
35,4,1,3,21,2,3,c3_HowFace,2,open mouth?,79,F_648.jpg,1628521842.43307,1628521842.44456,368.970365753174,5.86151742935181,374.839221229553,376.940004339218,0.3,378.073760023117,0.733606815338135,378.808424224854,3,right,0.713735103607178,378.807366838455,604.474857559204,607.234857559204,1628522214.16343,1628522214.16595,1628522220.03229,1628522220.03418,1628522222.13307,1628522223.26683,1628522223.26828,1628522224.00149,1628522224.00043,1628522449.66792,0
35,4,1,3,21,3,3,c3_HowFace,1,open mouth?,74,F_776.jpg,1628521842.43307,1628521842.44456,368.970365753174,5.86151742935181,374.839221229553,376.940004339218,0.3,379.124151697159,0.566878795623779,379.706336011887,1,left,0.556813955307007,379.691030492783,604.474857559204,607.234857559204,1628522214.16343,1628522214.16595,1628522220.03229,1628522220.03418,1628522222.13307,1628522224.31722,1628522224.31931,1628522224.8994,1628522224.8841,1628522449.66792,1
35,4,1,3,21,4,3,c3_HowFace,2,open mouth?,77,F_584.jpg,1628521842.43307,1628521842.44456,368.970365753174,5.86151742935181,374.839221229553,376.940004339218,0.3,380.007814874649,0.750280618667603,380.759188165665,3,right,0.730172872543335,380.758095493317,604.474857559204,607.234857559204,1628522214.16343,1628522214.16595,1628522220.03229,1628522220.03418,1628522222.13307,1628522225.20088,1628522225.20254,1628522225.95225,1628522225.95116,1628522449.66792,0
35,4,1,3,21,5,3,c3_HowFace,1,open mouth?,80,F_844.jpg,1628521842.43307,1628521842.44456,368.970365753174,5.86151742935181,374.839221229553,376.940004339218,0.3,381.074878921509,0.666916131973267,381.74354218483,1,left,0.649934053421021,381.741795053482,604.474857559204,607.234857559204,1628522214.16343,1628522214.16595,1628522220.03229,1628522220.03418,1628522222.13307,1628522226.26794,1628522226.26949,1628522226.93661,1628522226.93486,1628522449.66792,1
35,4,1,3,21,6,3,c3_HowFace,1,open mouth?,78,F_692.jpg,1628521842.43307,1628521842.44456,368.970365753174,5.86151742935181,374.839221229553,376.940004339218,0.3,382.05857919693,0.85031795501709,382.910029163361,1,left,0.831956148147583,382.908897151947,604.474857559204,607.234857559204,1628522214.16343,1628522214.16595,1628522220.03229,1628522220.03418,1628522222.13307,1628522227.25165,1628522227.25362,1628522228.1031,1628522228.10196,1628522449.66792,1
35,4,1,3,21,7,3,c3_HowFace,1,open mouth?,75,F_086.jpg,1628521842.43307,1628521842.44456,368.970365753174,5.86151742935181,374.839221229553,376.940004339218,0.3,383.225681772232,0.616895914077759,383.855641117096,1,left,0.605884075164795,383.84257768631,604.474857559204,607.234857559204,1628522214.16343,1628522214.16595,1628522220.03229,1628522220.03418,1628522222.13307,1628522228.41875,1628522228.42044,1628522229.04871,1628522229.03564,1628522449.66792,1
35,4,1,3,21,8,3,c3_HowFace,2,open mouth?,76,F_544.jpg,1628521842.43307,1628521842.44456,368.970365753174,5.86151742935181,374.839221229553,376.940004339218,0.3,384.159363260269,0.967026710510254,385.127590169907,3,right,0.950342893600464,385.126389970779,604.474857559204,607.234857559204,1628522214.16343,1628522214.16595,1628522220.03229,1628522220.03418,1628522222.13307,1628522229.35243,1628522229.35398,1628522230.32066,1628522230.31946,1628522449.66792,0
35,4,1,3,22,1,1,c1_WhyFace,1,argument?,42,F_403.jpg,1628521842.43307,1628521842.44456,385.209754934311,8.29820609092712,393.512851228714,395.613634815216,2.10078358650208,395.763690700531,0.983700275421143,396.755668153763,1,left,0.962299108505249,396.747390975952,604.474857559204,607.234857559204,1628522230.40282,1628522230.40417,1628522238.70592,1628522238.71629,1628522240.8067,1628522240.95676,1628522240.96664,1628522241.94873,1628522241.94046,1628522449.66792,1
35,4,1,3,22,2,1,c1_WhyFace,2,argument?,46,F_844.jpg,1628521842.43307,1628521842.44456,385.209754934311,8.29820609092712,393.512851228714,395.613634815216,0.3,397.064176549912,0.766952276229858,397.832266082764,3,right,0.749469041824341,397.831128826141,604.474857559204,607.234857559204,1628522230.40282,1628522230.40417,1628522238.70592,1628522238.71629,1628522240.8067,1628522242.25724,1628522242.25896,1628522243.02533,1628522243.02419,1628522449.66792,0
35,4,1,3,22,3,1,c1_WhyFace,1,argument?,41,F_712.jpg,1628521842.43307,1628521842.44456,385.209754934311,8.29820609092712,393.512851228714,395.613634815216,0.3,398.147913208008,1.28381156921387,399.439354171753,1,left,1.27203798294067,399.431724777222,604.474857559204,607.234857559204,1628522230.40282,1628522230.40417,1628522238.70592,1628522238.71629,1628522240.8067,1628522243.34098,1628522243.34249,1628522244.63242,1628522244.62479,1628522449.66792,1
35,4,1,3,22,4,1,c1_WhyFace,1,argument?,48,F_758.jpg,1628521842.43307,1628521842.44456,385.209754934311,8.29820609092712,393.512851228714,395.613634815216,0.3,399.748510351181,0.0166726112365723,399.772804012299,1,left,0.000242948532104492,399.765182962418,604.474857559204,607.234857559204,1628522230.40282,1628522230.40417,1628522238.70592,1628522238.71629,1628522240.8067,1628522244.94158,1628522244.94328,1628522244.96587,1628522244.95825,1628522449.66792,1
35,4,1,3,22,5,1,c1_WhyFace,2,argument?,45,F_433.jpg,1628521842.43307,1628521842.44456,385.209754934311,8.29820609092712,393.512851228714,395.613634815216,0.3,400.081967105865,1.1337571144104,401.223000040054,3,right,1.12199902534485,401.215724220276,604.474857559204,607.234857559204,1628522230.40282,1628522230.40417,1628522238.70592,1628522238.71629,1628522240.8067,1628522245.27503,1628522245.27707,1628522246.41607,1628522246.40879,1628522449.66792,0
35,4,1,3,22,6,1,c1_WhyFace,1,argument?,43,F_716.jpg,1628521842.43307,1628521842.44456,385.209754934311,8.29820609092712,393.512851228714,395.613634815216,0.3,401.532509317398,1.06706404685974,402.606272211075,1,left,1.05890703201294,402.599573364258,604.474857559204,607.234857559204,1628522230.40282,1628522230.40417,1628522238.70592,1628522238.71629,1628522240.8067,1628522246.72558,1628522246.72732,1628522247.79934,1628522247.79264,1628522449.66792,1
35,4,1,3,22,7,1,c1_WhyFace,2,argument?,44,F_139.jpg,1628521842.43307,1628521842.44456,385.209754934311,8.29820609092712,393.512851228714,395.613634815216,0.3,402.916357746124,0.733607292175293,403.656146993637,3,right,0.716687917709351,403.6499650383,604.474857559204,607.234857559204,1628522230.40282,1628522230.40417,1628522238.70592,1628522238.71629,1628522240.8067,1628522248.10942,1628522248.11068,1628522248.84921,1628522248.84303,1628522449.66792,0
35,4,1,3,22,8,1,c1_WhyFace,1,argument?,47,F_743.jpg,1628521842.43307,1628521842.44456,385.209754934311,8.29820609092712,393.512851228714,395.613634815216,0.3,403.966750135422,0.716933727264404,404.689120044708,1,left,0.708865880966187,404.683683862686,604.474857559204,607.234857559204,1628522230.40282,1628522230.40417,1628522238.70592,1628522238.71629,1628522240.8067,1628522249.15982,1628522249.16115,1628522249.88219,1628522249.87675,1628522449.66792,1
35,4,1,3,23,1,2,c2_WhyHand,1,helping?,39,H_024.jpg,1628521842.43307,1628521842.44456,404.767048826218,6.96099829673767,411.736314287186,413.837096681595,2.10078239440918,413.987153282166,1.18377494812012,415.172252168655,1,left,1.17214298248291,415.170928230286,604.474857559204,607.234857559204,1628522249.96011,1628522249.96596,1628522256.92938,1628522256.93287,1628522259.03016,1628522259.18022,1628522259.18248,1628522260.36532,1628522260.36399,1628522449.66792,1
35,4,1,3,23,2,2,c2_WhyHand,1,helping?,36,H_349.jpg,1628521842.43307,1628521842.44456,404.767048826218,6.96099829673767,411.736314287186,413.837096681595,0.3,415.487713327408,0.80029821395874,416.289839019775,1,left,0.777479887008667,416.288011541367,604.474857559204,607.234857559204,1628522249.96011,1628522249.96596,1628522256.92938,1628522256.93287,1628522259.03016,1628522260.68078,1628522260.68281,1628522261.4829,1628522261.48108,1628522449.66792,1
35,4,1,3,23,3,2,c2_WhyHand,1,helping?,38,H_077.jpg,1628521842.43307,1628521842.44456,404.767048826218,6.96099829673767,411.736314287186,413.837096681595,0.3,416.604796161652,0.967026710510254,417.573706140518,1,left,0.951473951339722,417.571822872162,604.474857559204,607.234857559204,1628522249.96011,1628522249.96596,1628522256.92938,1628522256.93287,1628522259.03016,1628522261.79786,1628522261.79981,1628522262.76677,1628522262.76489,1628522449.66792,1
35,4,1,3,23,4,2,c2_WhyHand,1,helping?,37,H_474.jpg,1628521842.43307,1628521842.44456,404.767048826218,6.96099829673767,411.736314287186,413.837096681595,0.3,417.888609876633,0.900334596633911,418.790389051437,1,left,0.882885932922363,418.788944473267,604.474857559204,607.234857559204,1628522249.96011,1628522249.96596,1628522256.92938,1628522256.93287,1628522259.03016,1628522263.08168,1628522263.08312,1628522263.98345,1628522263.98201,1628522449.66792,1
35,4,1,3,23,5,2,c2_WhyHand,2,helping?,33,H_091.jpg,1628521842.43307,1628521842.44456,404.767048826218,6.96099829673767,411.736314287186,413.837096681595,0.3,419.10572933197,0.850317001342773,419.957111110687,3,right,0.833332061767578,419.956046333313,604.474857559204,607.234857559204,1628522249.96011,1628522249.96596,1628522256.92938,1628522256.93287,1628522259.03016,1628522264.2988,1628522264.30026,1628522265.15018,1628522265.14911,1628522449.66792,0
35,4,1,3,23,6,2,c2_WhyHand,2,helping?,35,H_159.jpg,1628521842.43307,1628521842.44456,404.767048826218,6.96099829673767,411.736314287186,413.837096681595,0.3,420.272830953598,0.733606100082397,421.008033027649,3,right,0.71116304397583,421.00643705368,604.474857559204,607.234857559204,1628522249.96011,1628522249.96596,1628522256.92938,1628522256.93287,1628522259.03016,1628522265.4659,1628522265.46754,1628522266.2011,1628522266.1995,1628522449.66792,0
35,4,1,3,23,7,2,c2_WhyHand,1,helping?,34,H_111.jpg,1628521842.43307,1628521842.44456,404.767048826218,6.96099829673767,411.736314287186,413.837096681595,0.3,421.323222389221,0.700261831283569,422.024900188446,1,left,0.688107013702393,422.023484220505,604.474857559204,607.234857559204,1628522249.96011,1628522249.96596,1628522256.92938,1628522256.93287,1628522259.03016,1628522266.51629,1628522266.51801,1628522267.21797,1628522267.21655,1628522449.66792,1
35,4,1,3,23,8,2,c2_WhyHand,2,helping?,40,H_012.jpg,1628521842.43307,1628521842.44456,404.767048826218,6.96099829673767,411.736314287186,413.837096681595,0.3,422.340268125534,0.917008876800537,423.258302202225,3,right,0.895104169845581,423.257277002335,604.474857559204,607.234857559204,1628522249.96011,1628522249.96596,1628522256.92938,1628522256.93287,1628522259.03016,1628522267.53333,1628522267.53508,1628522268.45137,1628522268.45034,1628522449.66792,0
35,4,1,3,24,1,4,c4_HowHand,1,both hands?,122,H_111.jpg,1628521842.43307,1628521842.44456,423.323967924118,6.47392416000366,429.809720983505,431.910504570007,2.10078358650208,432.060560455322,1.08373785018921,433.145415058136,1,left,1.06192708015442,433.144298305511,604.474857559204,607.234857559204,1628522268.51703,1628522268.53277,1628522275.00279,1628522275.00497,1628522277.10357,1628522277.25363,1628522277.25553,1628522278.33848,1628522278.33736,1628522449.66792,1
35,4,1,3,24,2,4,c4_HowHand,1,both hands?,128,H_027.jpg,1628521842.43307,1628521842.44456,423.323967924118,6.47392416000366,429.809720983505,431.910504570007,0.3,433.461081733704,0.800299406051636,434.263101091385,1,left,0.78243088722229,434.261381139755,604.474857559204,607.234857559204,1628522268.51703,1628522268.53277,1628522275.00279,1628522275.00497,1628522277.10357,1628522278.65415,1628522278.65588,1628522279.45617,1628522279.45445,1628522449.66792,1
35,4,1,3,24,3,4,c4_HowHand,2,both hands?,121,H_091.jpg,1628521842.43307,1628521842.44456,423.323967924118,6.47392416000366,429.809720983505,431.910504570007,0.3,434.578165998459,0.716932773590088,435.30627202034,3,right,0.706352949142456,435.295098772049,604.474857559204,607.234857559204,1628522268.51703,1628522268.53277,1628522275.00279,1628522275.00497,1628522277.10357,1628522279.77123,1628522279.77286,1628522280.49934,1628522280.48816,1628522449.66792,0
35,4,1,3,24,4,4,c4_HowHand,1,both hands?,123,H_167.jpg,1628521842.43307,1628521842.44456,423.323967924118,6.47392416000366,429.809720983505,431.910504570007,0.3,435.61188410759,0.683588027954102,436.296523084641,1,left,0.664474964141846,436.295472135544,604.474857559204,607.234857559204,1628522268.51703,1628522268.53277,1628522275.00279,1628522275.00497,1628522277.10357,1628522280.80495,1628522280.80691,1628522281.48959,1628522281.48854,1628522449.66792,1
35,4,1,3,24,5,4,c4_HowHand,1,both hands?,124,H_581.jpg,1628521842.43307,1628521842.44456,423.323967924118,6.47392416000366,429.809720983505,431.910504570007,0.3,436.612261047363,0.866986274719238,437.480770101547,1,left,0.843502044677734,437.479247322083,604.474857559204,607.234857559204,1628522268.51703,1628522268.53277,1628522275.00279,1628522275.00497,1628522277.10357,1628522281.80533,1628522281.80729,1628522282.67384,1628522282.67231,1628522449.66792,1
35,4,1,3,24,6,4,c4_HowHand,2,both hands?,126,H_159.jpg,1628521842.43307,1628521842.44456,423.323967924118,6.47392416000366,429.809720983505,431.910504570007,0.3,437.79603146553,0.666915655136108,438.472348203659,3,right,0.655310869216919,438.462947120667,604.474857559204,607.234857559204,1628522268.51703,1628522268.53277,1628522275.00279,1628522275.00497,1628522277.10357,1628522282.9891,1628522282.99011,1628522283.66541,1628522283.65601,1628522449.66792,0
35,4,1,3,24,7,4,c4_HowHand,1,both hands?,127,H_349.jpg,1628521842.43307,1628521842.44456,423.323967924118,6.47392416000366,429.809720983505,431.910504570007,0.3,438.779731740952,0.600224256515503,439.388989200592,1,left,0.592211008071899,439.379955997467,604.474857559204,607.234857559204,1628522268.51703,1628522268.53277,1628522275.00279,1628522275.00497,1628522277.10357,1628522283.9728,1628522283.9745,1628522284.58206,1628522284.57302,1628522449.66792,1
35,4,1,3,24,8,4,c4_HowHand,2,both hands?,125,H_627.jpg,1628521842.43307,1628521842.44456,423.323967924118,6.47392416000366,429.809720983505,431.910504570007,0.3,439.696741094589,1.01704597473145,440.723300209045,3,right,1.00274991989136,440.713787069321,604.474857559204,607.234857559204,1628522268.51703,1628522268.53277,1628522275.00279,1628522275.00497,1628522277.10357,1628522284.88981,1628522284.89147,1628522285.91637,1628522285.90685,1628522449.66792,0
35,4,1,3,25,1,2,c2_WhyHand,1,healthy?,18,H_438.jpg,1628521842.43307,1628521842.44456,440.797151079178,6.51772093772888,447.332921733856,449.433704843521,2.10078310966492,449.583762159348,0.983698606491089,450.572387208939,1,left,0.964946985244751,450.567460765839,604.474857559204,607.234857559204,1628522285.99022,1628522285.99925,1628522292.52599,1628522292.52796,1628522294.62677,1628522294.77683,1628522294.77908,1628522295.76545,1628522295.76053,1628522449.66792,1
35,4,1,3,25,2,2,c2_WhyHand,1,healthy?,23,H_364.jpg,1628521842.43307,1628521842.44456,440.797151079178,6.51772093772888,447.332921733856,449.433704843521,0.3,450.884246339798,0.783626079559326,451.672718038559,1,left,0.770500898361206,451.667872419357,604.474857559204,607.234857559204,1628522285.99022,1628522285.99925,1628522292.52599,1628522292.52796,1628522294.62677,1628522296.07731,1628522296.07912,1628522296.86578,1628522296.86094,1628522449.66792,1
35,4,1,3,25,3,2,c2_WhyHand,1,healthy?,17,H_362.jpg,1628521842.43307,1628521842.44456,440.797151079178,6.51772093772888,447.332921733856,449.433704843521,0.3,451.984657278061,0.666914939880371,452.652693023682,1,left,0.644320011138916,452.651572217941,604.474857559204,607.234857559204,1628522285.99022,1628522285.99925,1628522292.52599,1628522292.52796,1628522294.62677,1628522297.17772,1628522297.17953,1628522297.84576,1628522297.84464,1628522449.66792,1
35,4,1,3,25,4,2,c2_WhyHand,2,healthy?,24,H_019.jpg,1628521842.43307,1628521842.44456,440.797151079178,6.51772093772888,447.332921733856,449.433704843521,0.3,452.968356838226,0.616896152496338,453.588981142044,3,right,0.60212516784668,453.585252990723,604.474857559204,607.234857559204,1628522285.99022,1628522285.99925,1628522292.52599,1628522292.52796,1628522294.62677,1628522298.16142,1628522298.16598,1628522298.78205,1628522298.77832,1628522449.66792,0
35,4,1,3,25,5,2,c2_WhyHand,1,healthy?,19,H_167.jpg,1628521842.43307,1628521842.44456,440.797151079178,6.51772093772888,447.332921733856,449.433704843521,0.3,453.902039518356,0.566877603530884,454.472815027237,1,left,0.548206090927124,454.468917121887,604.474857559204,607.234857559204,1628522285.99022,1628522285.99925,1628522292.52599,1628522292.52796,1628522294.62677,1628522299.09511,1628522299.09932,1628522299.66588,1628522299.66198,1628522449.66792,1
35,4,1,3,25,6,2,c2_WhyHand,2,healthy?,20,H_007.jpg,1628521842.43307,1628521842.44456,440.797151079178,6.51772093772888,447.332921733856,449.433704843521,0.3,454.785701503754,0.716933965682983,455.50598405838,3,right,0.695864915847778,455.502635469437,604.474857559204,607.234857559204,1628522285.99022,1628522285.99925,1628522292.52599,1628522292.52796,1628522294.62677,1628522299.97877,1628522299.98285,1628522300.69905,1628522300.6957,1628522449.66792,0
35,4,1,3,25,7,2,c2_WhyHand,1,healthy?,21,H_627.jpg,1628521842.43307,1628521842.44456,440.797151079178,6.51772093772888,447.332921733856,449.433704843521,0.3,455.819420566559,0.983699560165405,456.805998077393,1,left,0.963597059249878,456.803120126724,604.474857559204,607.234857559204,1628522285.99022,1628522285.99925,1628522292.52599,1628522292.52796,1628522294.62677,1628522301.01249,1628522301.01629,1628522301.99906,1628522301.99619,1628522449.66792,1
35,4,1,3,25,8,2,c2_WhyHand,2,healthy?,22,H_130.jpg,1628521842.43307,1628521842.44456,440.797151079178,6.51772093772888,447.332921733856,449.433704843521,0.3,457.119904508591,0.816971778869629,457.938919057846,3,right,0.805830955505371,457.93687628746,604.474857559204,607.234857559204,1628522285.99022,1628522285.99925,1628522292.52599,1628522292.52796,1628522294.62677,1628522302.31297,1628522302.31621,1628522303.13198,1628522303.12994,1628522449.66792,0
35,4,1,3,26,1,4,c4_HowHand,1,pressing button?,82,H_126.jpg,1628521842.43307,1628521842.44456,458.020241727829,8.34867334365845,466.373356332779,468.474138727188,2.10078239440918,468.624195327759,0.983700275421143,469.608822097778,1,left,0.957206010818481,469.60789560318,604.474857559204,607.234857559204,1628522303.21331,1628522303.21606,1628522311.56642,1628522311.5828,1628522313.6672,1628522313.81726,1628522313.83283,1628522314.80189,1628522314.80096,1628522449.66792,1
35,4,1,3,26,2,4,c4_HowHand,2,pressing button?,85,H_130.jpg,1628521842.43307,1628521842.44456,458.020241727829,8.34867334365845,466.373356332779,468.474138727188,0.3,469.924681177139,1.18377447128296,471.110150089264,3,right,1.16348099708557,471.108455648422,604.474857559204,607.234857559204,1628522303.21331,1628522303.21606,1628522311.56642,1628522311.5828,1628522313.6672,1628522315.11775,1628522315.11959,1628522316.30322,1628522316.30152,1628522449.66792,0
35,4,1,3,26,3,4,c4_HowHand,1,pressing button?,84,H_483.jpg,1628521842.43307,1628521842.44456,458.020241727829,8.34867334365845,466.373356332779,468.474138727188,0.3,471.425240268707,0.866990089416504,472.293261995316,1,left,0.844087839126587,472.292230358124,604.474857559204,607.234857559204,1628522303.21331,1628522303.21606,1628522311.56642,1628522311.5828,1628522313.6672,1628522316.61831,1628522316.61997,1628522317.48633,1628522317.4853,1628522449.66792,1
35,4,1,3,26,4,4,c4_HowHand,2,pressing button?,87,H_024.jpg,1628521842.43307,1628521842.44456,458.020241727829,8.34867334365845,466.373356332779,468.474138727188,0.3,472.609015216827,0.700258731842041,473.310301055908,3,right,0.677366971969604,473.309273948669,604.474857559204,607.234857559204,1628522303.21331,1628522303.21606,1628522311.56642,1628522311.5828,1628522313.6672,1628522317.80208,1628522317.80403,1628522318.50337,1628522318.50234,1628522449.66792,0
35,4,1,3,26,5,4,c4_HowHand,1,pressing button?,86,H_332.jpg,1628521842.43307,1628521842.44456,458.020241727829,8.34867334365845,466.373356332779,468.474138727188,0.3,473.626060714722,0.600223541259766,474.227631082535,1,left,0.584053039550781,474.226284255981,604.474857559204,607.234857559204,1628522303.21331,1628522303.21606,1628522311.56642,1628522311.5828,1628522313.6672,1628522318.81913,1628522318.82078,1628522319.4207,1628522319.41935,1628522449.66792,1
35,4,1,3,26,6,4,c4_HowHand,1,pressing button?,88,H_019.jpg,1628521842.43307,1628521842.44456,458.020241727829,8.34867334365845,466.373356332779,468.474138727188,0.3,474.543070545197,0.583549022674561,475.127923002243,1,left,0.561578989028931,475.126619567871,604.474857559204,607.234857559204,1628522303.21331,1628522303.21606,1628522311.56642,1628522311.5828,1628522313.6672,1628522319.73614,1628522319.73789,1628522320.32099,1628522320.31969,1628522449.66792,1
35,4,1,3,26,7,4,c4_HowHand,2,pressing button?,81,H_261.jpg,1628521842.43307,1628521842.44456,458.020241727829,8.34867334365845,466.373356332779,468.474138727188,0.3,475.443405618668,0.650241613388062,476.09557103157,3,right,0.634160995483398,476.093647232056,604.474857559204,607.234857559204,1628522303.21331,1628522303.21606,1628522311.56642,1628522311.5828,1628522313.6672,1628522320.63647,1628522320.63785,1628522321.28864,1628522321.28671,1628522449.66792,0
35,4,1,3,26,8,4,c4_HowHand,1,pressing button?,83,H_502.jpg,1628521842.43307,1628521842.44456,458.020241727829,8.34867334365845,466.373356332779,468.474138727188,0.3,476.410432329178,0.750280141830444,477.162371149063,1,left,0.734684944152832,477.160712471008,604.474857559204,607.234857559204,1628522303.21331,1628522303.21606,1628522311.56642,1628522311.5828,1628522313.6672,1628522321.6035,1628522321.60533,1628522322.35544,1628522322.35378,1628522449.66792,1
35,4,1,3,27,1,3,c3_HowFace,1,looking at camera?,60,F_618.jpg,1628521842.43307,1628521842.44456,477.244076480865,6.65480661392212,483.913229694366,486.014013280869,2.10078358650208,486.164070358276,0.700261116027832,486.865895023346,1,left,0.681396961212158,486.864331474304,604.474857559204,607.234857559204,1628522322.43714,1628522322.43826,1628522329.1063,1628522329.10805,1628522331.20708,1628522331.35714,1628522331.35895,1628522332.05896,1628522332.0574,1628522449.66792,1
35,4,1,3,27,2,3,c3_HowFace,2,looking at camera?,58,F_754.jpg,1628521842.43307,1628521842.44456,477.244076480865,6.65480661392212,483.913229694366,486.014013280869,0.3,487.181114664078,0.750280380249023,487.933100214005,3,right,0.730358123779297,487.931395044327,604.474857559204,607.234857559204,1628522322.43714,1628522322.43826,1628522329.1063,1628522329.10805,1628522331.20708,1628522332.37418,1628522332.37578,1628522333.12617,1628522333.12446,1628522449.66792,0
35,4,1,3,27,3,3,c3_HowFace,1,looking at camera?,59,F_129.jpg,1628521842.43307,1628521842.44456,477.244076480865,6.65480661392212,483.913229694366,486.014013280869,0.3,488.24817990303,0.716934204101562,488.972405185699,1,left,0.702682018280029,488.965114107132,604.474857559204,607.234857559204,1628522322.43714,1628522322.43826,1628522329.1063,1628522329.10805,1628522331.20708,1628522333.44125,1628522333.44299,1628522334.16547,1628522334.15818,1628522449.66792,1
35,4,1,3,27,4,3,c3_HowFace,1,looking at camera?,62,F_598.jpg,1628521842.43307,1628521842.44456,477.244076480865,6.65480661392212,483.913229694366,486.014013280869,0.3,489.281898965836,0.600223779678345,489.889748086929,1,left,0.586741924285889,489.882122745514,604.474857559204,607.234857559204,1628522322.43714,1628522322.43826,1628522329.1063,1628522329.10805,1628522331.20708,1628522334.47496,1628522334.47647,1628522335.08281,1628522335.07519,1628522449.66792,1
35,4,1,3,27,5,3,c3_HowFace,1,looking at camera?,64,F_128.jpg,1628521842.43307,1628521842.44456,477.244076480865,6.65480661392212,483.913229694366,486.014013280869,0.3,490.198909034729,0.666913986206055,490.872405996323,1,left,0.651421785354614,490.865823020935,604.474857559204,607.234857559204,1628522322.43714,1628522322.43826,1628522329.1063,1628522329.10805,1628522331.20708,1628522335.39197,1628522335.39396,1628522336.06547,1628522336.05889,1628522449.66792,1
35,4,1,3,27,6,3,c3_HowFace,2,looking at camera?,57,F_582.jpg,1628521842.43307,1628521842.44456,477.244076480865,6.65480661392212,483.913229694366,486.014013280869,0.3,491.182608594894,0.983699560165405,492.172820081711,3,right,0.969274044036865,492.16630815506,604.474857559204,607.234857559204,1628522322.43714,1628522322.43826,1628522329.1063,1628522329.10805,1628522331.20708,1628522336.37567,1628522336.37758,1628522337.36589,1628522337.35937,1628522449.66792,0
35,4,1,3,27,7,3,c3_HowFace,1,looking at camera?,61,F_774.jpg,1628521842.43307,1628521842.44456,477.244076480865,6.65480661392212,483.913229694366,486.014013280869,0.3,492.483093252182,0.600224018096924,493.089299192429,1,left,0.590273857116699,493.083317270279,604.474857559204,607.234857559204,1628522322.43714,1628522322.43826,1628522329.1063,1628522329.10805,1628522331.20708,1628522337.67616,1628522337.67793,1628522338.28237,1628522338.27638,1628522449.66792,1
