src_subject_id,session_id,run_id,param_counterbalance_ver,param_block_num,param_trial_num,param_cond_type_num,param_cond_type_string,param_normative_response,param_ques_type_string,param_image_num,param_image_filename,param_trigger_onset,param_start_biopac,event01_fixation,event01_fixation_dur,event01_blockquestion_onset,event01_block_isi_blacksreen,event01_blockquestion_dur,event02_image_onset,event02_image_dur,event03_response_onset,event03_response_key,event03_response_keyname,event03_RT,event04_shortquestion_onset,param_end_instruct_onset,param_experiment_duration,RAW_e1_fixation,RAW_e1_fixation_biopac,RAW_e1_blockquestion_onset,RAW_e1_blockquestion_onset_biopac,RAW_e1_block_isi_blacksreen,RAW_e2_image_onset,RAW_e2_image_onset_biopac,RAW_e3_response_onset,RAW_e4_shortquestion_onset,RAW_param_end_instruct_onset,accuracy
8,4,2,3,1,1,4,c4_HowHand,1,reaching?,107,H_007.jpg,1616688847.76846,1616688847.77043,0.01749228477478,0.0416157245635986,0.0675113105773923,2.11828660011291,2.05077528953552,2.26834343910217,1.33383655548096,3.61944889068603,1,left,1.31696105003357,3.60217999458313,604.479366531372,607.239366531372,1616688850.54595,1616688850.55147,1616688850.59597,1616688850.5974,1616688852.64674,1616688852.7968,1616688852.79872,1616688854.1479,1616688854.13064,1616689455.00782,1
8,4,2,3,1,2,4,c4_HowHand,2,reaching?,108,H_532.jpg,1616688847.76846,1616688847.77043,0.01749228477478,0.0416157245635986,0.0675113105773923,2.11828660011291,0.3,3.91896723747253,1.43387627601624,5.35463189125061,3,right,1.41588401794434,5.35284351348877,604.479366531372,607.239366531372,1616688850.54595,1616688850.55147,1616688850.59597,1616688850.5974,1616688852.64674,1616688854.44742,1616688854.44923,1616688855.88309,1616688855.8813,1616689455.00782,0
8,4,2,3,1,3,4,c4_HowHand,1,reaching?,109,H_474.jpg,1616688847.76846,1616688847.77043,0.01749228477478,0.0416157245635986,0.0675113105773923,2.11828660011291,0.3,5.66962956428528,1.23379969596863,6.9051349067688,1,left,1.21724390983582,6.90342926025391,604.479366531372,607.239366531372,1616688850.54595,1616688850.55147,1616688850.59597,1616688850.5974,1616688852.64674,1616688856.19808,1616688856.19972,1616688857.43359,1616688857.43188,1616689455.00782,1
8,4,2,3,1,4,4,c4_HowHand,2,reaching?,105,H_438.jpg,1616688847.76846,1616688847.77043,0.01749228477478,0.0416157245635986,0.0675113105773923,2.11828660011291,0.3,7.22021602630615,1.71731543540955,9.06223200798035,3,right,1.82026906013489,8.9375314617157,604.479366531372,607.239366531372,1616688850.54595,1616688850.55147,1616688850.59597,1616688850.5974,1616688852.64674,1616688857.74867,1616688857.75061,1616688859.59069,1616688859.46599,1616689455.00782,0
8,4,2,3,1,5,4,c4_HowHand,1,reaching?,110,H_364.jpg,1616688847.76846,1616688847.77043,0.01749228477478,0.0416157245635986,0.0675113105773923,2.11828660011291,0.3,9.25431822776794,0.0166733264923096,9.27424692153931,3,right,0.000370025634765625,9.27099155426025,604.479366531372,607.239366531372,1616688850.54595,1616688850.55147,1616688850.59597,1616688850.5974,1616688852.64674,1616688859.78277,1616688859.78534,1616688859.8027,1616688859.79945,1616689455.00782,0
8,4,2,3,1,6,4,c4_HowHand,1,reaching?,106,H_006.jpg,1616688847.76846,1616688847.77043,0.01749228477478,0.0416157245635986,0.0675113105773923,2.11828660011291,0.3,9.58777784347534,1.03372406959534,10.6365048789978,1,left,1.02607893943787,10.6215019130707,604.479366531372,607.239366531372,1616688850.54595,1616688850.55147,1616688850.59597,1616688850.5974,1616688852.64674,1616688860.11623,1616688860.11805,1616688861.16496,1616688861.14996,1616689455.00782,1
8,4,2,3,1,7,4,c4_HowHand,1,reaching?,111,H_003.jpg,1616688847.76846,1616688847.77043,0.01749228477478,0.0416157245635986,0.0675113105773923,2.11828660011291,0.3,10.9382884407043,0.950359344482422,11.8895459079742,1,left,0.939047813415527,11.8886477851868,604.479366531372,607.239366531372,1616688850.54595,1616688850.55147,1616688850.59597,1616688850.5974,1616688852.64674,1616688861.46674,1616688861.46859,1616688862.418,1616688862.4171,1616689455.00782,1
8,4,2,3,1,8,4,c4_HowHand,2,reaching?,112,H_132.jpg,1616688847.76846,1616688847.77043,0.01749228477478,0.0416157245635986,0.0675113105773923,2.11828660011291,0.3,12.2054340744019,0.0166723728179932,12.223197927475,1,left,0.000324010848999023,12.2221064472198,604.479366531372,607.239366531372,1616688850.54595,1616688850.55147,1616688850.59597,1616688850.5974,1616688852.64674,1616688862.73389,1616688862.73569,1616688862.75165,1616688862.75056,1616689455.00782,0
8,4,2,3,2,1,2,c2_WhyHand,1,healthy?,21,H_627.jpg,1616688847.76846,1616688847.77043,12.355490436554,5.1755485534668,17.5407843494415,19.6415784263611,2.10079407691956,19.7916355037689,1.28381896018982,21.0861339473724,1,left,1.27486515045166,21.0754544639587,604.479366531372,607.239366531372,1616688862.88395,1616688862.88572,1616688868.06924,1616688868.07112,1616688870.17003,1616688870.32009,1616688870.32173,1616688871.61459,1616688871.60391,1616689455.00782,1
8,4,2,3,2,2,2,c2_WhyHand,1,healthy?,18,H_438.jpg,1616688847.76846,1616688847.77043,12.355490436554,5.1755485534668,17.5407843494415,19.6415784263611,0.3,21.3922409915924,1.71731519699097,23.2737619781494,3,right,1.86045308113098,23.1095561885834,604.479366531372,607.239366531372,1616688862.88395,1616688862.88572,1616688868.06924,1616688868.07112,1616688870.17003,1616688871.9207,1616688871.92223,1616688873.80222,1616688873.63801,1616689455.00782,0
8,4,2,3,2,3,2,c2_WhyHand,1,healthy?,23,H_364.jpg,1616688847.76846,1616688847.77043,12.355490436554,5.1755485534668,17.5407843494415,19.6415784263611,0.3,23.4263431930542,0.0166730880737305,23.4530200862885,3,right,0.00023198127746582,23.4430162811279,604.479366531372,607.239366531372,1616688862.88395,1616688862.88572,1616688868.06924,1616688868.07112,1616688870.17003,1616688873.9548,1616688873.95639,1616688873.98148,1616688873.97147,1616689455.00782,0
8,4,2,3,2,4,2,c2_WhyHand,2,healthy?,22,H_130.jpg,1616688847.76846,1616688847.77043,12.355490436554,5.1755485534668,17.5407843494415,19.6415784263611,0.3,23.7598030471802,1.5839307308197,25.3447880649567,3,right,1.56411814689636,25.3437337779999,604.479366531372,607.239366531372,1616688862.88395,1616688862.88572,1616688868.06924,1616688868.07112,1616688870.17003,1616688874.28826,1616688874.29006,1616688875.87324,1616688875.87219,1616689455.00782,0
8,4,2,3,2,5,2,c2_WhyHand,1,healthy?,17,H_362.jpg,1616688847.76846,1616688847.77043,12.355490436554,5.1755485534668,17.5407843494415,19.6415784263611,0.3,25.6605219745636,1.01705074310303,26.6856088542938,1,left,1.01024794578552,26.6775727176666,604.479366531372,607.239366531372,1616688862.88395,1616688862.88572,1616688868.06924,1616688868.07112,1616688870.17003,1616688876.18898,1616688876.19044,1616688877.21406,1616688877.20603,1616689455.00782,1
8,4,2,3,2,6,2,c2_WhyHand,2,healthy?,20,H_007.jpg,1616688847.76846,1616688847.77043,12.355490436554,5.1755485534668,17.5407843494415,19.6415784263611,0.3,26.9943590068817,1.33383750915527,28.3356449508667,3,right,1.32378721237183,28.328196516037,604.479366531372,607.239366531372,1616688862.88395,1616688862.88572,1616688868.06924,1616688868.07112,1616688870.17003,1616688877.52281,1616688877.52439,1616688878.8641,1616688878.85665,1616689455.00782,0
8,4,2,3,2,7,2,c2_WhyHand,1,healthy?,19,H_167.jpg,1616688847.76846,1616688847.77043,12.355490436554,5.1755485534668,17.5407843494415,19.6415784263611,0.3,28.6449825668335,0.917012929916382,29.5693740749359,1,left,0.906052112579346,29.5619954967499,604.479366531372,607.239366531372,1616688862.88395,1616688862.88572,1616688868.06924,1616688868.07112,1616688870.17003,1616688879.17344,1616688879.17526,1616688880.09783,1616688880.09045,1616689455.00782,1
8,4,2,3,2,8,2,c2_WhyHand,2,healthy?,24,H_019.jpg,1616688847.76846,1616688847.77043,12.355490436554,5.1755485534668,17.5407843494415,19.6415784263611,0.3,29.8787829780579,1.30049133300781,31.1856870555878,3,right,1.29331707954407,31.1792743110657,604.479366531372,607.239366531372,1616688862.88395,1616688862.88572,1616688868.06924,1616688868.07112,1616688870.17003,1616688880.40724,1616688880.40876,1616688881.71414,1616688881.70773,1616689455.00782,0
8,4,2,3,3,1,1,c1_WhyFace,1,admiring?,4,F_779.jpg,1616688847.76846,1616688847.77043,31.26263879776,5.37644028663635,36.6480085754395,38.7488028907776,2.10079431533813,38.8988597297668,0.950358629226685,39.8529510402679,1,left,0.926390171051025,39.8492183589935,604.479366531372,607.239366531372,1616688881.79109,1616688881.79286,1616688887.17646,1616688887.18174,1616688889.27726,1616688889.42731,1616688889.43176,1616688890.38141,1616688890.37767,1616689455.00782,1
8,4,2,3,3,2,1,c1_WhyFace,1,admiring?,1,F_593.jpg,1616688847.76846,1616688847.77043,31.26263879776,5.37644028663635,36.6480085754395,38.7488028907776,0.3,40.1660060787201,1.00037789344788,41.1691779994965,1,left,0.986402988433838,41.166383972168,604.479366531372,607.239366531372,1616688881.79109,1616688881.79286,1616688887.17646,1616688887.18174,1616688889.27726,1616688890.69446,1616688890.69824,1616688891.69763,1616688891.69484,1616689455.00782,1
8,4,2,3,3,3,1,c1_WhyFace,2,admiring?,3,F_110.jpg,1616688847.76846,1616688847.77043,31.26263879776,5.37644028663635,36.6480085754395,38.7488028907776,0.3,41.4831709766388,0.8836669921875,42.3696639442444,3,right,0.865703105926514,42.3668379688263,604.479366531372,607.239366531372,1616688881.79109,1616688881.79286,1616688887.17646,1616688887.18174,1616688889.27726,1616688892.01163,1616688892.01453,1616688892.89812,1616688892.89529,1616689455.00782,0
8,4,2,3,3,4,1,c1_WhyFace,1,admiring?,8,F_590.jpg,1616688847.76846,1616688847.77043,31.26263879776,5.37644028663635,36.6480085754395,38.7488028907776,0.3,42.68362449646,0.750283002853394,43.4358179473877,1,left,0.72650408744812,43.4339074993134,604.479366531372,607.239366531372,1616688881.79109,1616688881.79286,1616688887.17646,1616688887.18174,1616688889.27726,1616688893.21208,1616688893.21537,1616688893.96427,1616688893.96236,1616689455.00782,1
8,4,2,3,3,5,1,c1_WhyFace,2,admiring?,6,F_692.jpg,1616688847.76846,1616688847.77043,31.26263879776,5.37644028663635,36.6480085754395,38.7488028907776,0.3,43.7506942653656,0.983705520629883,44.7357818984985,3,right,0.969058990478516,44.7343997859955,604.479366531372,607.239366531372,1616688881.79109,1616688881.79286,1616688887.17646,1616688887.18174,1616688889.27726,1616688894.27915,1616688894.28155,1616688895.26424,1616688895.26285,1616689455.00782,0
8,4,2,3,3,6,1,c1_WhyFace,1,admiring?,5,F_759.jpg,1616688847.76846,1616688847.77043,31.26263879776,5.37644028663635,36.6480085754395,38.7488028907776,0.3,45.0511855983734,0.633572816848755,45.6863019371033,1,left,0.622344970703125,45.6847584152222,604.479366531372,607.239366531372,1616688881.79109,1616688881.79286,1616688887.17646,1616688887.18174,1616688889.27726,1616688895.57964,1616688895.58149,1616688896.21476,1616688896.21321,1616689455.00782,1
8,4,2,3,3,7,1,c1_WhyFace,1,admiring?,7,F_648.jpg,1616688847.76846,1616688847.77043,31.26263879776,5.37644028663635,36.6480085754395,38.7488028907776,0.3,46.001545419693,0.733609914779663,46.7367849254608,1,left,0.72255802154541,46.7351553344727,604.479366531372,607.239366531372,1616688881.79109,1616688881.79286,1616688887.17646,1616688887.18174,1616688889.27726,1616688896.53,1616688896.53175,1616688897.26524,1616688897.26361,1616689455.00782,1
8,4,2,3,3,8,1,c1_WhyFace,2,admiring?,2,F_129.jpg,1616688847.76846,1616688847.77043,31.26263879776,5.37644028663635,36.6480085754395,38.7488028907776,0.3,47.0519428157806,1.01705074310303,48.0704109573364,3,right,1.0013279914856,48.0689935588837,604.479366531372,607.239366531372,1616688881.79109,1616688881.79286,1616688887.17646,1616688887.18174,1616688889.27726,1616688897.5804,1616688897.58186,1616688898.59887,1616688898.59745,1616689455.00782,0
8,4,2,3,4,1,3,c3_HowFace,1,smiling?,119,F_139.jpg,1616688847.76846,1616688847.77043,48.1356854343414,7.4674334526062,55.6218492889404,57.7059700393677,2.08412075042725,57.8560280704498,1.38385581970215,59.2414100074768,1,left,1.3489191532135,59.239883890152,604.479366531372,607.239366531372,1616688898.66414,1616688898.6656,1616688906.1503,1616688906.15327,1616688908.23443,1616688908.38448,1616688908.39854,1616688909.76987,1616688909.76834,1616689455.00782,1
8,4,2,3,4,2,3,c3_HowFace,2,smiling?,113,F_712.jpg,1616688847.76846,1616688847.77043,48.1356854343414,7.4674334526062,55.6218492889404,57.7059700393677,0.3,59.5566706562042,0.833648204803467,60.3917150402069,3,right,0.810060024261475,60.3903188610077,604.479366531372,607.239366531372,1616688898.66414,1616688898.6656,1616688906.1503,1616688906.15327,1616688908.23443,1616688910.08513,1616688910.08662,1616688910.92017,1616688910.91877,1616689455.00782,0
8,4,2,3,4,3,3,c3_HowFace,1,smiling?,115,F_695.jpg,1616688847.76846,1616688847.77043,48.1356854343414,7.4674334526062,55.6218492889404,57.7059700393677,0.3,60.707104434967,0.650244951248169,61.3588769340515,1,left,0.630306959152222,61.3573493862152,604.479366531372,607.239366531372,1616688898.66414,1616688898.6656,1616688906.1503,1616688906.15327,1616688908.23443,1616688911.23556,1616688911.23751,1616688911.88733,1616688911.8858,1616689455.00782,1
8,4,2,3,4,4,3,c3_HowFace,2,smiling?,120,F_758.jpg,1616688847.76846,1616688847.77043,48.1356854343414,7.4674334526062,55.6218492889404,57.7059700393677,0.3,61.6741375827789,0.716938495635986,62.3921348953247,3,right,0.695858001708984,62.3910760784149,604.479366531372,607.239366531372,1616688898.66414,1616688898.6656,1616688906.1503,1616688906.15327,1616688908.23443,1616688912.20259,1616688912.20435,1616688912.92059,1616688912.91953,1616689455.00782,0
8,4,2,3,4,5,3,c3_HowFace,1,smiling?,116,F_083.jpg,1616688847.76846,1616688847.77043,48.1356854343414,7.4674334526062,55.6218492889404,57.7059700393677,0.3,62.7078611755371,0.633573532104492,63.3430879020691,1,left,0.617163896560669,63.3414347076416,604.479366531372,607.239366531372,1616688898.66414,1616688898.6656,1616688906.1503,1616688906.15327,1616688908.23443,1616688913.23632,1616688913.23788,1616688913.87154,1616688913.86989,1616689455.00782,1
8,4,2,3,4,6,3,c3_HowFace,1,smiling?,118,F_759.jpg,1616688847.76846,1616688847.77043,48.1356854343414,7.4674334526062,55.6218492889404,57.7059700393677,0.3,63.6582207584381,0.716938018798828,64.376538028717,1,left,0.6996009349823,64.3751587772369,604.479366531372,607.239366531372,1616688898.66414,1616688898.6656,1616688906.1503,1616688906.15327,1616688908.23443,1616688914.18668,1616688914.18867,1616688914.90499,1616688914.90361,1616689455.00782,1
8,4,2,3,4,7,3,c3_HowFace,2,smiling?,114,F_412.jpg,1616688847.76846,1616688847.77043,48.1356854343414,7.4674334526062,55.6218492889404,57.7059700393677,0.3,64.6919455432892,0.800302267074585,65.4940929317474,3,right,0.783215045928955,65.4922478103638,604.479366531372,607.239366531372,1616688898.66414,1616688898.6656,1616688906.1503,1616688906.15327,1616688908.23443,1616688915.2204,1616688915.22189,1616688916.02255,1616688916.0207,1616689455.00782,0
8,4,2,3,4,8,3,c3_HowFace,1,smiling?,117,F_593.jpg,1616688847.76846,1616688847.77043,48.1356854343414,7.4674334526062,55.6218492889404,57.7059700393677,0.3,65.8090350532532,0.850319385528564,66.6695539855957,1,left,0.837095975875854,66.6593544387817,604.479366531372,607.239366531372,1616688898.66414,1616688898.6656,1616688906.1503,1616688906.15327,1616688908.23443,1616688916.33749,1616688916.33955,1616688917.19801,1616688917.18781,1616689455.00782,1
8,4,2,3,5,1,4,c4_HowHand,1,lifting?,56,H_136.jpg,1616688847.76846,1616688847.77043,66.7260479831696,6.40780997276306,73.1451418304443,75.2459351921081,2.10079336166382,75.3959925079346,0.933686494827271,76.3359389209747,1,left,0.912221908569336,76.3296790027618,604.479366531372,607.239366531372,1616688917.2545,1616688917.266,1616688923.6736,1616688923.68295,1616688925.77439,1616688925.92445,1616688925.93233,1616688926.86439,1616688926.85813,1616689455.00782,1
8,4,2,3,5,2,4,c4_HowHand,2,lifting?,51,H_038.jpg,1616688847.76846,1616688847.77043,66.7260479831696,6.40780997276306,73.1451418304443,75.2459351921081,0.3,76.6464643383026,1.28381943702698,77.9318890476227,3,right,1.26146411895752,77.9302837753296,604.479366531372,607.239366531372,1616688917.2545,1616688917.266,1616688923.6736,1616688923.68295,1616688925.77439,1616688927.17492,1616688927.17637,1616688928.46034,1616688928.45874,1616689455.00782,0
8,4,2,3,5,3,4,c4_HowHand,1,lifting?,52,H_189.jpg,1616688847.76846,1616688847.77043,66.7260479831696,6.40780997276306,73.1451418304443,75.2459351921081,0.3,78.2470705413818,0.933686256408691,79.1864039802551,1,left,0.921057939529419,79.1807567977905,604.479366531372,607.239366531372,1616688917.2545,1616688917.266,1616688923.6736,1616688923.68295,1616688925.77439,1616688928.77553,1616688928.77748,1616688929.71486,1616688929.70921,1616689455.00782,1
8,4,2,3,5,4,4,c4_HowHand,2,lifting?,53,H_077.jpg,1616688847.76846,1616688847.77043,66.7260479831696,6.40780997276306,73.1451418304443,75.2459351921081,0.3,79.4975430870056,1.05039620399475,80.5525178813934,3,right,1.04317498207092,80.5479392910004,604.479366531372,607.239366531372,1616688917.2545,1616688917.266,1616688923.6736,1616688923.68295,1616688925.77439,1616688930.026,1616688930.02789,1616688931.08097,1616688931.07639,1616689455.00782,0
8,4,2,3,5,5,4,c4_HowHand,1,lifting?,50,H_443.jpg,1616688847.76846,1616688847.77043,66.7260479831696,6.40780997276306,73.1451418304443,75.2459351921081,0.3,80.8647267723083,0.883667469024658,81.7529659175873,1,left,0.86940598487854,81.748394241333,604.479366531372,607.239366531372,1616688917.2545,1616688917.266,1616688923.6736,1616688923.68295,1616688925.77439,1616688931.39318,1616688931.39501,1616688932.28142,1616688932.27685,1616689455.00782,1
8,4,2,3,5,6,4,c4_HowHand,2,lifting?,55,H_012.jpg,1616688847.76846,1616688847.77043,66.7260479831696,6.40780997276306,73.1451418304443,75.2459351921081,0.3,82.0651807689667,0.917012453079224,82.9862890148163,3,right,0.902888774871826,82.9821932220459,604.479366531372,607.239366531372,1616688917.2545,1616688917.266,1616688923.6736,1616688923.68295,1616688925.77439,1616688932.59364,1616688932.59818,1616688933.51474,1616688933.51065,1616689455.00782,0
8,4,2,3,5,7,4,c4_HowHand,1,lifting?,49,H_362.jpg,1616688847.76846,1616688847.77043,66.7260479831696,6.40780997276306,73.1451418304443,75.2459351921081,0.3,83.2989797496796,0.75028395652771,84.0526270771027,1,left,0.733922004699707,84.0492637062073,604.479366531372,607.239366531372,1616688917.2545,1616688917.266,1616688923.6736,1616688923.68295,1616688925.77439,1616688933.82743,1616688933.83157,1616688934.58108,1616688934.57772,1616689455.00782,1
8,4,2,3,5,8,4,c4_HowHand,1,lifting?,54,H_170.jpg,1616688847.76846,1616688847.77043,66.7260479831696,6.40780997276306,73.1451418304443,75.2459351921081,0.3,84.3660504722595,0.933685779571533,85.3025910758972,1,left,0.921541929244995,85.299736251831,604.479366531372,607.239366531372,1616688917.2545,1616688917.266,1616688923.6736,1616688923.68295,1616688925.77439,1616688934.89451,1616688934.89833,1616688935.83105,1616688935.82819,1616689455.00782,1
8,4,2,3,6,1,2,c2_WhyHand,1,helping?,38,H_077.jpg,1616688847.76846,1616688847.77043,85.3664290809631,10.2485308647156,95.6203055286407,97.7210996055603,2.10079407691956,97.8711564445496,0.883666038513184,98.7558889293671,1,left,0.86298394203186,98.7548224830627,604.479366531372,607.239366531372,1616688935.89488,1616688935.89773,1616688946.14876,1616688946.1504,1616688948.24955,1616688948.39961,1616688948.40166,1616688949.28434,1616688949.28328,1616689455.00782,1
8,4,2,3,6,2,2,c2_WhyHand,1,helping?,36,H_349.jpg,1616688847.76846,1616688847.77043,85.3664290809631,10.2485308647156,95.6203055286407,97.7210996055603,0.3,99.0716102027893,0.917013168334961,99.99044298172,1,left,0.901062965393066,99.9886233711243,604.479366531372,607.239366531372,1616688935.89488,1616688935.89773,1616688946.14876,1616688946.1504,1616688948.24955,1616688949.60007,1616688949.60155,1616688950.5189,1616688950.51708,1616689455.00782,1
8,4,2,3,6,3,2,c2_WhyHand,1,helping?,37,H_474.jpg,1616688847.76846,1616688847.77043,85.3664290809631,10.2485308647156,95.6203055286407,97.7210996055603,0.3,100.305410137177,0.883667230606079,101.19078086853,1,left,0.862782001495361,101.189077367783,604.479366531372,607.239366531372,1616688935.89488,1616688935.89773,1616688946.14876,1616688946.1504,1616688948.24955,1616688950.83387,1616688950.83585,1616688951.71924,1616688951.71753,1616689455.00782,1
8,4,2,3,6,4,2,c2_WhyHand,1,helping?,39,H_024.jpg,1616688847.76846,1616688847.77043,85.3664290809631,10.2485308647156,95.6203055286407,97.7210996055603,0.3,101.505863180161,1.13376235961914,102.652688016891,1,left,1.12668299674988,102.63962553978,604.479366531372,607.239366531372,1616688935.89488,1616688935.89773,1616688946.14876,1616688946.1504,1616688948.24955,1616688952.03432,1616688952.03595,1616688953.18114,1616688953.16808,1616689455.00782,1
8,4,2,3,6,5,2,c2_WhyHand,2,helping?,40,H_012.jpg,1616688847.76846,1616688847.77043,85.3664290809631,10.2485308647156,95.6203055286407,97.7210996055603,0.3,102.956412305832,1.01705098152161,103.974580993652,3,right,0.998045921325684,103.973463287354,604.479366531372,607.239366531372,1616688935.89488,1616688935.89773,1616688946.14876,1616688946.1504,1616688948.24955,1616688953.48487,1616688953.48645,1616688954.50304,1616688954.50192,1616689455.00782,0
8,4,2,3,6,6,2,c2_WhyHand,2,helping?,35,H_159.jpg,1616688847.76846,1616688847.77043,85.3664290809631,10.2485308647156,95.6203055286407,97.7210996055603,0.3,104.290250291824,1.66729640960693,105.958621015549,3,right,1.65308713912964,105.957546701431,604.479366531372,607.239366531372,1616688935.89488,1616688935.89773,1616688946.14876,1616688946.1504,1616688948.24955,1616688954.81871,1616688954.82043,1616688956.48708,1616688956.486,1616689455.00782,0
8,4,2,3,6,7,2,c2_WhyHand,1,helping?,34,H_111.jpg,1616688847.76846,1616688847.77043,85.3664290809631,10.2485308647156,95.6203055286407,97.7210996055603,0.3,106.274333944321,0.983704328536987,107.269841899872,1,left,0.973950862884521,107.258038272858,604.479366531372,607.239366531372,1616688935.89488,1616688935.89773,1616688946.14876,1616688946.1504,1616688948.24955,1616688956.80279,1616688956.80443,1616688957.7983,1616688957.78649,1616689455.00782,1
8,4,2,3,6,8,2,c2_WhyHand,2,helping?,33,H_091.jpg,1616688847.76846,1616688847.77043,85.3664290809631,10.2485308647156,95.6203055286407,97.7210996055603,0.3,107.574825754166,1.10041475296021,108.686424007416,3,right,1.0899920463562,108.675240507126,604.479366531372,607.239366531372,1616688935.89488,1616688935.89773,1616688946.14876,1616688946.1504,1616688948.24955,1616688958.10328,1616688958.10463,1616688959.21488,1616688959.2037,1616689455.00782,0
8,4,2,3,7,1,1,c1_WhyFace,1,proud?,104,F_598.jpg,1616688847.76846,1616688847.77043,108.741933813095,4.74798607826233,113.493729820251,115.594523420334,2.1007936000824,115.744580974579,1.4005298614502,117.14615105629,1,left,1.37245488166809,117.145110836029,604.479366531372,607.239366531372,1616688959.27039,1616688959.28171,1616688964.02218,1616688964.03216,1616688966.12298,1616688966.27304,1616688966.28202,1616688967.67461,1616688967.67357,1616689455.00782,1
8,4,2,3,7,2,1,c1_WhyFace,2,proud?,102,F_760.jpg,1616688847.76846,1616688847.77043,108.741933813095,4.74798607826233,113.493729820251,115.594523420334,0.3,117.461896648407,0.900341033935547,118.369822969437,3,right,0.88512110710144,118.362237682343,604.479366531372,607.239366531372,1616688959.27039,1616688959.28171,1616688964.02218,1616688964.03216,1616688966.12298,1616688967.99035,1616688967.99217,1616688968.89828,1616688968.89069,1616689455.00782,0
8,4,2,3,7,3,1,c1_WhyFace,1,proud?,97,F_582.jpg,1616688847.76846,1616688847.77043,108.741933813095,4.74798607826233,113.493729820251,115.594523420334,0.3,118.679023733139,0.76695728302002,119.453281869888,1,left,0.749722003936768,119.445981016159,604.479366531372,607.239366531372,1616688959.27039,1616688959.28171,1616688964.02218,1616688964.03216,1616688966.12298,1616688969.20748,1616688969.20924,1616688969.98174,1616688969.97444,1616689455.00782,1
8,4,2,3,7,4,1,c1_WhyFace,2,proud?,98,F_412.jpg,1616688847.76846,1616688847.77043,108.741933813095,4.74798607826233,113.493729820251,115.594523420334,0.3,119.762766590118,0.933686017990112,120.703168859482,3,right,0.920269966125488,120.696452608109,604.479366531372,607.239366531372,1616688959.27039,1616688959.28171,1616688964.02218,1616688964.03216,1616688966.12298,1616688970.29122,1616688970.29298,1616688971.23162,1616688971.22491,1616689455.00782,0
8,4,2,3,7,5,1,c1_WhyFace,1,proud?,101,F_083.jpg,1616688847.76846,1616688847.77043,108.741933813095,4.74798607826233,113.493729820251,115.594523420334,0.3,121.013239135742,0.716938018798828,121.73618601799,1,left,0.704233169555664,121.730177154541,604.479366531372,607.239366531372,1616688959.27039,1616688959.28171,1616688964.02218,1616688964.03216,1616688966.12298,1616688971.54169,1616688971.54351,1616688972.26464,1616688972.25863,1616689455.00782,1
8,4,2,3,7,6,1,c1_WhyFace,2,proud?,100,F_776.jpg,1616688847.76846,1616688847.77043,108.741933813095,4.74798607826233,113.493729820251,115.594523420334,0.3,122.046963205338,1.16710662841797,123.219995012283,3,right,1.15802621841431,123.214069833755,604.479366531372,607.239366531372,1616688959.27039,1616688959.28171,1616688964.02218,1616688964.03216,1616688966.12298,1616688972.57542,1616688972.57694,1616688973.74845,1616688973.74252,1616689455.00782,0
8,4,2,3,7,7,1,c1_WhyFace,1,proud?,103,F_618.jpg,1616688847.76846,1616688847.77043,108.741933813095,4.74798607826233,113.493729820251,115.594523420334,0.3,123.530857553482,0.650246381759644,124.186937084198,1,left,0.642762899398804,124.181103935242,604.479366531372,607.239366531372,1616688959.27039,1616688959.28171,1616688964.02218,1616688964.03216,1616688966.12298,1616688974.05931,1616688974.06095,1616688974.71539,1616688974.70956,1616689455.00782,1
8,4,2,3,7,8,1,c1_WhyFace,1,proud?,99,F_695.jpg,1616688847.76846,1616688847.77043,108.741933813095,4.74798607826233,113.493729820251,115.594523420334,0.3,124.497889270782,1.06707096099854,125.569730033875,1,left,1.04999017715454,125.564960231781,604.479366531372,607.239366531372,1616688959.27039,1616688959.28171,1616688964.02218,1616688964.03216,1616688966.12298,1616688975.02634,1616688975.02821,1616688976.09819,1616688976.09342,1616689455.00782,1
8,4,2,3,8,1,3,c3_HowFace,1,looking to side?,72,F_590.jpg,1616688847.76846,1616688847.77043,125.631652822495,5.38823318481445,131.033694496155,133.134488334656,2.10079383850098,133.284545173645,0.766957521438599,134.053222885132,1,left,0.750507116317749,134.051502695084,604.479366531372,607.239366531372,1616688976.16011,1616688976.1646,1616688981.56215,1616688981.56514,1616688983.66294,1616688983.813,1616688983.81539,1616688984.58168,1616688984.57996,1616689455.00782,1
8,4,2,3,8,2,3,c3_HowFace,1,looking to side?,71,F_433.jpg,1616688847.76846,1616688847.77043,125.631652822495,5.38823318481445,131.033694496155,133.134488334656,0.3,134.368288507462,0.716937780380249,135.0862870121,1,left,0.695422887802124,135.085226287842,604.479366531372,607.239366531372,1616688976.16011,1616688976.1646,1616688981.56215,1616688981.56514,1616688983.66294,1616688984.89674,1616688984.89845,1616688985.61474,1616688985.61368,1616689455.00782,1
8,4,2,3,8,3,3,c3_HowFace,1,looking to side?,67,F_716.jpg,1616688847.76846,1616688847.77043,125.631652822495,5.38823318481445,131.033694496155,133.134488334656,0.3,135.402012815475,0.71693754196167,136.120768060684,1,left,0.699560165405273,136.118950357437,604.479366531372,607.239366531372,1616688976.16011,1616688976.1646,1616688981.56215,1616688981.56514,1616688983.66294,1616688985.93047,1616688985.93213,1616688986.64922,1616688986.64741,1616689455.00782,1
8,4,2,3,8,4,3,c3_HowFace,2,looking to side?,70,F_779.jpg,1616688847.76846,1616688847.77043,125.631652822495,5.38823318481445,131.033694496155,133.134488334656,0.3,136.435737600327,0.783629417419434,137.221005907059,1,left,0.763545036315918,137.219367017746,604.479366531372,607.239366531372,1616688976.16011,1616688976.1646,1616688981.56215,1616688981.56514,1616688983.66294,1616688986.96419,1616688986.9657,1616688987.74946,1616688987.74782,1616689455.00782,0
8,4,2,3,8,5,3,c3_HowFace,1,looking to side?,68,F_760.jpg,1616688847.76846,1616688847.77043,125.631652822495,5.38823318481445,131.033694496155,133.134488334656,0.3,137.536154022217,0.616899013519287,138.169981946945,1,left,0.609995126724243,138.153053035736,604.479366531372,607.239366531372,1616688976.16011,1616688976.1646,1616688981.56215,1616688981.56514,1616688983.66294,1616688988.06461,1616688988.0663,1616688988.69844,1616688988.68151,1616689455.00782,1
8,4,2,3,8,6,3,c3_HowFace,2,looking to side?,66,F_111.jpg,1616688847.76846,1616688847.77043,125.631652822495,5.38823318481445,131.033694496155,133.134488334656,0.3,138.469839324951,0.766955852508545,139.238219013214,1,left,0.754463195800781,139.23679517746,604.479366531372,607.239366531372,1616688976.16011,1616688976.1646,1616688981.56215,1616688981.56514,1616688983.66294,1616688988.99829,1616688988.99988,1616688989.76667,1616688989.76525,1616689455.00782,0
8,4,2,3,8,7,3,c3_HowFace,1,looking to side?,69,F_110.jpg,1616688847.76846,1616688847.77043,125.631652822495,5.38823318481445,131.033694496155,133.134488334656,0.3,139.553582420349,0.933686256408691,140.502958049774,1,left,0.925581932067871,140.487268676758,604.479366531372,607.239366531372,1616688976.16011,1616688976.1646,1616688981.56215,1616688981.56514,1616688983.66294,1616688990.08204,1616688990.08362,1616688991.03141,1616688991.01572,1616689455.00782,1
8,4,2,3,8,8,3,c3_HowFace,2,looking to side?,65,F_798.jpg,1616688847.76846,1616688847.77043,125.631652822495,5.38823318481445,131.033694496155,133.134488334656,0.3,140.804055204391,1.03372406959534,141.839192857742,1,left,1.01892018318176,141.837779273987,604.479366531372,607.239366531372,1616688976.16011,1616688976.1646,1616688981.56215,1616688981.56514,1616688983.66294,1616688991.33251,1616688991.33417,1616688992.36765,1616688992.36623,1616689455.00782,0
8,4,2,3,9,1,1,c1_WhyFace,1,argument?,43,F_716.jpg,1616688847.76846,1616688847.77043,141.9044718647,8.22342205047607,150.140918722153,152.241713752747,2.10079503059387,152.391769399643,0.666918754577637,153.070070018768,1,left,0.655802965164185,153.058688154221,604.479366531372,607.239366531372,1616688992.43293,1616688992.43434,1616689000.66937,1616689000.67125,1616689002.77017,1616689002.92022,1616689002.92204,1616689003.59853,1616689003.58714,1616689455.00782,1
8,4,2,3,9,2,1,c1_WhyFace,2,argument?,44,F_139.jpg,1616688847.76846,1616688847.77043,141.9044718647,8.22342205047607,150.140918722153,152.241713752747,0.3,153.37547539711,0.866994619369507,154.243638029099,3,right,0.844964981079102,154.24247001648,604.479366531372,607.239366531372,1616688992.43293,1616688992.43434,1616689000.66937,1616689000.67125,1616689002.77017,1616689003.90393,1616689003.90533,1616689004.77209,1616689004.77093,1616689455.00782,0
8,4,2,3,9,3,1,c1_WhyFace,1,argument?,41,F_712.jpg,1616688847.76846,1616688847.77043,141.9044718647,8.22342205047607,150.140918722153,152.241713752747,0.3,154.559256782532,0.833647727966309,155.394573917389,1,left,0.818089962005615,155.392904510498,604.479366531372,607.239366531372,1616688992.43293,1616688992.43434,1616689000.66937,1616689000.67125,1616689002.77017,1616689005.08771,1616689005.08912,1616689005.92303,1616689005.92136,1616689455.00782,1
8,4,2,3,9,4,1,c1_WhyFace,2,argument?,45,F_433.jpg,1616688847.76846,1616688847.77043,141.9044718647,8.22342205047607,150.140918722153,152.241713752747,0.3,155.709691753387,0.883666515350342,156.59512804985,3,right,0.867073059082031,156.593358268738,604.479366531372,607.239366531372,1616688992.43293,1616688992.43434,1616689000.66937,1616689000.67125,1616689002.77017,1616689006.23815,1616689006.23971,1616689007.12358,1616689007.12181,1616689455.00782,0
8,4,2,3,9,5,1,c1_WhyFace,1,argument?,42,F_403.jpg,1616688847.76846,1616688847.77043,141.9044718647,8.22342205047607,150.140918722153,152.241713752747,0.3,156.910144796371,0.900341033935547,157.811997880936,1,left,0.880363941192627,157.810485830307,604.479366531372,607.239366531372,1616688992.43293,1616688992.43434,1616689000.66937,1616689000.67125,1616689002.77017,1616689007.4386,1616689007.44028,1616689008.34045,1616689008.33894,1616689455.00782,1
8,4,2,3,9,6,1,c1_WhyFace,2,argument?,46,F_844.jpg,1616688847.76846,1616688847.77043,141.9044718647,8.22342205047607,150.140918722153,152.241713752747,0.3,158.127271881104,1.01705074310303,159.153717031479,3,right,1.00825500488281,159.144322624207,604.479366531372,607.239366531372,1616688992.43293,1616688992.43434,1616689000.66937,1616689000.67125,1616689002.77017,1616689008.65573,1616689008.65725,1616689009.68217,1616689009.67278,1616689455.00782,0
8,4,2,3,9,7,1,c1_WhyFace,1,argument?,47,F_743.jpg,1616688847.76846,1616688847.77043,141.9044718647,8.22342205047607,150.140918722153,152.241713752747,0.3,159.46110915184,0.716937303543091,160.179095973969,1,left,0.699630975723267,160.178046455383,604.479366531372,607.239366531372,1616688992.43293,1616688992.43434,1616689000.66937,1616689000.67125,1616689002.77017,1616689009.98956,1616689009.99117,1616689010.70755,1616689010.7065,1616689455.00782,1
8,4,2,3,9,8,1,c1_WhyFace,1,argument?,48,F_758.jpg,1616688847.76846,1616688847.77043,141.9044718647,8.22342205047607,150.140918722153,152.241713752747,0.3,160.494833221436,0.80030345916748,161.296141853333,1,left,0.784383058547974,161.295136680603,604.479366531372,607.239366531372,1616688992.43293,1616688992.43434,1616689000.66937,1616689000.67125,1616689002.77017,1616689011.02329,1616689011.02483,1616689011.8246,1616689011.82359,1616689455.00782,1
8,4,2,3,10,1,3,c3_HowFace,1,open mouth?,80,F_844.jpg,1616688847.76846,1616688847.77043,161.361827363968,6.60606551170349,167.980997552872,170.081791391373,2.10079383850098,170.231848707199,0.650245666503906,170.887089958191,1,left,0.62933611869812,170.882094373703,604.479366531372,607.239366531372,1616689011.89028,1616689011.89886,1616689018.50945,1616689018.51597,1616689020.61025,1616689020.7603,1616689020.76554,1616689021.41554,1616689021.41055,1616689455.00782,1
8,4,2,3,10,2,3,c3_HowFace,1,open mouth?,74,F_776.jpg,1616688847.76846,1616688847.77043,161.361827363968,6.60606551170349,167.980997552872,170.081791391373,0.3,171.1988804245,0.55020809173584,171.753426065445,1,left,0.529778003692627,171.749088516235,604.479366531372,607.239366531372,1616689011.89028,1616689011.89886,1616689018.50945,1616689018.51597,1616689020.61025,1616689021.72734,1616689021.72891,1616689022.28188,1616689022.27754,1616689455.00782,1
8,4,2,3,10,3,3,c3_HowFace,2,open mouth?,76,F_544.jpg,1616688847.76846,1616688847.77043,161.361827363968,6.60606551170349,167.980997552872,170.081791391373,0.3,172.065874328613,0.800302982330322,172.870426883698,3,right,0.775367975234985,172.866177310944,604.479366531372,607.239366531372,1616689011.89028,1616689011.89886,1616689018.50945,1616689018.51597,1616689020.61025,1616689022.59433,1616689022.5989,1616689023.39888,1616689023.39463,1616689455.00782,0
8,4,2,3,10,4,3,c3_HowFace,1,open mouth?,78,F_692.jpg,1616688847.76846,1616688847.77043,161.361827363968,6.60606551170349,167.980997552872,170.081791391373,0.3,173.182964553833,0.633571863174438,173.819691886902,1,left,0.624097108840942,173.816536417007,604.479366531372,607.239366531372,1616689011.89028,1616689011.89886,1616689018.50945,1616689018.51597,1616689020.61025,1616689023.71142,1616689023.71558,1616689024.34815,1616689024.34499,1616689455.00782,1
8,4,2,3,10,5,3,c3_HowFace,2,open mouth?,77,F_584.jpg,1616688847.76846,1616688847.77043,161.361827363968,6.60606551170349,167.980997552872,170.081791391373,0.3,174.133323421478,0.700265169143677,174.836946001053,3,right,0.678720951080322,174.833588590622,604.479366531372,607.239366531372,1616689011.89028,1616689011.89886,1616689018.50945,1616689018.51597,1616689020.61025,1616689024.66178,1616689024.66555,1616689025.3654,1616689025.36204,1616689455.00782,0
8,4,2,3,10,6,3,c3_HowFace,1,open mouth?,73,F_403.jpg,1616688847.76846,1616688847.77043,161.361827363968,6.60606551170349,167.980997552872,170.081791391373,0.3,175.150374879837,0.583553791046143,175.737048854828,1,left,0.572880029678345,175.733928670883,604.479366531372,607.239366531372,1616689011.89028,1616689011.89886,1616689018.50945,1616689018.51597,1616689020.61025,1616689025.67883,1616689025.68204,1616689026.2655,1616689026.26238,1616689455.00782,1
8,4,2,3,10,7,3,c3_HowFace,1,open mouth?,75,F_086.jpg,1616688847.76846,1616688847.77043,161.361827363968,6.60606551170349,167.980997552872,170.081791391373,0.3,176.050715675354,0.716936588287354,176.769936075211,1,left,0.706150054931641,176.767652263641,604.479366531372,607.239366531372,1616689011.89028,1616689011.89886,1616689018.50945,1616689018.51597,1616689020.61025,1616689026.57917,1616689026.58189,1616689027.29839,1616689027.29611,1616689455.00782,1
8,4,2,3,10,8,3,c3_HowFace,2,open mouth?,79,F_648.jpg,1616688847.76846,1616688847.77043,161.361827363968,6.60606551170349,167.980997552872,170.081791391373,0.3,177.084438552856,0.716938257217407,177.802995910645,3,right,0.70894193649292,177.801376810074,604.479366531372,607.239366531372,1616689011.89028,1616689011.89886,1616689018.50945,1616689018.51597,1616689020.61025,1616689027.61289,1616689027.61543,1616689028.33145,1616689028.32983,1616689455.00782,0
8,4,2,3,11,1,4,c4_HowHand,1,pressing button?,88,H_019.jpg,1616688847.76846,1616688847.77043,177.868068685532,7.98981332778931,185.871094455719,187.971889009476,2.10079455375671,188.121945371628,0.666919231414795,188.803169002533,1,left,0.657676935195923,188.788864603043,604.479366531372,607.239366531372,1616689028.39652,1616689028.39882,1616689036.39955,1616689036.40116,1616689038.50034,1616689038.6504,1616689038.65235,1616689039.33162,1616689039.31732,1616689455.00782,1
8,4,2,3,11,2,4,c4_HowHand,2,pressing button?,87,H_024.jpg,1616688847.76846,1616688847.77043,177.868068685532,7.98981332778931,185.871094455719,187.971889009476,0.3,189.105650415421,0.900340795516968,190.007639875412,3,right,0.889324903488159,190.005991210938,604.479366531372,607.239366531372,1616689028.39652,1616689028.39882,1616689036.39955,1616689036.40116,1616689038.50034,1616689039.63411,1616689039.63558,1616689040.53609,1616689040.53445,1616689455.00782,0
8,4,2,3,11,3,4,c4_HowHand,2,pressing button?,85,H_130.jpg,1616688847.76846,1616688847.77043,177.868068685532,7.98981332778931,185.871094455719,187.971889009476,0.3,190.322777261734,0.766957521438599,191.091495981216,3,right,0.754264116287231,191.089734783173,604.479366531372,607.239366531372,1616689028.39652,1616689028.39882,1616689036.39955,1616689036.40116,1616689038.50034,1616689040.85123,1616689040.85311,1616689041.61995,1616689041.61819,1616689455.00782,0
8,4,2,3,11,4,4,c4_HowHand,1,pressing button?,83,H_502.jpg,1616688847.76846,1616688847.77043,177.868068685532,7.98981332778931,185.871094455719,187.971889009476,0.3,191.406522026062,0.733608961105347,192.141866912842,1,left,0.718286037445068,192.140130987167,604.479366531372,607.239366531372,1616689028.39652,1616689028.39882,1616689036.39955,1616689036.40116,1616689038.50034,1616689041.93498,1616689041.93644,1616689042.67032,1616689042.66859,1616689455.00782,1
8,4,2,3,11,5,4,c4_HowHand,2,pressing button?,81,H_261.jpg,1616688847.76846,1616688847.77043,177.868068685532,7.98981332778931,185.871094455719,187.971889009476,0.3,192.456916799545,0.750284433364868,193.208618869782,3,right,0.729022026062012,193.20720123291,604.479366531372,607.239366531372,1616689028.39652,1616689028.39882,1616689036.39955,1616689036.40116,1616689038.50034,1616689042.98537,1616689042.98701,1616689043.73707,1616689043.73566,1616689455.00782,0
8,4,2,3,11,6,4,c4_HowHand,1,pressing button?,86,H_332.jpg,1616688847.76846,1616688847.77043,177.868068685532,7.98981332778931,185.871094455719,187.971889009476,0.3,193.523988714218,0.750283241271973,194.275980939865,1,left,0.72794508934021,194.27427195549,604.479366531372,607.239366531372,1616689028.39652,1616689028.39882,1616689036.39955,1616689036.40116,1616689038.50034,1616689044.05244,1616689044.054,1616689044.80444,1616689044.80273,1616689455.00782,1
8,4,2,3,11,7,4,c4_HowHand,1,pressing button?,82,H_126.jpg,1616688847.76846,1616688847.77043,177.868068685532,7.98981332778931,185.871094455719,187.971889009476,0.3,194.591058483124,0.750283479690552,195.353291978836,1,left,0.741533041000366,195.341341962814,604.479366531372,607.239366531372,1616689028.39652,1616689028.39882,1616689036.39955,1616689036.40116,1616689038.50034,1616689045.11951,1616689045.12136,1616689045.88175,1616689045.8698,1616689455.00782,1
8,4,2,3,11,8,4,c4_HowHand,1,pressing button?,84,H_483.jpg,1616688847.76846,1616688847.77043,177.868068685532,7.98981332778931,185.871094455719,187.971889009476,0.3,195.658128490448,0.933685779571533,196.592844953537,1,left,0.919831037521362,196.59181427002,604.479366531372,607.239366531372,1616689028.39652,1616689028.39882,1616689036.39955,1616689036.40116,1616689038.50034,1616689046.18658,1616689046.18855,1616689047.1213,1616689047.12027,1616689455.00782,1
8,4,2,3,12,1,2,c2_WhyHand,1,competing?,9,H_261.jpg,1616688847.76846,1616688847.77043,196.658506622314,6.98945045471191,203.661154499054,205.761948337555,2.10079383850098,205.912004938126,1.01705145835876,206.930494060516,1,left,0.994438886642456,206.929056396484,604.479366531372,607.239366531372,1616689047.18696,1616689047.19901,1616689054.18961,1616689054.19136,1616689056.2904,1616689056.44046,1616689056.44214,1616689057.45895,1616689057.45751,1616689455.00782,1
8,4,2,3,12,2,2,c2_WhyHand,2,competing?,12,H_483.jpg,1616688847.76846,1616688847.77043,196.658506622314,6.98945045471191,203.661154499054,205.761948337555,0.3,207.245843162537,0.883666753768921,208.130661001205,3,right,0.861849784851074,208.129509916306,604.479366531372,607.239366531372,1616689047.18696,1616689047.19901,1616689054.18961,1616689054.19136,1616689056.2904,1616689057.7743,1616689057.77619,1616689058.65912,1616689058.65796,1616689455.00782,0
8,4,2,3,12,3,2,c2_WhyHand,1,competing?,14,H_132.jpg,1616688847.76846,1616688847.77043,196.658506622314,6.98945045471191,203.661154499054,205.761948337555,0.3,208.446296443939,0.600227355957031,209.053675880432,1,left,0.583286046981812,209.046523799896,604.479366531372,607.239366531372,1616689047.18696,1616689047.19901,1616689054.18961,1616689054.19136,1616689056.2904,1616689058.97475,1616689058.97644,1616689059.58213,1616689059.57498,1616689455.00782,1
8,4,2,3,12,4,2,c2_WhyHand,2,competing?,10,H_126.jpg,1616688847.76846,1616688847.77043,196.658506622314,6.98945045471191,203.661154499054,205.761948337555,0.3,209.363310804367,0.917012214660645,210.281686058044,3,right,0.897068023681641,210.280323019028,604.479366531372,607.239366531372,1616689047.18696,1616689047.19901,1616689054.18961,1616689054.19136,1616689056.2904,1616689059.89177,1616689059.89355,1616689060.81014,1616689060.80878,1616689455.00782,0
8,4,2,3,12,5,2,c2_WhyHand,1,competing?,16,H_136.jpg,1616688847.76846,1616688847.77043,196.658506622314,6.98945045471191,203.661154499054,205.761948337555,0.3,210.597110738754,0.766955852508545,211.370006074905,1,left,0.759591102600098,211.364066591263,604.479366531372,607.239366531372,1616689047.18696,1616689047.19901,1616689054.18961,1616689054.19136,1616689056.2904,1616689061.12557,1616689061.1274,1616689061.89846,1616689061.89252,1616689455.00782,1
8,4,2,3,12,6,2,c2_WhyHand,2,competing?,11,H_502.jpg,1616688847.76846,1616688847.77043,196.658506622314,6.98945045471191,203.661154499054,205.761948337555,0.3,211.680852165222,0.866995334625244,212.548939933777,3,right,0.847155809402466,212.547847499847,604.479366531372,607.239366531372,1616689047.18696,1616689047.19901,1616689054.18961,1616689054.19136,1616689056.2904,1616689062.20931,1616689062.21101,1616689063.07739,1616689063.0763,1616689455.00782,0
8,4,2,3,12,7,2,c2_WhyHand,1,competing?,13,H_003.jpg,1616688847.76846,1616688847.77043,196.658506622314,6.98945045471191,203.661154499054,205.761948337555,0.3,212.864634504318,0.616899490356445,213.487420072556,1,left,0.597784996032715,213.481533994675,604.479366531372,607.239366531372,1616689047.18696,1616689047.19901,1616689054.18961,1616689054.19136,1616689056.2904,1616689063.39309,1616689063.39503,1616689064.01588,1616689064.00999,1616689455.00782,1
8,4,2,3,12,8,2,c2_WhyHand,1,competing?,15,H_170.jpg,1616688847.76846,1616688847.77043,196.658506622314,6.98945045471191,203.661154499054,205.761948337555,0.3,213.798321237564,0.600226163864136,214.403687944412,1,left,0.590541839599609,214.398547401428,604.479366531372,607.239366531372,1616689047.18696,1616689047.19901,1616689054.18961,1616689054.19136,1616689056.2904,1616689064.32678,1616689064.32823,1616689064.93214,1616689064.927,1616689455.00782,1
8,4,2,3,13,1,1,c1_WhyFace,1,self-doubt?,29,F_544.jpg,1616688847.76846,1616688847.77043,214.465239992142,7.25275802612305,221.734654893875,223.835448732376,2.10079383850098,223.985505332947,1.1337616443634,225.120284070969,1,left,1.11979389190674,225.11926697731,604.479366531372,607.239366531372,1616689064.9937,1616689064.99877,1616689072.26311,1616689072.26588,1616689074.3639,1616689074.51396,1616689074.51653,1616689075.64874,1616689075.64772,1616689455.00782,1
8,4,2,3,13,2,1,c1_WhyFace,2,self-doubt?,27,F_086.jpg,1616688847.76846,1616688847.77043,214.465239992142,7.25275802612305,221.734654893875,223.835448732376,0.3,225.436053981781,0.900340557098389,226.338093986511,3,right,0.880473136901855,226.336394538879,604.479366531372,607.239366531372,1616689064.9937,1616689064.99877,1616689072.26311,1616689072.26588,1616689074.3639,1616689075.96451,1616689075.96606,1616689076.86655,1616689076.86485,1616689455.00782,0
8,4,2,3,13,3,1,c1_WhyFace,1,self-doubt?,25,F_798.jpg,1616688847.76846,1616688847.77043,214.465239992142,7.25275802612305,221.734654893875,223.835448732376,0.3,226.653180589676,0.583554029464722,227.238560905457,1,left,0.564651966094971,227.236734619141,604.479366531372,607.239366531372,1616689064.9937,1616689064.99877,1616689072.26311,1616689072.26588,1616689074.3639,1616689077.18164,1616689077.18342,1616689077.76702,1616689077.76519,1616689455.00782,1
8,4,2,3,13,4,1,c1_WhyFace,1,self-doubt?,26,F_111.jpg,1616688847.76846,1616688847.77043,214.465239992142,7.25275802612305,221.734654893875,223.835448732376,0.3,227.553519954681,0.616900444030762,228.171477069855,1,left,0.597217082977295,228.170420398712,604.479366531372,607.239366531372,1616689064.9937,1616689064.99877,1616689072.26311,1616689072.26588,1616689074.3639,1616689078.08197,1616689078.08342,1616689078.69993,1616689078.69888,1616689455.00782,1
8,4,2,3,13,5,1,c1_WhyFace,2,self-doubt?,31,F_774.jpg,1616688847.76846,1616688847.77043,214.465239992142,7.25275802612305,221.734654893875,223.835448732376,0.3,228.487207641602,0.783628940582275,229.272335042954,3,right,0.774120807647705,229.270836582184,604.479366531372,607.239366531372,1616689064.9937,1616689064.99877,1616689072.26311,1616689072.26588,1616689074.3639,1616689079.01566,1616689079.01707,1616689079.80079,1616689079.79929,1616689455.00782,0
8,4,2,3,13,6,1,c1_WhyFace,1,self-doubt?,28,F_754.jpg,1616688847.76846,1616688847.77043,214.465239992142,7.25275802612305,221.734654893875,223.835448732376,0.3,229.587624063492,0.983704566955566,230.573050966263,1,left,0.966858148574829,230.571328630447,604.479366531372,607.239366531372,1616689064.9937,1616689064.99877,1616689072.26311,1616689072.26588,1616689074.3639,1616689080.11608,1616689080.11767,1616689081.10151,1616689081.09978,1616689455.00782,1
8,4,2,3,13,7,1,c1_WhyFace,2,self-doubt?,32,F_128.jpg,1616688847.76846,1616688847.77043,214.465239992142,7.25275802612305,221.734654893875,223.835448732376,0.3,230.888114919662,1.00037860870361,231.8903469944,3,right,0.978140115737915,231.888493528366,604.479366531372,607.239366531372,1616689064.9937,1616689064.99877,1616689072.26311,1616689072.26588,1616689074.3639,1616689081.41657,1616689081.41822,1616689082.4188,1616689082.41695,1616689455.00782,0
8,4,2,3,13,8,1,c1_WhyFace,1,self-doubt?,30,F_584.jpg,1616688847.76846,1616688847.77043,214.465239992142,7.25275802612305,221.734654893875,223.835448732376,0.3,232.205279579163,0.78363037109375,232.990097036362,1,left,0.765062093734741,232.988909950256,604.479366531372,607.239366531372,1616689064.9937,1616689064.99877,1616689072.26311,1616689072.26588,1616689074.3639,1616689082.73373,1616689082.7357,1616689083.51855,1616689083.51736,1616689455.00782,1
8,4,2,3,14,1,3,c3_HowFace,1,looking at camera?,64,F_128.jpg,1616688847.76846,1616688847.77043,233.055601110458,7.71633577346802,240.77518652916,242.875981082916,2.10079455375671,243.026037921906,0.683591842651367,243.711173048019,1,left,0.659005880355835,243.709629764557,604.479366531372,607.239366531372,1616689083.58406,1616689083.58512,1616689091.30364,1616689091.31627,1616689093.40444,1616689093.55449,1616689093.56592,1616689094.23963,1616689094.23808,1616689455.00782,1
8,4,2,3,14,2,3,c3_HowFace,1,looking at camera?,60,F_618.jpg,1616688847.76846,1616688847.77043,233.055601110458,7.71633577346802,240.77518652916,242.875981082916,0.3,244.026417007446,0.550206422805786,244.577607860565,1,left,0.528221130371094,244.576623430252,604.479366531372,607.239366531372,1616689083.58406,1616689083.58512,1616689091.30364,1616689091.31627,1616689093.40444,1616689094.55487,1616689094.55686,1616689095.10606,1616689095.10508,1616689455.00782,1
8,4,2,3,14,3,3,c3_HowFace,1,looking at camera?,62,F_598.jpg,1616688847.76846,1616688847.77043,233.055601110458,7.71633577346802,240.77518652916,242.875981082916,0.3,244.893410434723,0.650246620178223,245.545289030075,1,left,0.630067825317383,245.543657054901,604.479366531372,607.239366531372,1616689083.58406,1616689083.58512,1616689091.30364,1616689091.31627,1616689093.40444,1616689095.42187,1616689095.42343,1616689096.07374,1616689096.07211,1616689455.00782,1
8,4,2,3,14,4,3,c3_HowFace,2,looking at camera?,63,F_743.jpg,1616688847.76846,1616688847.77043,233.055601110458,7.71633577346802,240.77518652916,242.875981082916,0.3,245.860442390442,0.650246143341064,246.512422075272,3,right,0.628737926483154,246.510688533783,604.479366531372,607.239366531372,1616689083.58406,1616689083.58512,1616689091.30364,1616689091.31627,1616689093.40444,1616689096.3889,1616689096.39041,1616689097.04088,1616689097.03914,1616689455.00782,0
8,4,2,3,14,5,3,c3_HowFace,1,looking at camera?,61,F_774.jpg,1616688847.76846,1616688847.77043,233.055601110458,7.71633577346802,240.77518652916,242.875981082916,0.3,246.827474822998,0.666919231414795,247.495822896957,1,left,0.650744915008545,247.494394054413,604.479366531372,607.239366531372,1616689083.58406,1616689083.58512,1616689091.30364,1616689091.31627,1616689093.40444,1616689097.35593,1616689097.35787,1616689098.02428,1616689098.02285,1616689455.00782,1
8,4,2,3,14,6,3,c3_HowFace,2,looking at camera?,57,F_582.jpg,1616688847.76846,1616688847.77043,233.055601110458,7.71633577346802,240.77518652916,242.875981082916,0.3,247.811180820465,1.18377900123596,248.996587028503,1,left,1.16056895256042,248.994959821701,604.479366531372,607.239366531372,1616689083.58406,1616689083.58512,1616689091.30364,1616689091.31627,1616689093.40444,1616689098.33964,1616689098.34125,1616689099.52504,1616689099.52341,1616689455.00782,0
8,4,2,3,14,7,3,c3_HowFace,2,looking at camera?,58,F_754.jpg,1616688847.76846,1616688847.77043,233.055601110458,7.71633577346802,240.77518652916,242.875981082916,0.3,249.311747541428,0.950360298156738,250.263218870163,3,right,0.92933201789856,250.262107839584,604.479366531372,607.239366531372,1616689083.58406,1616689083.58512,1616689091.30364,1616689091.31627,1616689093.40444,1616689099.8402,1616689099.84195,1616689100.79167,1616689100.79056,1616689455.00782,0
8,4,2,3,14,8,3,c3_HowFace,1,looking at camera?,59,F_129.jpg,1616688847.76846,1616688847.77043,233.055601110458,7.71633577346802,240.77518652916,242.875981082916,0.3,250.578893890381,0.75028395652771,251.330798854828,1,left,0.729778051376343,251.329177846909,604.479366531372,607.239366531372,1616689083.58406,1616689083.58512,1616689091.30364,1616689091.31627,1616689093.40444,1616689101.10735,1616689101.10903,1616689101.85925,1616689101.85763,1616689455.00782,1
8,4,2,3,15,1,4,c4_HowHand,1,both hands?,123,H_167.jpg,1616688847.76846,1616688847.77043,251.395868530273,8.16624236106873,259.565624704361,261.666418542862,2.10079383850098,261.816476573944,1.16710734367371,262.986836900711,1,left,1.15564012527466,262.983583917618,604.479366531372,607.239366531372,1616689101.92432,1616689101.93254,1616689110.09408,1616689110.09944,1616689112.19487,1616689112.34493,1616689112.34944,1616689113.51529,1616689113.51204,1616689455.00782,1
8,4,2,3,15,2,4,c4_HowHand,2,both hands?,121,H_091.jpg,1616688847.76846,1616688847.77043,251.395868530273,8.16624236106873,259.565624704361,261.666418542862,0.3,263.300369968414,1.15043449401855,264.453479995728,3,right,1.13820099830627,264.450804462433,604.479366531372,607.239366531372,1616689101.92432,1616689101.93254,1616689110.09408,1616689110.09944,1616689112.19487,1616689113.82882,1616689113.83279,1616689114.98194,1616689114.97926,1616689455.00782,0
8,4,2,3,15,3,4,c4_HowHand,2,both hands?,125,H_627.jpg,1616688847.76846,1616688847.77043,251.395868530273,8.16624236106873,259.565624704361,261.666418542862,0.3,264.767591943741,0.86699390411377,265.636925926209,3,right,0.849943161010742,265.634585847855,604.479366531372,607.239366531372,1616689101.92432,1616689101.93254,1616689110.09408,1616689110.09944,1616689112.19487,1616689115.29605,1616689115.29949,1616689116.16538,1616689116.16304,1616689455.00782,0
8,4,2,3,15,4,4,c4_HowHand,1,both hands?,128,H_027.jpg,1616688847.76846,1616688847.77043,251.395868530273,8.16624236106873,259.565624704361,261.666418542862,0.3,265.951371421814,0.716938018798828,266.67093585968,1,left,0.704187870025635,266.668309440613,604.479366531372,607.239366531372,1616689101.92432,1616689101.93254,1616689110.09408,1616689110.09944,1616689112.19487,1616689116.47983,1616689116.48244,1616689117.19939,1616689117.19676,1616689455.00782,1
8,4,2,3,15,5,4,c4_HowHand,1,both hands?,122,H_111.jpg,1616688847.76846,1616688847.77043,251.395868530273,8.16624236106873,259.565624704361,261.666418542862,0.3,266.985096921921,1.00037789344788,267.987425079346,1,left,0.980297088623047,267.985474815369,604.479366531372,607.239366531372,1616689101.92432,1616689101.93254,1616689110.09408,1616689110.09944,1616689112.19487,1616689117.51355,1616689117.51637,1616689118.51588,1616689118.51393,1616689455.00782,1
8,4,2,3,15,6,4,c4_HowHand,2,both hands?,126,H_159.jpg,1616688847.76846,1616688847.77043,251.395868530273,8.16624236106873,259.565624704361,261.666418542862,0.3,268.302260866165,0.967031478881836,269.271056880951,3,right,0.952384948730469,269.269292345047,604.479366531372,607.239366531372,1616689101.92432,1616689101.93254,1616689110.09408,1616689110.09944,1616689112.19487,1616689118.83072,1616689118.83271,1616689119.79951,1616689119.79775,1616689455.00782,0
8,4,2,3,15,7,4,c4_HowHand,1,both hands?,124,H_581.jpg,1616688847.76846,1616688847.77043,251.395868530273,8.16624236106873,259.565624704361,261.666418542862,0.3,269.586080064774,1.01705074310303,270.604758968353,1,left,0.997614860534668,270.603130807877,604.479366531372,607.239366531372,1616689101.92432,1616689101.93254,1616689110.09408,1616689110.09944,1616689112.19487,1616689120.11454,1616689120.11652,1616689121.13321,1616689121.13159,1616689455.00782,1
8,4,2,3,15,8,4,c4_HowHand,1,both hands?,127,H_349.jpg,1616688847.76846,1616688847.77043,251.395868530273,8.16624236106873,259.565624704361,261.666418542862,0.3,270.919917573929,0.816974878311157,271.73790596962,1,left,0.795861005783081,271.73689245224,604.479366531372,607.239366531372,1616689101.92432,1616689101.93254,1616689110.09408,1616689110.09944,1616689112.19487,1616689121.44837,1616689121.45016,1616689122.26636,1616689122.26535,1616689455.00782,1
8,4,2,3,16,1,2,c2_WhyHand,1,self-protection?,89,H_443.jpg,1616688847.76846,1616688847.77043,271.803584804535,6.54841613769531,278.356062164307,280.456856241226,2.10079407691956,280.606913795471,0.733610153198242,281.341927995682,1,left,0.700798034667969,281.340523948669,604.479366531372,607.239366531372,1616689122.33204,1616689122.33338,1616689128.88452,1616689128.89983,1616689130.98531,1616689131.13537,1616689131.14953,1616689131.87038,1616689131.86898,1616689455.00782,1
8,4,2,3,16,2,2,c2_WhyHand,2,self-protection?,90,H_006.jpg,1616688847.76846,1616688847.77043,271.803584804535,6.54841613769531,278.356062164307,280.456856241226,0.3,281.657310714722,1.56725835800171,283.226299991608,3,right,1.54569506645203,283.224569072723,604.479366531372,607.239366531372,1616689122.33204,1616689122.33338,1616689128.88452,1616689128.89983,1616689130.98531,1616689132.18577,1616689132.18765,1616689133.75476,1616689133.75302,1616689455.00782,0
8,4,2,3,16,3,2,c2_WhyHand,1,self-protection?,91,H_581.jpg,1616688847.76846,1616688847.77043,271.803584804535,6.54841613769531,278.356062164307,280.456856241226,0.3,283.541355600357,1.23380064964294,284.77678393364,1,left,1.21237301826477,284.77515625,604.479366531372,607.239366531372,1616689122.33204,1616689122.33338,1616689128.88452,1616689128.89983,1616689130.98531,1616689134.06981,1616689134.07178,1616689135.30524,1616689135.30361,1616689455.00782,1
8,4,2,3,16,4,2,c2_WhyHand,2,self-protection?,92,H_532.jpg,1616688847.76846,1616688847.77043,271.803584804535,6.54841613769531,278.356062164307,280.456856241226,0.3,285.091942539215,1.26714563369751,286.360137929916,1,left,1.24958086013794,286.359088172913,604.479366531372,607.239366531372,1616689122.33204,1616689122.33338,1616689128.88452,1616689128.89983,1616689130.98531,1616689135.6204,1616689135.62178,1616689136.88859,1616689136.88754,1616689455.00782,0
8,4,2,3,16,5,2,c2_WhyHand,1,self-protection?,96,H_027.jpg,1616688847.76846,1616688847.77043,271.803584804535,6.54841613769531,278.356062164307,280.456856241226,0.3,286.675874223709,0.83364725112915,287.511048069,1,left,0.8141028881073,287.509521474838,604.479366531372,607.239366531372,1616689122.33204,1616689122.33338,1616689128.88452,1616689128.89983,1616689130.98531,1616689137.20433,1616689137.20596,1616689138.0395,1616689138.03798,1616689455.00782,1
8,4,2,3,16,6,2,c2_WhyHand,1,self-protection?,93,H_038.jpg,1616688847.76846,1616688847.77043,271.803584804535,6.54841613769531,278.356062164307,280.456856241226,0.3,287.826309909821,0.883666515350342,288.71173500061,1,left,0.865257024765015,288.709976425171,604.479366531372,607.239366531372,1616689122.33204,1616689122.33338,1616689128.88452,1616689128.89983,1616689130.98531,1616689138.35476,1616689138.3565,1616689139.24019,1616689139.23843,1616689455.00782,1
8,4,2,3,16,7,2,c2_WhyHand,2,self-protection?,95,H_332.jpg,1616688847.76846,1616688847.77043,271.803584804535,6.54841613769531,278.356062164307,280.456856241226,0.3,289.026762952805,0.933686494827271,289.97090004921,3,right,0.919273138046265,289.960449447632,604.479366531372,607.239366531372,1616689122.33204,1616689122.33338,1616689128.88452,1616689128.89983,1616689130.98531,1616689139.55522,1616689139.55685,1616689140.49936,1616689140.4889,1616689455.00782,0
8,4,2,3,16,8,2,c2_WhyHand,1,self-protection?,94,H_189.jpg,1616688847.76846,1616688847.77043,271.803584804535,6.54841613769531,278.356062164307,280.456856241226,0.3,290.277236213684,0.800302505493164,291.087014904022,1,left,0.788472175598145,291.077538719177,604.479366531372,607.239366531372,1616689122.33204,1616689122.33338,1616689128.88452,1616689128.89983,1616689130.98531,1616689140.80569,1616689140.80754,1616689141.61547,1616689141.60599,1616689455.00782,1
8,4,2,3,17,1,3,c3_HowFace,1,smiling?,118,F_759.jpg,1616688847.76846,1616688847.77043,291.160905590057,8.67101240158081,299.847521295547,301.948315849304,2.10079455375671,302.098372449875,0.683593273162842,302.787191858292,1,left,0.665141105651855,302.781965723038,604.479366531372,607.239366531372,1616689141.68936,1616689141.69099,1616689150.37598,1616689150.37792,1616689152.47677,1616689152.62683,1616689152.62854,1616689153.31565,1616689153.31042,1616689455.00782,1
8,4,2,3,17,2,3,c3_HowFace,2,smiling?,114,F_412.jpg,1616688847.76846,1616688847.77043,291.160905590057,8.67101240158081,299.847521295547,301.948315849304,0.3,303.09875082016,0.68359112739563,303.787105073929,3,right,0.666469097137451,303.782341947556,604.479366531372,607.239366531372,1616689141.68936,1616689141.69099,1616689150.37598,1616689150.37792,1616689152.47677,1616689153.62721,1616689153.62879,1616689154.31556,1616689154.3108,1616689455.00782,0
8,4,2,3,17,3,3,c3_HowFace,1,smiling?,117,F_593.jpg,1616688847.76846,1616688847.77043,291.160905590057,8.67101240158081,299.847521295547,301.948315849304,0.3,304.099128475189,0.766957521438599,304.871067991257,1,left,0.750633955001831,304.866085996628,604.479366531372,607.239366531372,1616689141.68936,1616689141.69099,1616689150.37598,1616689150.37792,1616689152.47677,1616689154.62758,1616689154.62918,1616689155.39952,1616689155.39454,1616689455.00782,1
8,4,2,3,17,4,3,c3_HowFace,2,smiling?,113,F_712.jpg,1616688847.76846,1616688847.77043,291.160905590057,8.67101240158081,299.847521295547,301.948315849304,0.3,305.182871332169,0.750284671783447,305.937946071625,3,right,0.73546290397644,305.933156003952,604.479366531372,607.239366531372,1616689141.68936,1616689141.69099,1616689150.37598,1616689150.37792,1616689152.47677,1616689155.71133,1616689155.71302,1616689156.4664,1616689156.46161,1616689455.00782,0
8,4,2,3,17,5,3,c3_HowFace,1,smiling?,115,F_695.jpg,1616688847.76846,1616688847.77043,291.160905590057,8.67101240158081,299.847521295547,301.948315849304,0.3,306.249941339493,0.700265407562256,306.953804960251,1,left,0.677946090698242,306.950206747055,604.479366531372,607.239366531372,1616689141.68936,1616689141.69099,1616689150.37598,1616689150.37792,1616689152.47677,1616689156.7784,1616689156.78313,1616689157.48226,1616689157.47866,1616689455.00782,1
8,4,2,3,17,6,3,c3_HowFace,1,smiling?,119,F_139.jpg,1616688847.76846,1616688847.77043,291.160905590057,8.67101240158081,299.847521295547,301.948315849304,0.3,307.266993513107,0.883667230606079,308.154530992508,1,left,0.860073089599609,308.150660743713,604.479366531372,607.239366531372,1616689141.68936,1616689141.69099,1616689150.37598,1616689150.37792,1616689152.47677,1616689157.79545,1616689157.79968,1616689158.68299,1616689158.67912,1616689455.00782,1
8,4,2,3,17,7,3,c3_HowFace,1,smiling?,116,F_083.jpg,1616688847.76846,1616688847.77043,291.160905590057,8.67101240158081,299.847521295547,301.948315849304,0.3,308.467446079254,0.750284671783447,309.221132984161,1,left,0.730118989944458,309.217730751038,604.479366531372,607.239366531372,1616689141.68936,1616689141.69099,1616689150.37598,1616689150.37792,1616689152.47677,1616689158.9959,1616689158.99951,1616689159.74959,1616689159.74619,1616689455.00782,1
8,4,2,3,17,8,3,c3_HowFace,2,smiling?,120,F_758.jpg,1616688847.76846,1616688847.77043,291.160905590057,8.67101240158081,299.847521295547,301.948315849304,0.3,309.534517278671,0.783629417419434,310.31995891571,3,right,0.759444952011108,310.318146696091,604.479366531372,607.239366531372,1616689141.68936,1616689141.69099,1616689150.37598,1616689150.37792,1616689152.47677,1616689160.06297,1616689160.06642,1616689160.84841,1616689160.8466,1616689455.00782,0
8,4,2,3,18,1,1,c1_WhyFace,1,admiring?,1,F_593.jpg,1616688847.76846,1616688847.77043,310.384838809967,7.23727822303772,317.637580623627,319.738375654221,2.10079503059387,319.888431777954,0.950358867645264,320.840377082825,1,left,0.938230991363525,320.838790645599,604.479366531372,607.239366531372,1616689160.91329,1616689160.91552,1616689168.16604,1616689168.16776,1616689170.26683,1616689170.41689,1616689170.41871,1616689171.36883,1616689171.36725,1616689455.00782,1
8,4,2,3,18,2,1,c1_WhyFace,2,admiring?,2,F_129.jpg,1616688847.76846,1616688847.77043,310.384838809967,7.23727822303772,317.637580623627,319.738375654221,0.3,321.155577173233,0.833648681640625,322.004611959457,3,right,0.82555890083313,321.989225854874,604.479366531372,607.239366531372,1616689160.91329,1616689160.91552,1616689168.16604,1616689168.16776,1616689170.26683,1616689171.68403,1616689171.68561,1616689172.53307,1616689172.51768,1616689455.00782,0
8,4,2,3,18,3,1,c1_WhyFace,1,admiring?,5,F_759.jpg,1616688847.76846,1616688847.77043,310.384838809967,7.23727822303772,317.637580623627,319.738375654221,0.3,322.306012382507,0.666918992996216,322.987565984726,1,left,0.659787893295288,322.972931375504,604.479366531372,607.239366531372,1616689160.91329,1616689160.91552,1616689168.16604,1616689168.16776,1616689170.26683,1616689172.83447,1616689172.83596,1616689173.51602,1616689173.50139,1616689455.00782,1
8,4,2,3,18,4,1,c1_WhyFace,2,admiring?,6,F_692.jpg,1616688847.76846,1616688847.77043,310.384838809967,7.23727822303772,317.637580623627,319.738375654221,0.3,323.2897174263,0.933687448501587,324.225095977783,3,right,0.916352987289429,324.223404874802,604.479366531372,607.239366531372,1616689160.91329,1616689160.91552,1616689168.16604,1616689168.16776,1616689170.26683,1616689173.81817,1616689173.82019,1616689174.75355,1616689174.75186,1616689455.00782,0
8,4,2,3,18,5,1,c1_WhyFace,1,admiring?,4,F_779.jpg,1616688847.76846,1616688847.77043,310.384838809967,7.23727822303772,317.637580623627,319.738375654221,0.3,324.540190448761,0.700264930725098,325.241621007919,1,left,0.677128076553345,325.240455379486,604.479366531372,607.239366531372,1616689160.91329,1616689160.91552,1616689168.16604,1616689168.16776,1616689170.26683,1616689175.06865,1616689175.0704,1616689175.77008,1616689175.76891,1616689455.00782,1
8,4,2,3,18,6,1,c1_WhyFace,1,admiring?,8,F_590.jpg,1616688847.76846,1616688847.77043,310.384838809967,7.23727822303772,317.637580623627,319.738375654221,0.3,325.557241430283,0.750284194946289,326.30879401207,1,left,0.738716840744019,326.307525625229,604.479366531372,607.239366531372,1616689160.91329,1616689160.91552,1616689168.16604,1616689168.16776,1616689170.26683,1616689176.0857,1616689176.08746,1616689176.83725,1616689176.83598,1616689455.00782,1
8,4,2,3,18,7,1,c1_WhyFace,1,admiring?,7,F_648.jpg,1616688847.76846,1616688847.77043,310.384838809967,7.23727822303772,317.637580623627,319.738375654221,0.3,326.624311914444,0.650245428085327,327.287898054123,1,left,0.641492128372192,327.274557342529,604.479366531372,607.239366531372,1616689160.91329,1616689160.91552,1616689168.16604,1616689168.16776,1616689170.26683,1616689177.15277,1616689177.15415,1616689177.81635,1616689177.80301,1616689455.00782,1
8,4,2,3,18,8,1,c1_WhyFace,2,admiring?,3,F_110.jpg,1616688847.76846,1616688847.77043,310.384838809967,7.23727822303772,317.637580623627,319.738375654221,0.3,327.591344108582,0.733609676361084,328.337640037537,3,right,0.722187042236328,328.324953784943,604.479366531372,607.239366531372,1616689160.91329,1616689160.91552,1616689168.16604,1616689168.16776,1616689170.26683,1616689178.1198,1616689178.1214,1616689178.8661,1616689178.85341,1616689455.00782,0
8,4,2,3,19,1,2,c2_WhyHand,1,competing?,9,H_261.jpg,1616688847.76846,1616688847.77043,328.408319702148,7.10367822647095,335.527678480148,337.628472318649,2.10079383850098,337.778529396057,0.616900682449341,338.396449079514,1,left,0.596706867218018,338.395430078506,604.479366531372,607.239366531372,1616689178.93677,1616689178.93841,1616689186.05613,1616689186.05781,1616689188.15693,1616689188.30698,1616689188.3089,1616689188.9249,1616689188.92389,1616689455.00782,1
8,4,2,3,19,2,2,c2_WhyHand,1,competing?,15,H_170.jpg,1616688847.76846,1616688847.77043,328.408319702148,7.10367822647095,335.527678480148,337.628472318649,0.3,338.712215414047,0.633573055267334,339.347428073883,1,left,0.610036849975586,339.345788469315,604.479366531372,607.239366531372,1616689178.93677,1616689178.93841,1616689186.05613,1616689186.05781,1616689188.15693,1616689189.24067,1616689189.24229,1616689189.87588,1616689189.87424,1616689455.00782,1
8,4,2,3,19,3,2,c2_WhyHand,2,competing?,12,H_483.jpg,1616688847.76846,1616688847.77043,328.408319702148,7.10367822647095,335.527678480148,337.628472318649,0.3,339.662575712204,0.716935634613037,340.387317886353,3,right,0.703637838363647,340.379511346817,604.479366531372,607.239366531372,1616689178.93677,1616689178.93841,1616689186.05613,1616689186.05781,1616689188.15693,1616689190.19103,1616689190.19251,1616689190.91577,1616689190.90797,1616689455.00782,0
8,4,2,3,19,4,2,c2_WhyHand,1,competing?,14,H_132.jpg,1616688847.76846,1616688847.77043,328.408319702148,7.10367822647095,335.527678480148,337.628472318649,0.3,340.696300020218,0.616898775100708,341.314416875839,1,left,0.599496841430664,341.313198795319,604.479366531372,607.239366531372,1616689178.93677,1616689178.93841,1616689186.05613,1616689186.05781,1616689188.15693,1616689191.22476,1616689191.22615,1616689191.84287,1616689191.84165,1616689455.00782,1
8,4,2,3,19,5,2,c2_WhyHand,1,competing?,16,H_136.jpg,1616688847.76846,1616688847.77043,328.408319702148,7.10367822647095,335.527678480148,337.628472318649,0.3,341.629985799789,0.666918754577637,342.304440011978,1,left,0.654727935791016,342.296904554367,604.479366531372,607.239366531372,1616689178.93677,1616689178.93841,1616689186.05613,1616689186.05781,1616689188.15693,1616689192.15844,1616689192.15985,1616689192.8329,1616689192.82536,1616689455.00782,1
8,4,2,3,19,6,2,c2_WhyHand,1,competing?,13,H_003.jpg,1616688847.76846,1616688847.77043,328.408319702148,7.10367822647095,335.527678480148,337.628472318649,0.3,342.613691082001,0.600226163864136,343.220753898621,1,left,0.584233045578003,343.213917245865,604.479366531372,607.239366531372,1616689178.93677,1616689178.93841,1616689186.05613,1616689186.05781,1616689188.15693,1616689193.14215,1616689193.14405,1616689193.74921,1616689193.74237,1616689455.00782,1
8,4,2,3,19,7,2,c2_WhyHand,2,competing?,10,H_126.jpg,1616688847.76846,1616688847.77043,328.408319702148,7.10367822647095,335.527678480148,337.628472318649,0.3,343.530703773499,0.866994857788086,344.404577007294,3,right,0.848850011825562,344.397698631287,604.479366531372,607.239366531372,1616689178.93677,1616689178.93841,1616689186.05613,1616689186.05781,1616689188.15693,1616689194.05916,1616689194.06097,1616689194.93303,1616689194.92615,1616689455.00782,0
8,4,2,3,19,8,2,c2_WhyHand,2,competing?,11,H_502.jpg,1616688847.76846,1616688847.77043,328.408319702148,7.10367822647095,335.527678480148,337.628472318649,0.3,344.714484443665,0.766956806182861,345.488018026352,3,right,0.750322103500366,345.481441249847,604.479366531372,607.239366531372,1616689178.93677,1616689178.93841,1616689186.05613,1616689186.05781,1616689188.15693,1616689195.24294,1616689195.24491,1616689196.01647,1616689196.0099,1616689455.00782,0
8,4,2,3,20,1,4,c4_HowHand,1,reaching?,111,H_003.jpg,1616688847.76846,1616688847.77043,345.564806928635,11.4271121025085,357.002464761734,359.103259792328,2.10079503059387,359.253315916061,0.783629894256592,360.038790931702,1,left,0.766195058822632,360.036945810318,604.479366531372,607.239366531372,1616689196.09326,1616689196.09971,1616689207.53092,1616689207.53306,1616689209.63171,1616689209.78177,1616689209.78355,1616689210.56725,1616689210.5654,1616689455.00782,1
8,4,2,3,20,2,4,c4_HowHand,1,reaching?,110,H_364.jpg,1616688847.76846,1616688847.77043,345.564806928635,11.4271121025085,357.002464761734,359.103259792328,0.3,360.353731622696,0.816974639892578,361.172214021683,1,left,0.798635959625244,361.170706262589,604.479366531372,607.239366531372,1616689196.09326,1616689196.09971,1616689207.53092,1616689207.53306,1616689209.63171,1616689210.88219,1616689210.88363,1616689211.70067,1616689211.69916,1616689455.00782,1
8,4,2,3,20,3,4,c4_HowHand,2,reaching?,108,H_532.jpg,1616688847.76846,1616688847.77043,345.564806928635,11.4271121025085,357.002464761734,359.103259792328,0.3,361.487493743896,1.01705121994019,362.50596903801,3,right,1.00234389305115,362.504544963837,604.479366531372,607.239366531372,1616689196.09326,1616689196.09971,1616689207.53092,1616689207.53306,1616689209.63171,1616689212.01595,1616689212.01752,1616689213.03442,1616689213.033,1616689455.00782,0
8,4,2,3,20,4,4,c4_HowHand,1,reaching?,106,H_006.jpg,1616688847.76846,1616688847.77043,345.564806928635,11.4271121025085,357.002464761734,359.103259792328,0.3,362.821331729889,0.733609914779663,363.555900087357,1,left,0.724223852157593,363.554941644669,604.479366531372,607.239366531372,1616689196.09326,1616689196.09971,1616689207.53092,1616689207.53306,1616689209.63171,1616689213.34979,1616689213.35147,1616689214.08436,1616689214.0834,1616689455.00782,1
8,4,2,3,20,5,4,c4_HowHand,2,reaching?,105,H_438.jpg,1616688847.76846,1616688847.77043,345.564806928635,11.4271121025085,357.002464761734,359.103259792328,0.3,363.871728887558,1.03372359275818,364.906782855988,3,right,1.01207304000854,364.905452480316,604.479366531372,607.239366531372,1616689196.09326,1616689196.09971,1616689207.53092,1616689207.53306,1616689209.63171,1616689214.40018,1616689214.4019,1616689215.43524,1616689215.43391,1616689455.00782,0
8,4,2,3,20,6,4,c4_HowHand,1,reaching?,107,H_007.jpg,1616688847.76846,1616688847.77043,345.564806928635,11.4271121025085,357.002464761734,359.103259792328,0.3,365.22223900795,0.683591365814209,365.907320013046,1,left,0.66728401184082,365.905830373764,604.479366531372,607.239366531372,1616689196.09326,1616689196.09971,1616689207.53092,1616689207.53306,1616689209.63171,1616689215.75069,1616689215.75219,1616689216.43578,1616689216.43429,1616689455.00782,1
8,4,2,3,20,7,4,c4_HowHand,1,reaching?,109,H_474.jpg,1616688847.76846,1616688847.77043,345.564806928635,11.4271121025085,357.002464761734,359.103259792328,0.3,366.222617139816,0.833648443222046,367.057735910416,1,left,0.813030004501343,367.056265583038,604.479366531372,607.239366531372,1616689196.09326,1616689196.09971,1616689207.53092,1616689207.53306,1616689209.63171,1616689216.75107,1616689216.75282,1616689217.58619,1616689217.58472,1616689455.00782,1
8,4,2,3,20,8,4,c4_HowHand,2,reaching?,112,H_132.jpg,1616688847.76846,1616688847.77043,345.564806928635,11.4271121025085,357.002464761734,359.103259792328,0.3,367.373052587509,0.816975355148315,368.191794862747,3,right,0.797681093215942,368.190027942657,604.479366531372,607.239366531372,1616689196.09326,1616689196.09971,1616689207.53092,1616689207.53306,1616689209.63171,1616689217.90151,1616689217.903,1616689218.72025,1616689218.71848,1616689455.00782,0
8,4,2,3,21,1,3,c3_HowFace,1,open mouth?,73,F_403.jpg,1616688847.76846,1616688847.77043,368.273392906189,6.55849313735962,374.84254240036,376.943337430954,2.10079503059387,377.093393316269,0.616900205612183,377.712091913223,1,left,0.597758054733276,377.710293521881,604.479366531372,607.239366531372,1616689218.80185,1616689218.80345,1616689225.371,1616689225.37298,1616689227.47179,1616689227.62185,1616689227.62407,1616689228.24055,1616689228.23875,1616689455.00782,1
8,4,2,3,21,2,3,c3_HowFace,2,open mouth?,79,F_648.jpg,1616688847.76846,1616688847.77043,368.273392906189,6.55849313735962,374.84254240036,376.943337430954,0.3,378.027081241608,0.633571624755859,378.661660900116,3,right,0.613057851791382,378.660652866364,604.479366531372,607.239366531372,1616689218.80185,1616689218.80345,1616689225.371,1616689225.37298,1616689227.47179,1616689228.55554,1616689228.55723,1616689229.19012,1616689229.18911,1616689455.00782,0
8,4,2,3,21,3,3,c3_HowFace,1,open mouth?,74,F_776.jpg,1616688847.76846,1616688847.77043,368.273392906189,6.55849313735962,374.84254240036,376.943337430954,0.3,378.977439155579,0.633573532104492,379.620970001221,1,left,0.625856876373291,379.611012687683,604.479366531372,607.239366531372,1616689218.80185,1616689218.80345,1616689225.371,1616689225.37298,1616689227.47179,1616689229.50589,1616689229.50813,1616689230.14943,1616689230.13947,1616689455.00782,1
8,4,2,3,21,4,3,c3_HowFace,2,open mouth?,77,F_584.jpg,1616688847.76846,1616688847.77043,368.273392906189,6.55849313735962,374.84254240036,376.943337430954,0.3,379.927798976898,0.650245666503906,380.579071035385,3,right,0.633407115936279,380.578044643402,604.479366531372,607.239366531372,1616689218.80185,1616689218.80345,1616689225.371,1616689225.37298,1616689227.47179,1616689230.45625,1616689230.45789,1616689231.10753,1616689231.1065,1616689455.00782,0
8,4,2,3,21,5,3,c3_HowFace,1,open mouth?,80,F_844.jpg,1616688847.76846,1616688847.77043,368.273392906189,6.55849313735962,374.84254240036,376.943337430954,0.3,380.894830694199,0.650245428085327,381.55500005722,1,left,0.641820907592773,381.545076122284,604.479366531372,607.239366531372,1616689218.80185,1616689218.80345,1616689225.371,1616689225.37298,1616689227.47179,1616689231.42329,1616689231.42512,1616689232.08346,1616689232.07353,1616689455.00782,1
8,4,2,3,21,6,3,c3_HowFace,1,open mouth?,78,F_692.jpg,1616688847.76846,1616688847.77043,368.273392906189,6.55849313735962,374.84254240036,376.943337430954,0.3,381.861863842011,0.733609676361084,382.604816904068,1,left,0.719283103942871,382.595473518372,604.479366531372,607.239366531372,1616689218.80185,1616689218.80345,1616689225.371,1616689225.37298,1616689227.47179,1616689232.39032,1616689232.39212,1616689233.13327,1616689233.12393,1616689455.00782,1
8,4,2,3,21,7,3,c3_HowFace,1,open mouth?,75,F_086.jpg,1616688847.76846,1616688847.77043,368.273392906189,6.55849313735962,374.84254240036,376.943337430954,0.3,382.912260761261,0.633573293685913,383.554918994904,1,left,0.621281147003174,383.545834054947,604.479366531372,607.239366531372,1616689218.80185,1616689218.80345,1616689225.371,1616689225.37298,1616689227.47179,1616689233.44072,1616689233.44243,1616689234.08337,1616689234.07429,1616689455.00782,1
8,4,2,3,21,8,3,c3_HowFace,2,open mouth?,76,F_544.jpg,1616688847.76846,1616688847.77043,368.273392906189,6.55849313735962,374.84254240036,376.943337430954,0.3,383.862619628906,0.616899728775024,384.487621059418,3,right,0.60982608795166,384.479519357681,604.479366531372,607.239366531372,1616689218.80185,1616689218.80345,1616689225.371,1616689225.37298,1616689227.47179,1616689234.39107,1616689234.39273,1616689235.01608,1616689235.00797,1616689455.00782,0
8,4,2,3,22,1,1,c1_WhyFace,1,argument?,42,F_403.jpg,1616688847.76846,1616688847.77043,384.56288479805,8.94502925872803,393.516269674301,395.617064704895,2.10079503059387,395.767120828629,0.550208330154419,396.318377008438,1,left,0.524914979934692,396.317329158783,604.479366531372,607.239366531372,1616689235.09134,1616689235.10003,1616689244.04472,1616689244.05051,1616689246.14552,1616689246.29558,1616689246.3004,1616689246.84683,1616689246.84578,1616689455.00782,1
8,4,2,3,22,2,1,c1_WhyFace,2,argument?,46,F_844.jpg,1616688847.76846,1616688847.77043,384.56288479805,8.94502925872803,393.516269674301,395.617064704895,0.3,396.634114971161,0.816976308822632,397.452882995605,3,right,0.793671846389771,397.451091279984,604.479366531372,607.239366531372,1616689235.09134,1616689235.10003,1616689244.04472,1616689244.05051,1616689246.14552,1616689247.16257,1616689247.16612,1616689247.98134,1616689247.97955,1616689455.00782,0
8,4,2,3,22,3,1,c1_WhyFace,1,argument?,41,F_712.jpg,1616688847.76846,1616688847.77043,384.56288479805,8.94502925872803,393.516269674301,395.617064704895,0.3,397.767876615524,0.566881656646729,398.338016023636,1,left,0.552129983901978,398.334758272171,604.479366531372,607.239366531372,1616689235.09134,1616689235.10003,1616689244.04472,1616689244.05051,1616689246.14552,1616689248.29633,1616689248.29999,1616689248.86647,1616689248.86321,1616689455.00782,1
8,4,2,3,22,4,1,c1_WhyFace,1,argument?,48,F_758.jpg,1616688847.76846,1616688847.77043,384.56288479805,8.94502925872803,393.516269674301,395.617064704895,0.3,398.651544799805,0.683591604232788,399.33762096405,1,left,0.66886305809021,399.335136404037,604.479366531372,607.239366531372,1616689235.09134,1616689235.10003,1616689244.04472,1616689244.05051,1616689246.14552,1616689249.18,1616689249.18342,1616689249.86608,1616689249.86359,1616689455.00782,1
8,4,2,3,22,5,1,c1_WhyFace,2,argument?,45,F_433.jpg,1616688847.76846,1616688847.77043,384.56288479805,8.94502925872803,393.516269674301,395.617064704895,0.3,399.651923646927,0.733610391616821,400.387599935532,3,right,0.721887111663818,400.385534038544,604.479366531372,607.239366531372,1616689235.09134,1616689235.10003,1616689244.04472,1616689244.05051,1616689246.14552,1616689250.18038,1616689250.18322,1616689250.91605,1616689250.91399,1616689455.00782,0
8,4,2,3,22,6,1,c1_WhyFace,1,argument?,43,F_716.jpg,1616688847.76846,1616688847.77043,384.56288479805,8.94502925872803,393.516269674301,395.617064704895,0.3,400.702319612503,0.700264930725098,401.404279937744,1,left,0.683665990829468,401.402584543228,604.479366531372,607.239366531372,1616689235.09134,1616689235.10003,1616689244.04472,1616689244.05051,1616689246.14552,1616689251.23077,1616689251.23315,1616689251.93273,1616689251.93104,1616689455.00782,1
8,4,2,3,22,7,1,c1_WhyFace,2,argument?,44,F_139.jpg,1616688847.76846,1616688847.77043,384.56288479805,8.94502925872803,393.516269674301,395.617064704895,0.3,401.719371070862,0.833648920059204,402.55476688385,3,right,0.814241886138916,402.553019990921,604.479366531372,607.239366531372,1616689235.09134,1616689235.10003,1616689244.04472,1616689244.05051,1616689246.14552,1616689252.24783,1616689252.25009,1616689253.08322,1616689253.08148,1616689455.00782,0
8,4,2,3,22,8,1,c1_WhyFace,1,argument?,47,F_743.jpg,1616688847.76846,1616688847.77043,384.56288479805,8.94502925872803,393.516269674301,395.617064704895,0.3,402.869806518555,0.583553552627563,403.4547128582,1,left,0.567256927490234,403.453360071182,604.479366531372,607.239366531372,1616689235.09134,1616689235.10003,1616689244.04472,1616689244.05051,1616689246.14552,1616689253.39826,1616689253.40019,1616689253.98317,1616689253.98182,1616689455.00782,1
8,4,2,3,23,1,2,c2_WhyHand,1,helping?,39,H_024.jpg,1616688847.76846,1616688847.77043,403.536724319458,8.19114875793457,411.739826192856,413.840620746613,2.10079455375671,413.990677585602,0.833648920059204,414.82534693718,1,left,0.811876058578491,414.824326505661,604.479366531372,607.239366531372,1616689254.06518,1616689254.06677,1616689262.26828,1616689262.26969,1616689264.36908,1616689264.51913,1616689264.52098,1616689265.3538,1616689265.35278,1616689455.00782,1
8,4,2,3,23,2,2,c2_WhyHand,1,helping?,36,H_349.jpg,1616688847.76846,1616688847.77043,403.536724319458,8.19114875793457,411.739826192856,413.840620746613,0.3,415.141112318039,0.633573055267334,415.7877039814,1,left,0.626769781112671,415.774685373306,604.479366531372,607.239366531372,1616689254.06518,1616689254.06677,1616689262.26828,1616689262.26969,1616689264.36908,1616689265.66957,1616689265.67106,1616689266.31616,1616689266.30314,1616689455.00782,1
8,4,2,3,23,3,2,c2_WhyHand,1,helping?,38,H_077.jpg,1616688847.76846,1616688847.77043,403.536724319458,8.19114875793457,411.739826192856,413.840620746613,0.3,416.091472616196,0.783629179000854,416.888062944412,1,left,0.771998882293701,416.875101795197,604.479366531372,607.239366531372,1616689254.06518,1616689254.06677,1616689262.26828,1616689262.26969,1616689264.36908,1616689266.61993,1616689266.62167,1616689267.41652,1616689267.40356,1616689455.00782,1
8,4,2,3,23,4,2,c2_WhyHand,1,helping?,37,H_474.jpg,1616688847.76846,1616688847.77043,403.536724319458,8.19114875793457,411.739826192856,413.840620746613,0.3,417.19188832283,0.800302505493164,417.993573894501,1,left,0.78028392791748,417.992190828323,604.479366531372,607.239366531372,1616689254.06518,1616689254.06677,1616689262.26828,1616689262.26969,1616689264.36908,1616689267.72034,1616689267.72196,1616689268.52203,1616689268.52065,1616689455.00782,1
8,4,2,3,23,5,2,c2_WhyHand,2,helping?,33,H_091.jpg,1616688847.76846,1616688847.77043,403.536724319458,8.19114875793457,411.739826192856,413.840620746613,0.3,418.308976163864,0.700265407562256,419.010735025406,3,right,0.682410001754761,419.009241571426,604.479366531372,607.239366531372,1616689254.06518,1616689254.06677,1616689262.26828,1616689262.26969,1616689264.36908,1616689268.83743,1616689268.83946,1616689269.53919,1616689269.5377,1616689455.00782,0
8,4,2,3,23,6,2,c2_WhyHand,2,helping?,35,H_159.jpg,1616688847.76846,1616688847.77043,403.536724319458,8.19114875793457,411.739826192856,413.840620746613,0.3,419.326027860641,0.933686494827271,420.261131038666,3,right,0.918963193893433,420.259714355469,604.479366531372,607.239366531372,1616689254.06518,1616689254.06677,1616689262.26828,1616689262.26969,1616689264.36908,1616689269.85448,1616689269.8563,1616689270.78959,1616689270.78817,1616689455.00782,0
8,4,2,3,23,7,2,c2_WhyHand,1,helping?,34,H_111.jpg,1616688847.76846,1616688847.77043,403.536724319458,8.19114875793457,411.739826192856,413.840620746613,0.3,420.576500644684,0.716937780380249,421.304730882645,1,left,0.705358028411865,421.293438425064,604.479366531372,607.239366531372,1616689254.06518,1616689254.06677,1616689262.26828,1616689262.26969,1616689264.36908,1616689271.10496,1616689271.10645,1616689271.83319,1616689271.82189,1616689455.00782,1
8,4,2,3,23,8,2,c2_WhyHand,2,helping?,40,H_012.jpg,1616688847.76846,1616688847.77043,403.536724319458,8.19114875793457,411.739826192856,413.840620746613,0.3,421.610225429535,0.850321054458618,422.46220492363,3,right,0.833550930023193,422.460546483994,604.479366531372,607.239366531372,1616689254.06518,1616689254.06677,1616689262.26828,1616689262.26969,1616689264.36908,1616689272.13868,1616689272.14027,1616689272.99066,1616689272.989,1616689455.00782,0
8,4,2,3,24,1,4,c4_HowHand,1,both hands?,122,H_111.jpg,1616688847.76846,1616688847.77043,422.543911209106,7.25415372848511,429.813326826096,431.914121856689,2.10079503059387,432.064177265167,0.616899728775024,432.688345899582,1,left,0.609392166137695,432.681076993942,604.479366531372,607.239366531372,1616689273.07237,1616689273.07397,1616689280.34178,1616689280.34392,1616689282.44258,1616689282.59263,1616689282.59467,1616689283.2168,1616689283.20953,1616689455.00782,1
8,4,2,3,24,2,4,c4_HowHand,1,both hands?,128,H_027.jpg,1616688847.76846,1616688847.77043,422.543911209106,7.25415372848511,429.813326826096,431.914121856689,0.3,432.997863044739,0.583554029464722,433.58814786911,1,left,0.573890924453735,433.581417074204,604.479366531372,607.239366531372,1616689273.07237,1616689273.07397,1616689280.34178,1616689280.34392,1616689282.44258,1616689283.52632,1616689283.52817,1616689284.1166,1616689284.10987,1616689455.00782,1
8,4,2,3,24,3,4,c4_HowHand,2,both hands?,121,H_091.jpg,1616688847.76846,1616688847.77043,422.543911209106,7.25415372848511,429.813326826096,431.914121856689,0.3,433.89820479393,0.766956806182861,434.671801080704,3,right,0.753483057022095,434.665161600113,604.479366531372,607.239366531372,1616689273.07237,1616689273.07397,1616689280.34178,1616689280.34392,1616689282.44258,1616689284.42666,1616689284.42857,1616689285.20026,1616689285.19362,1616689455.00782,0
8,4,2,3,24,4,4,c4_HowHand,1,both hands?,123,H_167.jpg,1616688847.76846,1616688847.77043,422.543911209106,7.25415372848511,429.813326826096,431.914121856689,0.3,434.981947412491,0.633573055267334,435.621478071213,1,left,0.617634057998657,435.615520467758,604.479366531372,607.239366531372,1616689273.07237,1616689273.07397,1616689280.34178,1616689280.34392,1616689282.44258,1616689285.5104,1616689285.51204,1616689286.14993,1616689286.14398,1616689455.00782,1
8,4,2,3,24,5,4,c4_HowHand,1,both hands?,124,H_581.jpg,1616688847.76846,1616688847.77043,422.543911209106,7.25415372848511,429.813326826096,431.914121856689,0.3,435.93230723381,0.700264930725098,436.638534059525,1,left,0.681480884552002,436.632572164536,604.479366531372,607.239366531372,1616689273.07237,1616689273.07397,1616689280.34178,1616689280.34392,1616689282.44258,1616689286.46076,1616689286.46249,1616689287.16699,1616689287.16103,1616689455.00782,1
8,4,2,3,24,6,4,c4_HowHand,2,both hands?,126,H_159.jpg,1616688847.76846,1616688847.77043,422.543911209106,7.25415372848511,429.813326826096,431.914121856689,0.3,436.949358692169,0.700263977050781,437.654515972137,3,right,0.6907958984375,437.64962266922,604.479366531372,607.239366531372,1616689273.07237,1616689273.07397,1616689280.34178,1616689280.34392,1616689282.44258,1616689287.47781,1616689287.47948,1616689288.18297,1616689288.17808,1616689455.00782,0
8,4,2,3,24,7,4,c4_HowHand,1,both hands?,127,H_349.jpg,1616688847.76846,1616688847.77043,422.543911209106,7.25415372848511,429.813326826096,431.914121856689,0.3,437.966408720016,0.616901159286499,438.584383001328,1,left,0.596618890762329,438.583309879303,604.479366531372,607.239366531372,1616689273.07237,1616689273.07397,1616689280.34178,1616689280.34392,1616689282.44258,1616689288.49486,1616689288.49628,1616689289.11284,1616689289.11176,1616689455.00782,1
8,4,2,3,24,8,4,c4_HowHand,2,both hands?,125,H_627.jpg,1616688847.76846,1616688847.77043,422.543911209106,7.25415372848511,429.813326826096,431.914121856689,0.3,438.900095691681,0.650246381759644,439.554436912537,3,right,0.642727851867676,439.550342073441,604.479366531372,607.239366531372,1616689273.07237,1616689273.07397,1616689280.34178,1616689280.34392,1616689282.44258,1616689289.42855,1616689289.4302,1616689290.08289,1616689290.0788,1616689455.00782,0
8,4,2,3,25,1,2,c2_WhyHand,1,healthy?,18,H_438.jpg,1616688847.76846,1616688847.77043,439.633707036972,7.68135499954224,447.319945802689,449.420740833282,2.10079503059387,449.570797195435,0.967031717300415,450.538856973648,1,left,0.949640035629272,450.537828912735,604.479366531372,607.239366531372,1616689290.16216,1616689290.16628,1616689297.8484,1616689297.85024,1616689299.9492,1616689300.09925,1616689300.10089,1616689301.06731,1616689301.06628,1616689455.00782,1
8,4,2,3,25,2,2,c2_WhyHand,1,healthy?,23,H_364.jpg,1616688847.76846,1616688847.77043,439.633707036972,7.68135499954224,447.319945802689,449.420740833282,0.3,450.854615917206,0.950358867645264,451.806056013107,1,left,0.936851024627686,451.804974784851,604.479366531372,607.239366531372,1616689290.16216,1616689290.16628,1616689297.8484,1616689297.85024,1616689299.9492,1616689301.38307,1616689301.38456,1616689302.33451,1616689302.33343,1616689455.00782,1
8,4,2,3,25,3,2,c2_WhyHand,1,healthy?,17,H_362.jpg,1616688847.76846,1616688847.77043,439.633707036972,7.68135499954224,447.319945802689,449.420740833282,0.3,452.121761789322,0.750283002853394,452.887870063782,1,left,0.744076013565063,452.872044792175,604.479366531372,607.239366531372,1616689290.16216,1616689290.16628,1616689297.8484,1616689297.85024,1616689299.9492,1616689302.65022,1616689302.65173,1616689303.41633,1616689303.4005,1616689455.00782,1
8,4,2,3,25,4,2,c2_WhyHand,2,healthy?,24,H_019.jpg,1616688847.76846,1616688847.77043,439.633707036972,7.68135499954224,447.319945802689,449.420740833282,0.3,453.188831558228,0.850319385528564,454.040230026245,3,right,0.837119817733765,454.039150943756,604.479366531372,607.239366531372,1616689290.16216,1616689290.16628,1616689297.8484,1616689297.85024,1616689299.9492,1616689303.71729,1616689303.71885,1616689304.56869,1616689304.56761,1616689455.00782,0
8,4,2,3,25,5,2,c2_WhyHand,1,healthy?,19,H_167.jpg,1616688847.76846,1616688847.77043,439.633707036972,7.68135499954224,447.319945802689,449.420740833282,0.3,454.35593914032,0.883667230606079,455.241070976257,1,left,0.865942001342773,455.239606370926,604.479366531372,607.239366531372,1616689290.16216,1616689290.16628,1616689297.8484,1616689297.85024,1616689299.9492,1616689304.88439,1616689304.88633,1616689305.76953,1616689305.76806,1616689455.00782,1
8,4,2,3,25,6,2,c2_WhyHand,2,healthy?,20,H_007.jpg,1616688847.76846,1616688847.77043,439.633707036972,7.68135499954224,447.319945802689,449.420740833282,0.3,455.556393136978,0.91701340675354,456.474675884247,3,right,0.899556159973145,456.473406543732,604.479366531372,607.239366531372,1616689290.16216,1616689290.16628,1616689297.8484,1616689297.85024,1616689299.9492,1616689306.08485,1616689306.08642,1616689307.00313,1616689307.00186,1616689455.00782,0
8,4,2,3,25,7,2,c2_WhyHand,1,healthy?,21,H_627.jpg,1616688847.76846,1616688847.77043,439.633707036972,7.68135499954224,447.319945802689,449.420740833282,0.3,456.79019402504,0.816974878311157,457.608232011795,1,left,0.797149181365967,457.607168903351,604.479366531372,607.239366531372,1616689290.16216,1616689290.16628,1616689297.8484,1616689297.85024,1616689299.9492,1616689307.31865,1616689307.32028,1616689308.13669,1616689308.13562,1616689455.00782,1
8,4,2,3,25,8,2,c2_WhyHand,2,healthy?,22,H_130.jpg,1616688847.76846,1616688847.77043,439.633707036972,7.68135499954224,447.319945802689,449.420740833282,0.3,457.923955430985,0.783629179000854,458.708631982803,3,right,0.768377065658569,458.707584609985,604.479366531372,607.239366531372,1616689290.16216,1616689290.16628,1616689297.8484,1616689297.85024,1616689299.9492,1616689308.45241,1616689308.45406,1616689309.23709,1616689309.23604,1616689455.00782,0
8,4,2,3,26,1,4,c4_HowHand,1,pressing button?,82,H_126.jpg,1616688847.76846,1616688847.77043,458.790950050354,7.57797598838806,466.37715171814,468.477945795059,2.10079407691956,468.628002872467,0.716937780380249,469.346431007385,1,left,0.688300848007202,469.344940652847,604.479366531372,607.239366531372,1616689309.31941,1616689309.32109,1616689316.90561,1616689316.91743,1616689319.0064,1616689319.15646,1616689319.16743,1616689319.87489,1616689319.8734,1616689455.00782,1
8,4,2,3,26,2,4,c4_HowHand,2,pressing button?,85,H_130.jpg,1616688847.76846,1616688847.77043,458.790950050354,7.57797598838806,466.37715171814,468.477945795059,0.3,469.661726226807,0.666918516159058,470.33036898613,3,right,0.645885944366455,470.328644742966,604.479366531372,607.239366531372,1616689309.31941,1616689309.32109,1616689316.90561,1616689316.91743,1616689319.0064,1616689320.19018,1616689320.19183,1616689320.85882,1616689320.8571,1616689455.00782,0
8,4,2,3,26,3,4,c4_HowHand,1,pressing button?,84,H_483.jpg,1616688847.76846,1616688847.77043,458.790950050354,7.57797598838806,466.37715171814,468.477945795059,0.3,470.645431509018,0.500189304351807,471.155276050568,1,left,0.488461971282959,471.14562081337,604.479366531372,607.239366531372,1616689309.31941,1616689309.32109,1616689316.90561,1616689316.91743,1616689319.0064,1616689321.17389,1616689321.17588,1616689321.68373,1616689321.67408,1616689455.00782,1
8,4,2,3,26,4,4,c4_HowHand,2,pressing button?,87,H_024.jpg,1616688847.76846,1616688847.77043,458.790950050354,7.57797598838806,466.37715171814,468.477945795059,0.3,471.462408294678,0.800301551818848,472.271946897507,3,right,0.793936014175415,472.262709846497,604.479366531372,607.239366531372,1616689309.31941,1616689309.32109,1616689316.90561,1616689316.91743,1616689319.0064,1616689321.99086,1616689321.99211,1616689322.8004,1616689322.79116,1616689455.00782,0
8,4,2,3,26,5,4,c4_HowHand,1,pressing button?,86,H_332.jpg,1616688847.76846,1616688847.77043,458.790950050354,7.57797598838806,466.37715171814,468.477945795059,0.3,472.57949637413,0.50018835067749,473.088667860031,1,left,0.489471912384033,473.079684724808,604.479366531372,607.239366531372,1616689309.31941,1616689309.32109,1616689316.90561,1616689316.91743,1616689319.0064,1616689323.10795,1616689323.1095,1616689323.61712,1616689323.60814,1616689455.00782,1
8,4,2,3,26,6,4,c4_HowHand,1,pressing button?,88,H_019.jpg,1616688847.76846,1616688847.77043,458.790950050354,7.57797598838806,466.37715171814,468.477945795059,0.3,473.396471252441,0.60022759437561,474.005320062637,1,left,0.59057092666626,473.996698846817,604.479366531372,607.239366531372,1616689309.31941,1616689309.32109,1616689316.90561,1616689316.91743,1616689319.0064,1616689323.92493,1616689323.92652,1616689324.53378,1616689324.52515,1616689455.00782,1
8,4,2,3,26,7,4,c4_HowHand,2,pressing button?,81,H_261.jpg,1616688847.76846,1616688847.77043,458.790950050354,7.57797598838806,466.37715171814,468.477945795059,0.3,474.313485851288,0.716935873031616,475.038102855682,3,right,0.70928692817688,475.030421724319,604.479366531372,607.239366531372,1616689309.31941,1616689309.32109,1616689316.90561,1616689316.91743,1616689319.0064,1616689324.84194,1616689324.84352,1616689325.56656,1616689325.55888,1616689455.00782,0
8,4,2,3,26,8,4,c4_HowHand,1,pressing button?,83,H_502.jpg,1616688847.76846,1616688847.77043,458.790950050354,7.57797598838806,466.37715171814,468.477945795059,0.3,475.34720872879,0.616900444030762,475.965175857544,3,right,0.60024881362915,475.964109172821,604.479366531372,607.239366531372,1616689309.31941,1616689309.32109,1616689316.90561,1616689316.91743,1616689319.0064,1616689325.87566,1616689325.87719,1616689326.49363,1616689326.49256,1616689455.00782,0
8,4,2,3,27,1,3,c3_HowFace,1,looking at camera?,60,F_618.jpg,1616688847.76846,1616688847.77043,476.04747461319,7.85141038894653,483.917116632462,486.001237621307,2.08412098884583,486.16796754837,0.55020809173584,486.72150396347,1,left,0.535907030105591,486.718175640106,604.479366531372,607.239366531372,1616689326.57593,1616689326.5775,1616689334.44557,1616689334.44811,1616689336.52969,1616689336.69642,1616689336.69847,1616689337.24996,1616689337.24663,1616689455.00782,1
8,4,2,3,27,2,3,c3_HowFace,2,looking at camera?,58,F_754.jpg,1616688847.76846,1616688847.77043,476.04747461319,7.85141038894653,483.917116632462,486.001237621307,0.3,487.034961452484,0.650246381759644,487.688601007462,3,right,0.634184122085571,487.685207834244,604.479366531372,607.239366531372,1616689326.57593,1616689326.5775,1616689334.44557,1616689334.44811,1616689336.52969,1616689337.56342,1616689337.56728,1616689338.21706,1616689338.21366,1616689455.00782,0
8,4,2,3,27,3,3,c3_HowFace,1,looking at camera?,59,F_129.jpg,1616688847.76846,1616688847.77043,476.04747461319,7.85141038894653,483.917116632462,486.001237621307,0.3,488.00199388504,0.616899728775024,488.621980895996,1,left,0.603933095932007,488.618893613815,604.479366531372,607.239366531372,1616689326.57593,1616689326.5775,1616689334.44557,1616689334.44811,1616689336.52969,1616689338.53045,1616689338.53376,1616689339.15044,1616689339.14735,1616689455.00782,1
8,4,2,3,27,4,3,c3_HowFace,1,looking at camera?,62,F_598.jpg,1616688847.76846,1616688847.77043,476.04747461319,7.85141038894653,483.917116632462,486.001237621307,0.3,488.935680618286,0.70026421546936,489.638468971252,1,left,0.680022001266479,489.635944833756,604.479366531372,607.239366531372,1616689326.57593,1616689326.5775,1616689334.44557,1616689334.44811,1616689336.52969,1616689339.46414,1616689339.4671,1616689340.16692,1616689340.1644,1616689455.00782,1
8,4,2,3,27,5,3,c3_HowFace,1,looking at camera?,64,F_128.jpg,1616688847.76846,1616688847.77043,476.04747461319,7.85141038894653,483.917116632462,486.001237621307,0.3,489.952732076645,0.683592081069946,490.638488044739,1,left,0.664242029190063,490.636324157715,604.479366531372,607.239366531372,1616689326.57593,1616689326.5775,1616689334.44557,1616689334.44811,1616689336.52969,1616689340.48119,1616689340.48388,1616689341.16694,1616689341.16478,1616689455.00782,1
8,4,2,3,27,6,3,c3_HowFace,2,looking at camera?,57,F_582.jpg,1616688847.76846,1616688847.77043,476.04747461319,7.85141038894653,483.917116632462,486.001237621307,0.3,490.953109970093,0.733611106872559,491.688782920837,3,right,0.712629079818726,491.686721076965,604.479366531372,607.239366531372,1616689326.57593,1616689326.5775,1616689334.44557,1616689334.44811,1616689336.52969,1616689341.48156,1616689341.48389,1616689342.21724,1616689342.21518,1616689455.00782,0
8,4,2,3,27,7,3,c3_HowFace,1,looking at camera?,61,F_774.jpg,1616688847.76846,1616688847.77043,476.04747461319,7.85141038894653,483.917116632462,486.001237621307,0.3,492.003507843018,0.633571863174438,492.638931026459,1,left,0.611525058746338,492.637079706192,604.479366531372,607.239366531372,1616689326.57593,1616689326.5775,1616689334.44557,1616689334.44811,1616689336.52969,1616689342.53196,1616689342.53379,1616689343.16739,1616689343.16553,1616689455.00782,1
8,4,2,3,27,8,3,c3_HowFace,2,looking at camera?,63,F_743.jpg,1616688847.76846,1616688847.77043,476.04747461319,7.85141038894653,483.917116632462,486.001237621307,0.3,492.95386551857,0.63357400894165,493.588864078522,3,right,0.622909069061279,493.587439527512,604.479366531372,607.239366531372,1616689326.57593,1616689326.5775,1616689334.44557,1616689334.44811,1616689336.52969,1616689343.48232,1616689343.48388,1616689344.11732,1616689344.11589,1616689455.00782,0
