src_subject_id,session_id,run_id,param_counterbalance_ver,param_block_num,param_trial_num,param_cond_type_num,param_cond_type_string,param_normative_response,param_ques_type_string,param_image_num,param_image_filename,param_trigger_onset,param_start_biopac,event01_fixation,event01_fixation_dur,event01_blockquestion_onset,event01_block_isi_blacksreen,event01_blockquestion_dur,event02_image_onset,event02_image_dur,event03_response_onset,event03_response_key,event03_response_keyname,event03_RT,event04_shortquestion_onset,param_end_instruct_onset,param_experiment_duration,RAW_e1_fixation,RAW_e1_fixation_biopac,RAW_e1_blockquestion_onset,RAW_e1_blockquestion_onset_biopac,RAW_e1_block_isi_blacksreen,RAW_e2_image_onset,RAW_e2_image_onset_biopac,RAW_e3_response_onset,RAW_e4_shortquestion_onset,RAW_param_end_instruct_onset,accuracy
53,4,1,3,1,1,4,c4_HowHand,1,reaching?,107,H_007.jpg,1630008017.0349,1630008017.04603,0.0336799526214597,0.0333669185638428,0.0836994552612302,2.11779140472412,2.03409194946289,2.26784490585327,1.20044922828674,3.47922491073608,1,left,1.17882800102234,3.46829413414001,604.475761165619,607.235761165619,1630008019.82858,1630008019.84194,1630008019.8786,1630008019.88049,1630008021.91269,1630008022.06275,1630008022.06492,1630008023.27413,1630008023.2632,1630008624.27066,1
53,4,1,3,1,2,4,c4_HowHand,2,reaching?,108,H_532.jpg,1630008017.0349,1630008017.04603,0.0336799526214597,0.0333669185638428,0.0836994552612302,2.11779140472412,0.3,3.78507899284363,1.16710186004639,4.95477890014648,3,right,1.1452579498291,4.95218085289001,604.475761165619,607.235761165619,1630008019.82858,1630008019.84194,1630008019.8786,1630008019.88049,1630008021.91269,1630008023.57998,1630008023.58178,1630008024.74968,1630008024.74708,1630008624.27066,0
53,4,1,3,1,3,4,c4_HowHand,1,reaching?,109,H_474.jpg,1630008017.0349,1630008017.04603,0.0336799526214597,0.0333669185638428,0.0836994552612302,2.11779140472412,0.3,5.26896666526794,1.01704597473145,6.2883980178833,1,left,0.996676921844482,6.28601263999939,604.475761165619,607.235761165619,1630008019.82858,1630008019.84194,1630008019.8786,1630008019.88049,1630008021.91269,1630008025.06387,1630008025.06554,1630008026.0833,1630008026.08091,1630008624.27066,1
53,4,1,3,1,4,4,c4_HowHand,2,reaching?,105,H_438.jpg,1630008017.0349,1630008017.04603,0.0336799526214597,0.0333669185638428,0.0836994552612302,2.11779140472412,0.3,6.60279678344727,1.08373785018921,7.69583987236023,3,right,1.07580494880676,7.68653463363647,604.475761165619,607.235761165619,1630008019.82858,1630008019.84194,1630008019.8786,1630008019.88049,1630008021.91269,1630008026.3977,1630008026.39966,1630008027.49074,1630008027.48144,1630008624.27066,0
53,4,1,3,1,5,4,c4_HowHand,1,reaching?,110,H_364.jpg,1630008017.0349,1630008017.04603,0.0336799526214597,0.0333669185638428,0.0836994552612302,2.11779140472412,0.3,8.00331925392151,0.850316762924194,8.86280488014221,1,left,0.832109928131104,8.8536360168457,604.475761165619,607.235761165619,1630008019.82858,1630008019.84194,1630008019.8786,1630008019.88049,1630008021.91269,1630008027.79822,1630008027.80078,1630008028.65771,1630008028.64854,1630008624.27066,1
53,4,1,3,1,6,4,c4_HowHand,1,reaching?,106,H_006.jpg,1630008017.0349,1630008017.04603,0.0336799526214597,0.0333669185638428,0.0836994552612302,2.11779140472412,0.3,9.17042135238647,0.850317239761353,10.028370847702,1,left,0.843790054321289,10.0207385921478,604.475761165619,607.235761165619,1630008019.82858,1630008019.84194,1630008019.8786,1630008019.88049,1630008021.91269,1630008028.96532,1630008028.96691,1630008029.82327,1630008029.81564,1630008624.27066,1
53,4,1,3,1,7,4,c4_HowHand,1,reaching?,111,H_003.jpg,1630008017.0349,1630008017.04603,0.0336799526214597,0.0333669185638428,0.0836994552612302,2.11779140472412,0.3,10.3375234508514,0.900334358215332,11.2453088665009,1,left,0.885730028152466,11.2378578090668,604.475761165619,607.235761165619,1630008019.82858,1630008019.84194,1630008019.8786,1630008019.88049,1630008021.91269,1630008030.13243,1630008030.13404,1630008031.04021,1630008031.03276,1630008624.27066,1
53,4,1,3,1,8,4,c4_HowHand,2,reaching?,112,H_132.jpg,1630008017.0349,1630008017.04603,0.0336799526214597,0.0333669185638428,0.0836994552612302,2.11779140472412,0.3,11.5546431446075,0.933681964874268,12.4956989192963,3,right,0.920562982559204,12.4883251094818,604.475761165619,607.235761165619,1630008019.82858,1630008019.84194,1630008019.8786,1630008019.88049,1630008021.91269,1630008031.34955,1630008031.35134,1630008032.2906,1630008032.28323,1630008624.27066,0
53,4,1,3,2,1,2,c2_WhyHand,1,healthy?,21,H_627.jpg,1630008017.0349,1630008017.04603,12.7217452430725,4.80937075614929,17.5402095222473,19.6409921550751,2.10078263282776,19.7910487556458,1.1337559223175,20.9285528564453,1,left,1.1193060874939,20.9248046779633,604.475761165619,607.235761165619,1630008032.51665,1630008032.52471,1630008037.33511,1630008037.34071,1630008039.43589,1630008039.58595,1630008039.59088,1630008040.72345,1630008040.71971,1630008624.27066,1
53,4,1,3,2,2,2,c2_WhyHand,1,healthy?,18,H_438.jpg,1630008017.0349,1630008017.04603,12.7217452430725,4.80937075614929,17.5402095222473,19.6409921550751,0.3,21.2415895366669,1.61727023124695,22.8616328144073,1,left,1.59573197364807,22.8588597679138,604.475761165619,607.235761165619,1630008032.51665,1630008032.52471,1630008037.33511,1630008037.34071,1630008039.43589,1630008041.03649,1630008041.04035,1630008042.65653,1630008042.65376,1630008624.27066,1
53,4,1,3,2,3,2,c2_WhyHand,1,healthy?,23,H_364.jpg,1630008017.0349,1630008017.04603,12.7217452430725,4.80937075614929,17.5402095222473,19.6409921550751,0.3,23.175644865036,0.783623933792114,23.9620900058746,1,left,0.770893096923828,23.9592687988281,604.475761165619,607.235761165619,1630008032.51665,1630008032.52471,1630008037.33511,1630008037.34071,1630008039.43589,1630008042.97055,1630008042.97372,1630008043.75699,1630008043.75417,1630008624.27066,1
53,4,1,3,2,4,2,c2_WhyHand,2,healthy?,22,H_130.jpg,1630008017.0349,1630008017.04603,12.7217452430725,4.80937075614929,17.5402095222473,19.6409921550751,0.3,24.2760546112061,1.28381133079529,25.5621340179443,3,right,1.27495098114014,25.5598659420013,604.475761165619,607.235761165619,1630008032.51665,1630008032.52471,1630008037.33511,1630008037.34071,1630008039.43589,1630008044.07096,1630008044.07404,1630008045.35704,1630008045.35477,1630008624.27066,0
53,4,1,3,2,5,2,c2_WhyHand,1,healthy?,17,H_362.jpg,1630008017.0349,1630008017.04603,12.7217452430725,4.80937075614929,17.5402095222473,19.6409921550751,0.3,25.8766510391235,0.850316762924194,26.7282678985596,1,left,0.837484836578369,26.7269678020477,604.475761165619,607.235761165619,1630008032.51665,1630008032.52471,1630008037.33511,1630008037.34071,1630008039.43589,1630008045.67155,1630008045.67395,1630008046.52317,1630008046.52187,1630008624.27066,1
53,4,1,3,2,6,2,c2_WhyHand,2,healthy?,20,H_007.jpg,1630008017.0349,1630008017.04603,12.7217452430725,4.80937075614929,17.5402095222473,19.6409921550751,0.3,27.0437531375885,1.1004102230072,28.1453068161011,3,right,1.09113907814026,28.1441633605957,604.475761165619,607.235761165619,1630008032.51665,1630008032.52471,1630008037.33511,1630008037.34071,1630008039.43589,1630008046.83866,1630008046.84048,1630008047.94021,1630008047.93907,1630008624.27066,0
53,4,1,3,2,7,2,c2_WhyHand,1,healthy?,19,H_167.jpg,1630008017.0349,1630008017.04603,12.7217452430725,4.80937075614929,17.5402095222473,19.6409921550751,0.3,28.4609484577179,0.750280141830444,29.2290208244324,1,left,0.743716955184937,29.2112285995483,604.475761165619,607.235761165619,1630008032.51665,1630008032.52471,1630008037.33511,1630008037.34071,1630008039.43589,1630008048.25585,1630008048.25746,1630008049.02392,1630008049.00613,1630008624.27066,1
53,4,1,3,2,8,2,c2_WhyHand,2,healthy?,24,H_019.jpg,1630008017.0349,1630008017.04603,12.7217452430725,4.80937075614929,17.5402095222473,19.6409921550751,0.3,29.5280120277405,1.1837751865387,30.7133698368072,3,right,1.16408205032349,30.7117872142792,604.475761165619,607.235761165619,1630008032.51665,1630008032.52471,1630008037.33511,1630008037.34071,1630008039.43589,1630008049.32291,1630008049.32448,1630008050.50827,1630008050.50669,1630008624.27066,0
53,4,1,3,3,1,1,c1_WhyFace,1,admiring?,4,F_779.jpg,1630008017.0349,1630008017.04603,30.8118245506287,5.82731938362122,36.6473340892792,38.7481179141998,2.10078382492065,38.8981733226776,0.800298929214478,39.7002270126343,1,left,0.786787033081055,39.6984722518921,604.475761165619,607.235761165619,1630008050.60673,1630008050.60858,1630008056.44224,1630008056.44415,1630008058.54302,1630008058.69308,1630008058.6947,1630008059.49513,1630008059.49337,1630008624.27066,1
53,4,1,3,3,2,1,c1_WhyFace,1,admiring?,1,F_593.jpg,1630008017.0349,1630008017.04603,30.8118245506287,5.82731938362122,36.6473340892792,38.7481179141998,0.3,40.0152573490143,1.43386769294739,41.4616739654541,1,left,1.42309808731079,41.4491250419617,604.475761165619,607.235761165619,1630008050.60673,1630008050.60858,1630008056.44224,1630008056.44415,1630008058.54302,1630008059.81016,1630008059.81233,1630008061.25658,1630008061.24403,1630008624.27066,1
53,4,1,3,3,3,1,c1_WhyFace,2,admiring?,3,F_110.jpg,1630008017.0349,1630008017.04603,30.8118245506287,5.82731938362122,36.6473340892792,38.7481179141998,0.3,41.7659103775024,0.833643913269043,42.6012649440765,3,right,0.814581871032715,42.5995542907715,604.475761165619,607.235761165619,1630008050.60673,1630008050.60858,1630008056.44224,1630008056.44415,1630008058.54302,1630008061.56081,1630008061.56288,1630008062.39617,1630008062.39446,1630008624.27066,0
53,4,1,3,3,4,1,c1_WhyFace,1,admiring?,8,F_590.jpg,1630008017.0349,1630008017.04603,30.8118245506287,5.82731938362122,36.6473340892792,38.7481179141998,0.3,42.9163391494751,0.683588027954102,43.6122410202026,1,left,0.67026686668396,43.5999271774292,604.475761165619,607.235761165619,1630008050.60673,1630008050.60858,1630008056.44224,1630008056.44415,1630008058.54302,1630008062.71124,1630008062.7128,1630008063.40714,1630008063.39483,1630008624.27066,1
53,4,1,3,3,5,1,c1_WhyFace,2,admiring?,6,F_692.jpg,1630008017.0349,1630008017.04603,30.8118245506287,5.82731938362122,36.6473340892792,38.7481179141998,0.3,43.9167122745514,1.23379278182983,45.1522848510742,3,right,1.21745085716248,45.1505050563812,604.475761165619,607.235761165619,1630008050.60673,1630008050.60858,1630008056.44224,1630008056.44415,1630008058.54302,1630008063.71161,1630008063.71325,1630008064.94719,1630008064.94541,1630008624.27066,0
53,4,1,3,3,6,1,c1_WhyFace,1,admiring?,5,F_759.jpg,1630008017.0349,1630008017.04603,30.8118245506287,5.82731938362122,36.6473340892792,38.7481179141998,0.3,45.4672891998291,0.650244474411011,46.1289219760895,1,left,0.638169050216675,46.1175336742401,604.475761165619,607.235761165619,1630008050.60673,1630008050.60858,1630008056.44224,1630008056.44415,1630008058.54302,1630008065.26219,1630008065.26413,1630008065.92382,1630008065.91244,1630008624.27066,1
53,4,1,3,3,7,1,c1_WhyFace,1,admiring?,7,F_648.jpg,1630008017.0349,1630008017.04603,30.8118245506287,5.82731938362122,36.6473340892792,38.7481179141998,0.3,46.4343175792694,0.766953229904175,47.2029199504852,1,left,0.75079607963562,47.2012708091736,604.475761165619,607.235761165619,1630008050.60673,1630008050.60858,1630008056.44224,1630008056.44415,1630008058.54302,1630008066.22922,1630008066.23103,1630008066.99782,1630008066.99617,1630008624.27066,1
53,4,1,3,3,8,1,c1_WhyFace,2,admiring?,2,F_129.jpg,1630008017.0349,1630008017.04603,30.8118245506287,5.82731938362122,36.6473340892792,38.7481179141998,0.3,47.5180559062958,0.900335311889648,48.4199149513245,3,right,0.88509202003479,48.4183912181854,604.475761165619,607.235761165619,1630008050.60673,1630008050.60858,1630008056.44224,1630008056.44415,1630008058.54302,1630008067.31296,1630008067.31486,1630008068.21482,1630008068.21329,1630008624.27066,0
53,4,1,3,4,1,3,c3_HowFace,1,smiling?,119,F_139.jpg,1630008017.0349,1630008017.04603,48.5017547512054,7.10130906105042,55.6210772895813,57.7218603992462,2.10078310966492,57.8719162845612,0.533532381057739,58.4121179485321,1,left,0.525629043579102,58.4054486656189,604.475761165619,607.235761165619,1630008068.29666,1630008068.30744,1630008075.41598,1630008075.41749,1630008077.51676,1630008077.66682,1630008077.66878,1630008078.20702,1630008078.20035,1630008624.27066,1
53,4,1,3,4,2,3,c3_HowFace,2,smiling?,113,F_712.jpg,1630008017.0349,1630008017.04603,48.5017547512054,7.10130906105042,55.6210772895813,57.7218603992462,0.3,58.7222330474854,0.866989612579346,59.594966878891,3,right,0.854215145111084,59.5892226600647,604.475761165619,607.235761165619,1630008068.29666,1630008068.30744,1630008075.41598,1630008075.41749,1630008077.51676,1630008078.51714,1630008078.51877,1630008079.38987,1630008079.38412,1630008624.27066,0
53,4,1,3,4,3,3,c3_HowFace,1,smiling?,115,F_695.jpg,1630008017.0349,1630008017.04603,48.5017547512054,7.10130906105042,55.6210772895813,57.7218603992462,0.3,59.906008234024,0.700260877609253,60.611593952179,1,left,0.690399885177612,60.6062691116333,604.475761165619,607.235761165619,1630008068.29666,1630008068.30744,1630008075.41598,1630008075.41749,1630008077.51676,1630008079.70091,1630008079.70258,1630008080.4065,1630008080.40117,1630008624.27066,1
53,4,1,3,4,4,3,c3_HowFace,2,smiling?,120,F_758.jpg,1630008017.0349,1630008017.04603,48.5017547512054,7.10130906105042,55.6210772895813,57.7218603992462,0.3,60.9230544471741,0.800297498703003,61.7282688522339,3,right,0.781708002090454,61.7233519458771,604.475761165619,607.235761165619,1630008068.29666,1630008068.30744,1630008075.41598,1630008075.41749,1630008077.51676,1630008080.71796,1630008080.72024,1630008081.52317,1630008081.51825,1630008624.27066,0
53,4,1,3,4,5,3,c3_HowFace,1,smiling?,116,F_083.jpg,1630008017.0349,1630008017.04603,48.5017547512054,7.10130906105042,55.6210772895813,57.7218603992462,0.3,62.0401372814178,0.533531665802002,62.5787258052826,1,left,0.519342184066772,62.5736689472199,604.475761165619,607.235761165619,1630008068.29666,1630008068.30744,1630008075.41598,1630008075.41749,1630008077.51676,1630008081.83504,1630008081.83681,1630008082.37363,1630008082.36857,1630008624.27066,1
53,4,1,3,4,6,3,c3_HowFace,1,smiling?,118,F_759.jpg,1630008017.0349,1630008017.04603,48.5017547512054,7.10130906105042,55.6210772895813,57.7218603992462,0.3,62.8904542827606,0.566878080368042,63.4620718860626,1,left,0.549855947494507,63.4573323631287,604.475761165619,607.235761165619,1630008068.29666,1630008068.30744,1630008075.41598,1630008075.41749,1630008077.51676,1630008082.68536,1630008082.69058,1630008083.25697,1630008083.25223,1630008624.27066,1
53,4,1,3,4,7,3,c3_HowFace,2,smiling?,114,F_412.jpg,1630008017.0349,1630008017.04603,48.5017547512054,7.10130906105042,55.6210772895813,57.7218603992462,0.3,63.7741174602509,0.716933488845825,64.4952859783173,3,right,0.696357011795044,64.4910509490967,604.475761165619,607.235761165619,1630008068.29666,1630008068.30744,1630008075.41598,1630008075.41749,1630008077.51676,1630008083.56902,1630008083.57357,1630008084.29019,1630008084.28595,1630008624.27066,0
53,4,1,3,4,8,3,c3_HowFace,1,smiling?,117,F_593.jpg,1630008017.0349,1630008017.04603,48.5017547512054,7.10130906105042,55.6210772895813,57.7218603992462,0.3,64.8078362846374,0.716933250427246,65.5286738777161,1,left,0.697546005249023,65.5247695350647,604.475761165619,607.235761165619,1630008068.29666,1630008068.30744,1630008075.41598,1630008075.41749,1630008077.51676,1630008084.60274,1630008084.60709,1630008085.32358,1630008085.31967,1630008624.27066,1
53,4,1,3,5,1,4,c4_HowHand,1,lifting?,56,H_136.jpg,1630008017.0349,1630008017.04603,65.591461648941,7.54243326187134,73.1442778015137,75.2450618648529,2.10078406333923,75.3951177501678,1.03371810913086,76.4299240016937,1,left,1.01613712310791,76.4288358592987,604.475761165619,607.235761165619,1630008085.38636,1630008085.39112,1630008092.93918,1630008092.94243,1630008095.03996,1630008095.19002,1630008095.19198,1630008096.22483,1630008096.22374,1630008624.27066,1
53,4,1,3,5,2,4,c4_HowHand,2,lifting?,51,H_038.jpg,1630008017.0349,1630008017.04603,65.591461648941,7.54243326187134,73.1442778015137,75.2450618648529,0.3,76.7456214332581,1.31715774536133,78.0638489627838,3,right,1.30652499198914,78.0627791786194,604.475761165619,607.235761165619,1630008085.38636,1630008085.39112,1630008092.93918,1630008092.94243,1630008095.03996,1630008096.54052,1630008096.54146,1630008097.85875,1630008097.85768,1630008624.27066,0
53,4,1,3,5,3,4,c4_HowHand,1,lifting?,52,H_189.jpg,1630008017.0349,1630008017.04603,65.591461648941,7.54243326187134,73.1442778015137,75.2450618648529,0.3,78.3795642757416,1.40052199363708,79.7949399852753,1,left,1.39349699020386,79.7800862693787,604.475761165619,607.235761165619,1630008085.38636,1630008085.39112,1630008092.93918,1630008092.94243,1630008095.03996,1630008098.17447,1630008098.17622,1630008099.58984,1630008099.57499,1630008624.27066,1
53,4,1,3,5,4,4,c4_HowHand,2,lifting?,53,H_077.jpg,1630008017.0349,1630008017.04603,65.591461648941,7.54243326187134,73.1442778015137,75.2450618648529,0.3,80.0968706512451,1.08373785018921,81.1953949832916,3,right,1.07456207275391,81.1806085014343,604.475761165619,607.235761165619,1630008085.38636,1630008085.39112,1630008092.93918,1630008092.94243,1630008095.03996,1630008099.89177,1630008099.89345,1630008100.9903,1630008100.97551,1630008624.27066,0
53,4,1,3,5,5,4,c4_HowHand,1,lifting?,50,H_443.jpg,1630008017.0349,1630008017.04603,65.591461648941,7.54243326187134,73.1442778015137,75.2450618648529,0.3,81.4973931217194,0.816971063613892,82.316092004776,1,left,0.802687883377075,82.3143641853332,604.475761165619,607.235761165619,1630008085.38636,1630008085.39112,1630008092.93918,1630008092.94243,1630008095.03996,1630008101.2923,1630008101.29385,1630008102.11099,1630008102.10927,1630008624.27066,1
53,4,1,3,5,6,4,c4_HowHand,2,lifting?,55,H_012.jpg,1630008017.0349,1630008017.04603,65.591461648941,7.54243326187134,73.1442778015137,75.2450618648529,0.3,82.6311485671997,1.03372025489807,83.6660368347168,3,right,1.01578712463379,83.6648688220978,604.475761165619,607.235761165619,1630008085.38636,1630008085.39112,1630008092.93918,1630008092.94243,1630008095.03996,1630008102.42605,1630008102.42771,1630008103.46094,1630008103.45977,1630008624.27066,0
53,4,1,3,5,7,4,c4_HowHand,1,lifting?,49,H_362.jpg,1630008017.0349,1630008017.04603,65.591461648941,7.54243326187134,73.1442778015137,75.2450618648529,0.3,83.9816536808014,0.63356876373291,84.6162798309326,1,left,0.613456010818481,84.6152224445343,604.475761165619,607.235761165619,1630008085.38636,1630008085.39112,1630008092.93918,1630008092.94243,1630008095.03996,1630008103.77656,1630008103.77835,1630008104.41118,1630008104.41012,1630008624.27066,1
53,4,1,3,5,8,4,c4_HowHand,1,lifting?,54,H_170.jpg,1630008017.0349,1630008017.04603,65.591461648941,7.54243326187134,73.1442778015137,75.2450618648529,0.3,84.9320075416565,1.36717677116394,86.3115789794922,3,right,1.35825705528259,86.2991843128204,604.475761165619,607.235761165619,1630008085.38636,1630008085.39112,1630008092.93918,1630008092.94243,1630008095.03996,1630008104.72691,1630008104.72831,1630008106.10648,1630008106.09409,1630008624.27066,0
53,4,1,3,6,1,2,c2_WhyHand,1,helping?,38,H_077.jpg,1630008017.0349,1630008017.04603,86.3992214107513,9.21575140953064,95.6193258666992,97.7201096916199,2.10078382492065,97.870166053772,1.41719508171082,99.295410861969,1,left,1.39403796195984,99.2873611354828,604.475761165619,607.235761165619,1630008106.19412,1630008106.19582,1630008115.41423,1630008115.42406,1630008117.51501,1630008117.66507,1630008117.67455,1630008119.09031,1630008119.08226,1630008624.27066,1
53,4,1,3,6,2,2,c2_WhyHand,1,helping?,36,H_349.jpg,1630008017.0349,1630008017.04603,86.3992214107513,9.21575140953064,95.6193258666992,97.7201096916199,0.3,99.6041464710236,1.06706357002258,100.672653903961,1,left,1.045166015625,100.671210041046,604.475761165619,607.235761165619,1630008106.19412,1630008106.19582,1630008115.41423,1630008115.42406,1630008117.51501,1630008119.39905,1630008119.40047,1630008120.46756,1630008120.46611,1630008624.27066,1
53,4,1,3,6,3,2,c2_WhyHand,1,helping?,37,H_474.jpg,1630008017.0349,1630008017.04603,86.3992214107513,9.21575140953064,95.6193258666992,97.7201096916199,0.3,100.987995376587,1.00037288665771,101.995750894547,1,left,0.988128900527954,101.988368263245,604.475761165619,607.235761165619,1630008106.19412,1630008106.19582,1630008115.41423,1630008115.42406,1630008117.51501,1630008120.7829,1630008120.78483,1630008121.79065,1630008121.78327,1630008624.27066,1
53,4,1,3,6,4,2,c2_WhyHand,1,helping?,39,H_024.jpg,1630008017.0349,1630008017.04603,86.3992214107513,9.21575140953064,95.6193258666992,97.7201096916199,0.3,102.305153121948,1.18377494812012,103.490417947769,1,left,1.16406798362732,103.488928070068,604.475761165619,607.235761165619,1630008106.19412,1630008106.19582,1630008115.41423,1630008115.42406,1630008117.51501,1630008122.10006,1630008122.10167,1630008123.28532,1630008123.28383,1630008624.27066,1
53,4,1,3,6,5,2,c2_WhyHand,2,helping?,40,H_012.jpg,1630008017.0349,1630008017.04603,86.3992214107513,9.21575140953064,95.6193258666992,97.7201096916199,0.3,103.805712213516,1.217120885849,105.028652896881,3,right,1.20724701881409,105.022833099365,604.475761165619,607.235761165619,1630008106.19412,1630008106.19582,1630008115.41423,1630008115.42406,1630008117.51501,1630008123.60061,1630008123.60223,1630008124.82355,1630008124.81774,1630008624.27066,0
53,4,1,3,6,6,2,c2_WhyHand,2,helping?,35,H_159.jpg,1630008017.0349,1630008017.04603,86.3992214107513,9.21575140953064,95.6193258666992,97.7201096916199,0.3,105.339617958069,1.25046563148499,106.594915857315,3,right,1.23199486732483,106.590083589554,604.475761165619,607.235761165619,1630008106.19412,1630008106.19582,1630008115.41423,1630008115.42406,1630008117.51501,1630008125.13452,1630008125.13637,1630008126.38982,1630008126.38499,1630008624.27066,0
53,4,1,3,6,7,2,c2_WhyHand,1,helping?,34,H_111.jpg,1630008017.0349,1630008017.04603,86.3992214107513,9.21575140953064,95.6193258666992,97.7201096916199,0.3,106.906869163513,0.900335788726807,107.811657896042,1,left,0.884819030761719,107.80720495224,604.475761165619,607.235761165619,1630008106.19412,1630008106.19582,1630008115.41423,1630008115.42406,1630008117.51501,1630008126.70177,1630008126.70363,1630008127.60656,1630008127.60211,1630008624.27066,1
53,4,1,3,6,8,2,c2_WhyHand,2,helping?,33,H_091.jpg,1630008017.0349,1630008017.04603,86.3992214107513,9.21575140953064,95.6193258666992,97.7201096916199,0.3,108.123989810944,1.05039119720459,109.178300848007,3,right,1.03669714927673,109.174381008148,604.475761165619,607.235761165619,1630008106.19412,1630008106.19582,1630008115.41423,1630008115.42406,1630008117.51501,1630008127.91889,1630008127.92033,1630008128.9732,1630008128.96928,1630008624.27066,0
53,4,1,3,7,1,1,c1_WhyFace,1,proud?,104,F_598.jpg,1630008017.0349,1630008017.04603,109.241073122025,4.24891781806946,113.509331216812,115.593440284729,2.08410906791687,115.743497123718,1.25046730041504,116.995617856979,1,left,1.23501896858215,116.993964424133,604.475761165619,607.235761165619,1630008129.03598,1630008129.03994,1630008133.30423,1630008133.30584,1630008135.38834,1630008135.5384,1630008135.54052,1630008136.79052,1630008136.78887,1630008624.27066,1
53,4,1,3,7,2,1,c1_WhyFace,2,proud?,102,F_760.jpg,1630008017.0349,1630008017.04603,109.241073122025,4.24891781806946,113.509331216812,115.593440284729,0.3,117.310749282837,1.68396139144897,118.995638837814,3,right,1.67455005645752,118.994710674286,604.475761165619,607.235761165619,1630008129.03598,1630008129.03994,1630008133.30423,1630008133.30584,1630008135.38834,1630008137.10565,1630008137.10744,1630008138.79054,1630008138.78961,1630008624.27066,0
53,4,1,3,7,3,1,c1_WhyFace,1,proud?,97,F_582.jpg,1630008017.0349,1630008017.04603,109.241073122025,4.24891781806946,113.509331216812,115.593440284729,0.3,119.311495056152,1.05039286613464,120.363416900635,1,left,1.03554081916809,120.361887922287,604.475761165619,607.235761165619,1630008129.03598,1630008129.03994,1630008133.30423,1630008133.30584,1630008135.38834,1630008139.1064,1630008139.1079,1630008140.15832,1630008140.15679,1630008624.27066,1
53,4,1,3,7,4,1,c1_WhyFace,2,proud?,98,F_412.jpg,1630008017.0349,1630008017.04603,109.241073122025,4.24891781806946,113.509331216812,115.593440284729,0.3,120.678671350479,0.950354814529419,121.630107870102,3,right,0.930202007293701,121.629026165009,604.475761165619,607.235761165619,1630008129.03598,1630008129.03994,1630008133.30423,1630008133.30584,1630008135.38834,1630008140.47357,1630008140.47536,1630008141.42501,1630008141.42393,1630008624.27066,0
53,4,1,3,7,5,1,c1_WhyFace,1,proud?,101,F_083.jpg,1630008017.0349,1630008017.04603,109.241073122025,4.24891781806946,113.509331216812,115.593440284729,0.3,121.945810308456,0.766952753067017,122.713678827286,1,left,0.756740093231201,122.712763061523,604.475761165619,607.235761165619,1630008129.03598,1630008129.03994,1630008133.30423,1630008133.30584,1630008135.38834,1630008141.74071,1630008141.74215,1630008142.50858,1630008142.50767,1630008624.27066,1
53,4,1,3,7,6,1,c1_WhyFace,2,proud?,100,F_776.jpg,1630008017.0349,1630008017.04603,109.241073122025,4.24891781806946,113.509331216812,115.593440284729,0.3,123.029548635483,1.71730661392212,NaN,0,NA,0,124.746855249405,604.475761165619,607.235761165619,1630008129.03598,1630008129.03994,1630008133.30423,1630008133.30584,1630008135.38834,1630008142.82445,1630008142.82608,NaN,1630008144.54176,1630008624.27066,0
53,4,1,3,7,7,1,c1_WhyFace,1,proud?,103,F_618.jpg,1630008017.0349,1630008017.04603,109.241073122025,4.24891781806946,113.509331216812,115.593440284729,0.3,125.063640584946,0.0166730880737305,125.081686010361,3,right,0.000335931777954102,125.080313673019,604.475761165619,607.235761165619,1630008129.03598,1630008129.03994,1630008133.30423,1630008133.30584,1630008135.38834,1630008144.85854,1630008144.86057,1630008144.87659,1630008144.87522,1630008624.27066,0
53,4,1,3,7,8,1,c1_WhyFace,1,proud?,99,F_695.jpg,1630008017.0349,1630008017.04603,109.241073122025,4.24891781806946,113.509331216812,115.593440284729,0.3,125.397098054886,1.55057859420776,126.949386825562,1,left,1.52947998046875,126.947676649094,604.475761165619,607.235761165619,1630008129.03598,1630008129.03994,1630008133.30423,1630008133.30584,1630008135.38834,1630008145.192,1630008145.19356,1630008146.74429,1630008146.74258,1630008624.27066,1
53,4,1,3,8,1,3,c3_HowFace,1,looking to side?,72,F_590.jpg,1630008017.0349,1630008017.04603,127.014366855621,4.00554013252258,131.032533159256,133.133316030502,2.10078287124634,133.283372154236,1.00037288665771,134.285475959778,1,left,0.984930992126465,134.283745040894,604.475761165619,607.235761165619,1630008146.80927,1630008146.81059,1630008150.82744,1630008150.82903,1630008152.92822,1630008153.07827,1630008153.07965,1630008154.08038,1630008154.07865,1630008624.27066,1
53,4,1,3,8,2,3,c3_HowFace,1,looking to side?,71,F_433.jpg,1630008017.0349,1630008017.04603,127.014366855621,4.00554013252258,131.032533159256,133.133316030502,0.3,134.600530138016,1.06706404685974,135.678371896744,1,left,1.06046104431152,135.667594184875,604.475761165619,607.235761165619,1630008146.80927,1630008146.81059,1630008150.82744,1630008150.82903,1630008152.92822,1630008154.39543,1630008154.39676,1630008155.47327,1630008155.4625,1630008624.27066,1
53,4,1,3,8,3,3,c3_HowFace,1,looking to side?,67,F_716.jpg,1630008017.0349,1630008017.04603,127.014366855621,4.00554013252258,131.032533159256,133.133316030502,0.3,135.984378805161,0.816971778869629,136.802416791916,1,left,0.802238941192627,136.80135058403,604.475761165619,607.235761165619,1630008146.80927,1630008146.81059,1630008150.82744,1630008150.82903,1630008152.92822,1630008155.77928,1630008155.78074,1630008156.59732,1630008156.59625,1630008624.27066,1
53,4,1,3,8,4,3,c3_HowFace,2,looking to side?,70,F_779.jpg,1630008017.0349,1630008017.04603,127.014366855621,4.00554013252258,131.032533159256,133.133316030502,0.3,137.118135681152,1.05039167404175,138.179107894897,3,right,1.03901195526123,138.168527355194,604.475761165619,607.235761165619,1630008146.80927,1630008146.81059,1630008150.82744,1630008150.82903,1630008152.92822,1630008156.91304,1630008156.91454,1630008157.97401,1630008157.96343,1630008624.27066,0
53,4,1,3,8,5,3,c3_HowFace,1,looking to side?,68,F_760.jpg,1630008017.0349,1630008017.04603,127.014366855621,4.00554013252258,131.032533159256,133.133316030502,0.3,138.485312690735,0.917008399963379,139.411618938446,1,left,0.90735912322998,139.402321090698,604.475761165619,607.235761165619,1630008146.80927,1630008146.81059,1630008150.82744,1630008150.82903,1630008152.92822,1630008158.28021,1630008158.28165,1630008159.20652,1630008159.19722,1630008624.27066,1
53,4,1,3,8,6,3,c3_HowFace,2,looking to side?,66,F_111.jpg,1630008017.0349,1630008017.04603,127.014366855621,4.00554013252258,131.032533159256,133.133316030502,0.3,139.719105234146,0.933681726455688,140.661665906906,3,right,0.922966003417969,140.652786960602,604.475761165619,607.235761165619,1630008146.80927,1630008146.81059,1630008150.82744,1630008150.82903,1630008152.92822,1630008159.51401,1630008159.51576,1630008160.45657,1630008160.44769,1630008624.27066,0
53,4,1,3,8,7,3,c3_HowFace,1,looking to side?,69,F_110.jpg,1630008017.0349,1630008017.04603,127.014366855621,4.00554013252258,131.032533159256,133.133316030502,0.3,140.969572296143,1.0337188243866,142.012121906281,3,right,1.01997709274292,142.003291120529,604.475761165619,607.235761165619,1630008146.80927,1630008146.81059,1630008150.82744,1630008150.82903,1630008152.92822,1630008160.76447,1630008160.76622,1630008161.80702,1630008161.79819,1630008624.27066,0
53,4,1,3,8,8,3,c3_HowFace,2,looking to side?,65,F_798.jpg,1630008017.0349,1630008017.04603,127.014366855621,4.00554013252258,131.032533159256,133.133316030502,0.3,142.320075263977,0.933681011199951,143.255439987183,3,right,0.913863897323608,143.253756275177,604.475761165619,607.235761165619,1630008146.80927,1630008146.81059,1630008150.82744,1630008150.82903,1630008152.92822,1630008162.11498,1630008162.11648,1630008163.05034,1630008163.04866,1630008624.27066,0
53,4,1,3,9,1,1,c1_WhyFace,1,argument?,43,F_716.jpg,1630008017.0349,1630008017.04603,143.320448627472,6.80764126777649,150.139659156799,152.240442028046,2.10078287124634,152.390497674942,1.0670645236969,153.461578836441,1,left,1.05575680732727,153.457562198639,604.475761165619,607.235761165619,1630008163.11535,1630008163.12377,1630008169.93456,1630008169.94058,1630008172.03534,1630008172.1854,1630008172.19056,1630008173.25648,1630008173.25246,1630008624.27066,1
53,4,1,3,9,2,1,c1_WhyFace,2,argument?,44,F_139.jpg,1630008017.0349,1630008017.04603,143.320448627472,6.80764126777649,150.139659156799,152.240442028046,0.3,153.774346818924,0.70026159286499,154.478214969635,3,right,0.688596963882446,154.474608411789,604.475761165619,607.235761165619,1630008163.11535,1630008163.12377,1630008169.93456,1630008169.94058,1630008172.03534,1630008173.56925,1630008173.57382,1630008174.27312,1630008174.26951,1630008624.27066,0
53,4,1,3,9,3,1,c1_WhyFace,1,argument?,41,F_712.jpg,1630008017.0349,1630008017.04603,143.320448627472,6.80764126777649,150.139659156799,152.240442028046,0.3,154.791393508911,0.650242328643799,155.445906867981,1,left,0.632227897644043,155.441635837555,604.475761165619,607.235761165619,1630008163.11535,1630008163.12377,1630008169.93456,1630008169.94058,1630008172.03534,1630008174.5863,1630008174.59042,1630008175.24081,1630008175.23654,1630008624.27066,1
53,4,1,3,9,4,1,c1_WhyFace,2,argument?,45,F_433.jpg,1630008017.0349,1630008017.04603,143.320448627472,6.80764126777649,150.139659156799,152.240442028046,0.3,155.75842045784,0.850316524505615,156.612104883194,3,right,0.83821702003479,156.608736982346,604.475761165619,607.235761165619,1630008163.11535,1630008163.12377,1630008169.93456,1630008169.94058,1630008172.03534,1630008175.55332,1630008175.55709,1630008176.40701,1630008176.40364,1630008624.27066,0
53,4,1,3,9,5,1,c1_WhyFace,1,argument?,42,F_403.jpg,1630008017.0349,1630008017.04603,143.320448627472,6.80764126777649,150.139659156799,152.240442028046,0.3,156.925522317886,0.650242805480957,157.578678836823,1,left,0.639523029327393,157.575765123367,604.475761165619,607.235761165619,1630008163.11535,1630008163.12377,1630008169.93456,1630008169.94058,1630008172.03534,1630008176.72042,1630008176.72364,1630008177.37358,1630008177.37067,1630008624.27066,1
53,4,1,3,9,6,1,c1_WhyFace,2,argument?,46,F_844.jpg,1630008017.0349,1630008017.04603,143.320448627472,6.80764126777649,150.139659156799,152.240442028046,0.3,157.892549266815,0.750280141830444,158.644881954193,3,right,0.739875078201294,158.642829408646,604.475761165619,607.235761165619,1630008163.11535,1630008163.12377,1630008169.93456,1630008169.94058,1630008172.03534,1630008177.68745,1630008177.69037,1630008178.43978,1630008178.43773,1630008624.27066,0
53,4,1,3,9,7,1,c1_WhyFace,1,argument?,47,F_743.jpg,1630008017.0349,1630008017.04603,143.320448627472,6.80764126777649,150.139659156799,152.240442028046,0.3,158.959613313675,0.800298452377319,159.761614789963,1,left,0.788764953613281,159.759911766052,604.475761165619,607.235761165619,1630008163.11535,1630008163.12377,1630008169.93456,1630008169.94058,1630008172.03534,1630008178.75452,1630008178.75703,1630008179.55652,1630008179.55481,1630008624.27066,1
53,4,1,3,9,8,1,c1_WhyFace,1,argument?,48,F_758.jpg,1630008017.0349,1630008017.04603,143.320448627472,6.80764126777649,150.139659156799,152.240442028046,0.3,160.076697101593,0.850316762924194,160.928169002533,1,left,0.840682029724121,160.927013864517,604.475761165619,607.235761165619,1630008163.11535,1630008163.12377,1630008169.93456,1630008169.94058,1630008172.03534,1630008179.8716,1630008179.87408,1630008180.72307,1630008180.72192,1630008624.27066,1
53,4,1,3,10,1,3,c3_HowFace,1,open mouth?,80,F_844.jpg,1630008017.0349,1630008017.04603,160.993706455231,6.97419738769531,167.97964381218,170.080428590775,2.10078477859497,170.230484237671,0.666914939880371,170.898837795258,1,left,0.656698942184448,170.897399177551,604.475761165619,607.235761165619,1630008180.78861,1630008180.79044,1630008187.77455,1630008187.77591,1630008189.87533,1630008190.02539,1630008190.02668,1630008190.69374,1630008190.6923,1630008624.27066,1
53,4,1,3,10,2,3,c3_HowFace,1,open mouth?,74,F_776.jpg,1630008017.0349,1630008017.04603,160.993706455231,6.97419738769531,167.97964381218,170.080428590775,0.3,171.214183559418,0.616896629333496,171.832473983765,1,left,0.603701114654541,171.831080188751,604.475761165619,607.235761165619,1630008180.78861,1630008180.79044,1630008187.77455,1630008187.77591,1630008189.87533,1630008191.00909,1630008191.01062,1630008191.62738,1630008191.62598,1630008624.27066,1
53,4,1,3,10,3,3,c3_HowFace,2,open mouth?,76,F_544.jpg,1630008017.0349,1630008017.04603,160.993706455231,6.97419738769531,167.97964381218,170.080428590775,0.3,172.147865524292,0.766952991485596,172.928857793808,3,right,0.759104013442993,172.914818515778,604.475761165619,607.235761165619,1630008180.78861,1630008180.79044,1630008187.77455,1630008187.77591,1630008189.87533,1630008191.94277,1630008191.94435,1630008192.72376,1630008192.70972,1630008624.27066,0
53,4,1,3,10,4,3,c3_HowFace,1,open mouth?,78,F_692.jpg,1630008017.0349,1630008017.04603,160.993706455231,6.97419738769531,167.97964381218,170.080428590775,0.3,173.2316036129,0.533531427383423,173.76679681778,1,left,0.517235994338989,173.765135040283,604.475761165619,607.235761165619,1630008180.78861,1630008180.79044,1630008187.77455,1630008187.77591,1630008189.87533,1630008193.02651,1630008193.02835,1630008193.5617,1630008193.56004,1630008624.27066,1
53,4,1,3,10,5,3,c3_HowFace,2,open mouth?,77,F_584.jpg,1630008017.0349,1630008017.04603,160.993706455231,6.97419738769531,167.97964381218,170.080428590775,0.3,174.081920137405,0.633569717407227,174.716689815521,3,right,0.618030071258545,174.715489854813,604.475761165619,607.235761165619,1630008180.78861,1630008180.79044,1630008187.77455,1630008187.77591,1630008189.87533,1630008193.87682,1630008193.87852,1630008194.51159,1630008194.51039,1630008624.27066,0
53,4,1,3,10,6,3,c3_HowFace,1,open mouth?,73,F_403.jpg,1630008017.0349,1630008017.04603,160.993706455231,6.97419738769531,167.97964381218,170.080428590775,0.3,175.032273998261,0.466841220855713,175.512258996964,1,left,0.460273027420044,175.499115219116,604.475761165619,607.235761165619,1630008180.78861,1630008180.79044,1630008187.77455,1630008187.77591,1630008189.87533,1630008194.82718,1630008194.82876,1630008195.30716,1630008195.29402,1630008624.27066,1
53,4,1,3,10,7,3,c3_HowFace,1,open mouth?,75,F_086.jpg,1630008017.0349,1630008017.04603,160.993706455231,6.97419738769531,167.97964381218,170.080428590775,0.3,175.815899600983,0.566878318786621,176.395586957932,1,left,0.556621789932251,176.382777919769,604.475761165619,607.235761165619,1630008180.78861,1630008180.79044,1630008187.77455,1630008187.77591,1630008189.87533,1630008195.6108,1630008195.61263,1630008196.19049,1630008196.17768,1630008624.27066,1
53,4,1,3,10,8,3,c3_HowFace,2,open mouth?,79,F_648.jpg,1630008017.0349,1630008017.04603,160.993706455231,6.97419738769531,167.97964381218,170.080428590775,0.3,176.69956325531,0.666914463043213,177.379108896256,3,right,0.656008005142212,177.366477718353,604.475761165619,607.235761165619,1630008180.78861,1630008180.79044,1630008187.77455,1630008187.77591,1630008189.87533,1630008196.49447,1630008196.4962,1630008197.17401,1630008197.16138,1630008624.27066,0
53,4,1,3,11,1,4,c4_HowHand,1,pressing button?,88,H_019.jpg,1630008017.0349,1630008017.04603,177.449843397141,8.40805053710938,185.869649162292,187.970432510376,2.1007833480835,188.120489349365,0.550204992294312,188.679294815063,1,left,0.536623001098633,188.67069434166,604.475761165619,607.235761165619,1630008197.24475,1630008197.24635,1630008205.66455,1630008205.67385,1630008207.76533,1630008207.91539,1630008207.91718,1630008208.4742,1630008208.4656,1630008624.27066,1
53,4,1,3,11,2,4,c4_HowHand,2,pressing button?,87,H_024.jpg,1630008017.0349,1630008017.04603,177.449843397141,8.40805053710938,185.869649162292,187.970432510376,0.3,188.98747800827,0.900336503982544,189.89535402298,3,right,0.891025066375732,189.887814512253,604.475761165619,607.235761165619,1630008197.24475,1630008197.24635,1630008205.66455,1630008205.67385,1630008207.76533,1630008208.78238,1630008208.78417,1630008209.69026,1630008209.68272,1630008624.27066,0
53,4,1,3,11,3,4,c4_HowHand,2,pressing button?,85,H_130.jpg,1630008017.0349,1630008017.04603,177.449843397141,8.40805053710938,185.869649162292,187.970432510376,0.3,190.204599847794,0.900335073471069,191.106124868393,3,right,0.880086898803711,191.104934921265,604.475761165619,607.235761165619,1630008197.24475,1630008197.24635,1630008205.66455,1630008205.67385,1630008207.76533,1630008209.9995,1630008210.00102,1630008210.90103,1630008210.89984,1630008624.27066,0
53,4,1,3,11,4,4,c4_HowHand,1,pressing button?,83,H_502.jpg,1630008017.0349,1630008017.04603,177.449843397141,8.40805053710938,185.869649162292,187.970432510376,0.3,191.421720256805,0.53353214263916,191.962090005875,1,left,0.524744987487793,191.955252399445,604.475761165619,607.235761165619,1630008197.24475,1630008197.24635,1630008205.66455,1630008205.67385,1630008207.76533,1630008211.21662,1630008211.21838,1630008211.75699,1630008211.75015,1630008624.27066,1
53,4,1,3,11,5,4,c4_HowHand,2,pressing button?,81,H_261.jpg,1630008017.0349,1630008017.04603,177.449843397141,8.40805053710938,185.869649162292,187.970432510376,0.3,192.272037258148,0.7669517993927,193.045358886719,3,right,0.756245851516724,193.038989057541,604.475761165619,607.235761165619,1630008197.24475,1630008197.24635,1630008205.66455,1630008205.67385,1630008207.76533,1630008212.06694,1630008212.06834,1630008212.84026,1630008212.83389,1630008624.27066,0
53,4,1,3,11,6,4,c4_HowHand,1,pressing button?,86,H_332.jpg,1630008017.0349,1630008017.04603,177.449843397141,8.40805053710938,185.869649162292,187.970432510376,0.3,193.355774869919,0.616896867752075,193.97885178566,1,left,0.598439931869507,193.972671737671,604.475761165619,607.235761165619,1630008197.24475,1630008197.24635,1630008205.66455,1630008205.67385,1630008207.76533,1630008213.15068,1630008213.15226,1630008213.77375,1630008213.76757,1630008624.27066,1
53,4,1,3,11,7,4,c4_HowHand,1,pressing button?,82,H_126.jpg,1630008017.0349,1630008017.04603,177.449843397141,8.40805053710938,185.869649162292,187.970432510376,0.3,194.289455881119,0.583551168441772,194.878370990753,1,left,0.57146692276001,194.873007049561,604.475761165619,607.235761165619,1630008197.24475,1630008197.24635,1630008205.66455,1630008205.67385,1630008207.76533,1630008214.08436,1630008214.08577,1630008214.67327,1630008214.66791,1630008624.27066,1
53,4,1,3,11,8,4,c4_HowHand,1,pressing button?,84,H_483.jpg,1630008017.0349,1630008017.04603,177.449843397141,8.40805053710938,185.869649162292,187.970432510376,0.3,195.189791431427,0.666916131973267,195.862183799744,1,left,0.658576011657715,195.8567075634,604.475761165619,607.235761165619,1630008197.24475,1630008197.24635,1630008205.66455,1630008205.67385,1630008207.76533,1630008214.98469,1630008214.98635,1630008215.65709,1630008215.65161,1630008624.27066,1
53,4,1,3,12,1,2,c2_WhyHand,1,competing?,9,H_261.jpg,1630008017.0349,1630008017.04603,195.940071573257,7.70788836479187,203.659617652893,205.760400285721,2.10078263282776,205.910456647873,0.433495044708252,206.345048894882,1,left,0.411324977874756,206.343951692581,604.475761165619,607.235761165619,1630008215.73497,1630008215.74075,1630008223.45452,1630008223.45737,1630008225.5553,1630008225.70536,1630008225.70723,1630008226.13995,1630008226.13885,1630008624.27066,1
53,4,1,3,12,2,2,c2_WhyHand,2,competing?,12,H_483.jpg,1630008017.0349,1630008017.04603,195.940071573257,7.70788836479187,203.659617652893,205.760400285721,0.3,206.660736551285,0.850316762924194,207.512042989731,3,right,0.840139150619507,207.511053314209,604.475761165619,607.235761165619,1630008215.73497,1630008215.74075,1630008223.45452,1630008223.45737,1630008225.5553,1630008226.45564,1630008226.45739,1630008227.30695,1630008227.30596,1630008624.27066,0
53,4,1,3,12,3,2,c2_WhyHand,1,competing?,14,H_132.jpg,1630008017.0349,1630008017.04603,195.940071573257,7.70788836479187,203.659617652893,205.760400285721,0.3,207.827837934494,0.65024209022522,208.479778995514,1,left,0.636324167251587,208.478080024719,604.475761165619,607.235761165619,1630008215.73497,1630008215.74075,1630008223.45452,1630008223.45737,1630008225.5553,1630008227.62274,1630008227.62368,1630008228.27468,1630008228.27298,1630008624.27066,1
53,4,1,3,12,4,2,c2_WhyHand,2,competing?,10,H_126.jpg,1630008017.0349,1630008017.04603,195.940071573257,7.70788836479187,203.659617652893,205.760400285721,0.3,208.794865121841,1.05039191246033,209.861812820435,3,right,1.04205799102783,209.845257034302,604.475761165619,607.235761165619,1630008215.73497,1630008215.74075,1630008223.45452,1630008223.45737,1630008225.5553,1630008228.58977,1630008228.59156,1630008229.65671,1630008229.64016,1630008624.27066,0
53,4,1,3,12,5,2,c2_WhyHand,1,competing?,16,H_136.jpg,1630008017.0349,1630008017.04603,195.940071573257,7.70788836479187,203.659617652893,205.760400285721,0.3,210.162041893005,0.716934204101562,210.880613794327,1,left,0.696753025054932,210.878976097107,604.475761165619,607.235761165619,1630008215.73497,1630008215.74075,1630008223.45452,1630008223.45737,1630008225.5553,1630008229.95694,1630008229.95872,1630008230.67552,1630008230.67388,1630008624.27066,1
53,4,1,3,12,6,2,c2_WhyHand,2,competing?,11,H_502.jpg,1630008017.0349,1630008017.04603,195.940071573257,7.70788836479187,203.659617652893,205.760400285721,0.3,211.195760002136,0.883663177490234,212.080430021286,3,right,0.868139982223511,212.079423179626,604.475761165619,607.235761165619,1630008215.73497,1630008215.74075,1630008223.45452,1630008223.45737,1630008225.5553,1630008230.99066,1630008230.99215,1630008231.87533,1630008231.87433,1630008624.27066,0
53,4,1,3,12,7,2,c2_WhyHand,1,competing?,13,H_003.jpg,1630008017.0349,1630008017.04603,195.940071573257,7.70788836479187,203.659617652893,205.760400285721,0.3,212.396207799912,0.550206422805786,212.94751786232,1,left,0.535989999771118,212.946414222717,604.475761165619,607.235761165619,1630008215.73497,1630008215.74075,1630008223.45452,1630008223.45737,1630008225.5553,1630008232.19111,1630008232.19291,1630008232.74242,1630008232.74132,1630008624.27066,1
53,4,1,3,12,8,2,c2_WhyHand,1,competing?,15,H_170.jpg,1630008017.0349,1630008017.04603,195.940071573257,7.70788836479187,203.659617652893,205.760400285721,0.3,213.263197650909,0.566878795623779,213.831102838516,1,left,0.551841974258423,213.830076446533,604.475761165619,607.235761165619,1630008215.73497,1630008215.74075,1630008223.45452,1630008223.45737,1630008225.5553,1630008233.0581,1630008233.06004,1630008233.626,1630008233.62498,1630008624.27066,1
53,4,1,3,13,1,1,c1_WhyFace,1,self-doubt?,29,F_544.jpg,1630008017.0349,1630008017.04603,213.896768321991,7.82114052772522,221.733023395538,223.833807220459,2.10078382492065,223.983863344193,0.933680534362793,224.929030885696,1,left,0.922298908233643,224.917543878555,604.475761165619,607.235761165619,1630008233.69167,1630008233.69259,1630008241.52793,1630008241.52974,1630008243.62871,1630008243.77877,1630008243.78057,1630008244.72393,1630008244.71245,1630008624.27066,1
53,4,1,3,13,2,1,c1_WhyFace,2,self-doubt?,27,F_086.jpg,1630008017.0349,1630008017.04603,213.896768321991,7.82114052772522,221.733023395538,223.833807220459,0.3,225.234329452515,1.40052175521851,226.645297994614,3,right,1.39030814170837,226.634851207733,604.475761165619,607.235761165619,1630008233.69167,1630008233.69259,1630008241.52793,1630008241.52974,1630008243.62871,1630008245.02923,1630008245.03122,1630008246.4402,1630008246.42975,1630008624.27066,0
53,4,1,3,13,3,1,c1_WhyFace,1,self-doubt?,25,F_798.jpg,1630008017.0349,1630008017.04603,213.896768321991,7.82114052772522,221.733023395538,223.833807220459,0.3,226.951636304855,0.600224494934082,227.552894821167,1,left,0.583096027374268,227.551860799789,604.475761165619,607.235761165619,1630008233.69167,1630008233.69259,1630008241.52793,1630008241.52974,1630008243.62871,1630008246.74654,1630008246.74837,1630008247.3478,1630008247.34676,1630008624.27066,1
53,4,1,3,13,4,1,c1_WhyFace,1,self-doubt?,26,F_111.jpg,1630008017.0349,1630008017.04603,213.896768321991,7.82114052772522,221.733023395538,223.833807220459,0.3,227.868644943237,0.583551168441772,228.462084999084,1,left,0.570069074630737,228.452196111679,604.475761165619,607.235761165619,1630008233.69167,1630008233.69259,1630008241.52793,1630008241.52974,1630008243.62871,1630008247.66355,1630008247.66537,1630008248.25699,1630008248.2471,1630008624.27066,1
53,4,1,3,13,5,1,c1_WhyFace,2,self-doubt?,31,F_774.jpg,1630008017.0349,1630008017.04603,213.896768321991,7.82114052772522,221.733023395538,223.833807220459,0.3,228.76898144722,0.61689567565918,229.387294998169,3,right,0.595053195953369,229.385877122879,604.475761165619,607.235761165619,1630008233.69167,1630008233.69259,1630008241.52793,1630008241.52974,1630008243.62871,1630008248.56388,1630008248.56553,1630008249.1822,1630008249.18078,1630008624.27066,0
53,4,1,3,13,6,1,c1_WhyFace,1,self-doubt?,28,F_754.jpg,1630008017.0349,1630008017.04603,213.896768321991,7.82114052772522,221.733023395538,223.833807220459,0.3,229.702661504745,0.600224256515503,230.312530984879,1,left,0.59121298789978,230.302885761261,604.475761165619,607.235761165619,1630008233.69167,1630008233.69259,1630008241.52793,1630008241.52974,1630008243.62871,1630008249.49756,1630008249.49917,1630008250.10743,1630008250.09779,1630008624.27066,1
53,4,1,3,13,7,1,c1_WhyFace,2,self-doubt?,32,F_128.jpg,1630008017.0349,1630008017.04603,213.896768321991,7.82114052772522,221.733023395538,223.833807220459,0.3,230.619671096802,0.833643913269043,231.454927911758,3,right,0.811786890029907,231.453315010071,604.475761165619,607.235761165619,1630008233.69167,1630008233.69259,1630008241.52793,1630008241.52974,1630008243.62871,1630008250.41457,1630008250.41608,1630008251.24983,1630008251.24822,1630008624.27066,0
53,4,1,3,13,8,1,c1_WhyFace,1,self-doubt?,30,F_584.jpg,1630008017.0349,1630008017.04603,213.896768321991,7.82114052772522,221.733023395538,223.833807220459,0.3,231.77010058403,0.716933250427246,232.48843287468,1,left,0.697007894515991,232.487033834457,604.475761165619,607.235761165619,1630008233.69167,1630008233.69259,1630008241.52793,1630008241.52974,1630008243.62871,1630008251.565,1630008251.56652,1630008252.28333,1630008252.28194,1630008624.27066,1
53,4,1,3,14,1,3,c3_HowFace,1,looking at camera?,64,F_128.jpg,1630008017.0349,1630008017.04603,232.553725233078,8.21819758415222,240.790130367279,242.87424038887,2.08411002159119,243.040970077515,0.666915655136108,243.712368001938,1,left,0.651937961578369,243.707885732651,604.475761165619,607.235761165619,1630008252.34863,1630008252.35649,1630008260.58503,1630008260.58753,1630008262.66914,1630008262.83587,1630008262.83774,1630008263.50727,1630008263.50279,1630008624.27066,1
53,4,1,3,14,2,3,c3_HowFace,1,looking at camera?,60,F_618.jpg,1630008017.0349,1630008017.04603,232.553725233078,8.21819758415222,240.790130367279,242.87424038887,0.3,244.024669876099,0.550205945968628,244.576327791214,1,left,0.526399850845337,244.574875822067,604.475761165619,607.235761165619,1630008252.34863,1630008252.35649,1630008260.58503,1630008260.58753,1630008262.66914,1630008263.81957,1630008263.8237,1630008264.37123,1630008264.36978,1630008624.27066,1
53,4,1,3,14,3,3,c3_HowFace,1,looking at camera?,62,F_598.jpg,1630008017.0349,1630008017.04603,232.553725233078,8.21819758415222,240.790130367279,242.87424038887,0.3,244.891660442352,0.566877603530884,245.462142934799,1,left,0.557098865509033,245.458538045883,604.475761165619,607.235761165619,1630008252.34863,1630008252.35649,1630008260.58503,1630008260.58753,1630008262.66914,1630008264.68656,1630008264.69049,1630008265.25705,1630008265.25344,1630008624.27066,1
53,4,1,3,14,4,3,c3_HowFace,2,looking at camera?,63,F_743.jpg,1630008017.0349,1630008017.04603,232.553725233078,8.21819758415222,240.790130367279,242.87424038887,0.3,245.775322904587,0.950354337692261,246.728281011581,3,right,0.936371088027954,246.725677242279,604.475761165619,607.235761165619,1630008252.34863,1630008252.35649,1630008260.58503,1630008260.58753,1630008262.66914,1630008265.57023,1630008265.57403,1630008266.52318,1630008266.52058,1630008624.27066,0
53,4,1,3,14,5,3,c3_HowFace,1,looking at camera?,61,F_774.jpg,1630008017.0349,1630008017.04603,232.553725233078,8.21819758415222,240.790130367279,242.87424038887,0.3,247.04246257782,0.583550691604614,247.628206958771,1,left,0.573297023773193,247.626013269424,604.475761165619,607.235761165619,1630008252.34863,1630008252.35649,1630008260.58503,1630008260.58753,1630008262.66914,1630008266.83736,1630008266.84017,1630008267.42311,1630008267.42092,1630008624.27066,1
53,4,1,3,14,6,3,c3_HowFace,2,looking at camera?,57,F_582.jpg,1630008017.0349,1630008017.04603,232.553725233078,8.21819758415222,240.790130367279,242.87424038887,0.3,247.942798604965,0.866989612579346,248.811622848511,1,left,0.849461078643799,248.809788217545,604.475761165619,607.235761165619,1630008252.34863,1630008252.35649,1630008260.58503,1630008260.58753,1630008262.66914,1630008267.7377,1630008267.74038,1630008268.60652,1630008268.60469,1630008624.27066,0
53,4,1,3,14,7,3,c3_HowFace,2,looking at camera?,58,F_754.jpg,1630008017.0349,1630008017.04603,232.553725233078,8.21819758415222,240.790130367279,242.87424038887,0.3,249.126572122574,0.833644390106201,249.961688985825,3,right,0.822633028030396,249.96021651268,604.475761165619,607.235761165619,1630008252.34863,1630008252.35649,1630008260.58503,1630008260.58753,1630008262.66914,1630008268.92147,1630008268.92379,1630008269.75659,1630008269.75512,1630008624.27066,0
53,4,1,3,14,8,3,c3_HowFace,1,looking at camera?,59,F_129.jpg,1630008017.0349,1630008017.04603,232.553725233078,8.21819758415222,240.790130367279,242.87424038887,0.3,250.277001132965,0.533533096313477,250.81244682312,1,left,0.518041133880615,250.810534229279,604.475761165619,607.235761165619,1630008252.34863,1630008252.35649,1630008260.58503,1630008260.58753,1630008262.66914,1630008270.0719,1630008270.07361,1630008270.60735,1630008270.60544,1630008624.27066,1
53,4,1,3,15,1,4,c4_HowHand,1,both hands?,123,H_167.jpg,1630008017.0349,1630008017.04603,250.877225389481,8.68470454216003,259.5804712677,261.66458152771,2.08411026000977,261.814636936188,0.866989850997925,262.682744016647,1,left,0.839503049850464,262.681626787186,604.475761165619,607.235761165619,1630008270.67213,1630008270.67308,1630008279.37537,1630008279.37719,1630008281.45948,1630008281.60954,1630008281.62364,1630008282.47765,1630008282.47653,1630008624.27066,1
53,4,1,3,15,2,4,c4_HowHand,2,both hands?,121,H_091.jpg,1630008017.0349,1630008017.04603,250.877225389481,8.68470454216003,259.5804712677,261.66458152771,0.3,262.998412361145,0.716933965682983,263.717083921433,3,right,0.703194856643677,263.715346326828,604.475761165619,607.235761165619,1630008270.67213,1630008270.67308,1630008279.37537,1630008279.37719,1630008281.45948,1630008282.79331,1630008282.79492,1630008283.51199,1630008283.51025,1630008624.27066,0
53,4,1,3,15,3,4,c4_HowHand,2,both hands?,125,H_627.jpg,1630008017.0349,1630008017.04603,250.877225389481,8.68470454216003,259.5804712677,261.66458152771,0.3,264.032130947113,1.08373785018921,265.117328872681,3,right,1.06919717788696,265.115868797302,604.475761165619,607.235761165619,1630008270.67213,1630008270.67308,1630008279.37537,1630008279.37719,1630008281.45948,1630008283.82703,1630008283.82871,1630008284.91223,1630008284.91077,1630008624.27066,0
53,4,1,3,15,4,4,c4_HowHand,1,both hands?,128,H_027.jpg,1630008017.0349,1630008017.04603,250.877225389481,8.68470454216003,259.5804712677,261.66458152771,0.3,265.432653179169,0.967026948928833,266.412026872635,1,left,0.954395055770874,266.399680128098,604.475761165619,607.235761165619,1630008270.67213,1630008270.67308,1630008279.37537,1630008279.37719,1630008281.45948,1630008285.22756,1630008285.22937,1630008286.20693,1630008286.19458,1630008624.27066,1
53,4,1,3,15,5,4,c4_HowHand,1,both hands?,122,H_111.jpg,1630008017.0349,1630008017.04603,250.877225389481,8.68470454216003,259.5804712677,261.66458152771,0.3,266.716464986801,0.800299167633057,267.518365850449,1,left,0.77836799621582,267.516764154434,604.475761165619,607.235761165619,1630008270.67213,1630008270.67308,1630008279.37537,1630008279.37719,1630008281.45948,1630008286.51137,1630008286.51293,1630008287.31327,1630008287.31167,1630008624.27066,1
53,4,1,3,15,6,4,c4_HowHand,2,both hands?,126,H_159.jpg,1630008017.0349,1630008017.04603,250.877225389481,8.68470454216003,259.5804712677,261.66458152771,0.3,267.833549728394,0.783624649047852,268.618191947937,3,right,0.766817092895508,268.617174377441,604.475761165619,607.235761165619,1630008270.67213,1630008270.67308,1630008279.37537,1630008279.37719,1630008281.45948,1630008287.62845,1630008287.63011,1630008288.41309,1630008288.41208,1630008624.27066,0
53,4,1,3,15,7,4,c4_HowHand,1,both hands?,124,H_581.jpg,1630008017.0349,1630008017.04603,250.877225389481,8.68470454216003,259.5804712677,261.66458152771,0.3,268.933960189819,0.816971302032471,269.761819829941,1,left,0.804574012756348,269.750931491852,604.475761165619,607.235761165619,1630008270.67213,1630008270.67308,1630008279.37537,1630008279.37719,1630008281.45948,1630008288.72886,1630008288.73012,1630008289.55672,1630008289.54583,1630008624.27066,1
53,4,1,3,15,8,4,c4_HowHand,1,both hands?,127,H_349.jpg,1630008017.0349,1630008017.04603,250.877225389481,8.68470454216003,259.5804712677,261.66458152771,0.3,270.067715158463,0.766952991485596,270.845498790741,1,left,0.759346008300781,270.834668149948,604.475761165619,607.235761165619,1630008270.67213,1630008270.67308,1630008279.37537,1630008279.37719,1630008281.45948,1630008289.86262,1630008289.86438,1630008290.6404,1630008290.62957,1630008624.27066,1
53,4,1,3,16,1,2,c2_WhyHand,1,self-protection?,89,H_443.jpg,1630008017.0349,1630008017.04603,270.918032398224,7.43387651443481,278.370812168121,280.454922428131,2.08411026000977,280.604978551865,0.850316762924194,281.462321987152,1,left,0.831962108612061,281.455295314789,604.475761165619,607.235761165619,1630008290.71293,1630008290.71388,1630008298.16571,1630008298.16764,1630008300.24982,1630008300.39988,1630008300.40741,1630008301.25722,1630008301.2502,1630008624.27066,1
53,4,1,3,16,2,2,c2_WhyHand,2,self-protection?,90,H_006.jpg,1630008017.0349,1630008017.04603,270.918032398224,7.43387651443481,278.370812168121,280.454922428131,0.3,281.772079935074,0.967027187347412,282.745466938019,3,right,0.954689025878906,282.739107122421,604.475761165619,607.235761165619,1630008290.71293,1630008290.71388,1630008298.16571,1630008298.16764,1630008300.24982,1630008301.56698,1630008301.56868,1630008302.54037,1630008302.53401,1630008624.27066,0
53,4,1,3,16,3,2,c2_WhyHand,1,self-protection?,91,H_581.jpg,1630008017.0349,1630008017.04603,270.918032398224,7.43387651443481,278.370812168121,280.454922428131,0.3,283.055892219543,0.683587789535522,283.741298904419,1,left,0.66132116317749,283.739480009079,604.475761165619,607.235761165619,1630008290.71293,1630008290.71388,1630008298.16571,1630008298.16764,1630008300.24982,1630008302.85079,1630008302.85261,1630008303.5362,1630008303.53438,1630008624.27066,1
53,4,1,3,16,4,2,c2_WhyHand,2,self-protection?,92,H_532.jpg,1630008017.0349,1630008017.04603,270.918032398224,7.43387651443481,278.370812168121,280.454922428131,0.3,284.056265106201,1.16710186004639,285.228293886185,3,right,1.14889216423035,285.223366966248,604.475761165619,607.235761165619,1630008290.71293,1630008290.71388,1630008298.16571,1630008298.16764,1630008300.24982,1630008303.85117,1630008303.85284,1630008305.0232,1630008305.01827,1630008624.27066,0
53,4,1,3,16,5,2,c2_WhyHand,1,self-protection?,96,H_027.jpg,1630008017.0349,1630008017.04603,270.918032398224,7.43387651443481,278.370812168121,280.454922428131,0.3,285.540152778625,1.13375520706177,286.679020872116,1,left,1.11786389350891,286.673907985687,604.475761165619,607.235761165619,1630008290.71293,1630008290.71388,1630008298.16571,1630008298.16764,1630008300.24982,1630008305.33505,1630008305.33671,1630008306.47392,1630008306.46881,1630008624.27066,1
53,4,1,3,16,6,2,c2_WhyHand,1,self-protection?,93,H_038.jpg,1630008017.0349,1630008017.04603,270.918032398224,7.43387651443481,278.370812168121,280.454922428131,0.3,286.990693798065,0.883662700653076,287.878904809952,1,left,0.864346027374268,287.874356498718,604.475761165619,607.235761165619,1630008290.71293,1630008290.71388,1630008298.16571,1630008298.16764,1630008300.24982,1630008306.7856,1630008306.79076,1630008307.67381,1630008307.66926,1630008624.27066,1
53,4,1,3,16,7,2,c2_WhyHand,2,self-protection?,95,H_332.jpg,1630008017.0349,1630008017.04603,270.918032398224,7.43387651443481,278.370812168121,280.454922428131,0.3,288.19114159584,0.917007684707642,289.10966586113,3,right,0.892788171768188,289.108149280548,604.475761165619,607.235761165619,1630008290.71293,1630008290.71388,1630008298.16571,1630008298.16764,1630008300.24982,1630008307.98604,1630008307.99062,1630008308.90457,1630008308.90305,1630008624.27066,0
53,4,1,3,16,8,2,c2_WhyHand,1,self-protection?,94,H_189.jpg,1630008017.0349,1630008017.04603,270.918032398224,7.43387651443481,278.370812168121,280.454922428131,0.3,289.424934616089,0.650241851806641,290.078277816772,1,left,0.634732007980347,290.075176467896,604.475761165619,607.235761165619,1630008290.71293,1630008290.71388,1630008298.16571,1630008298.16764,1630008300.24982,1630008309.21984,1630008309.22379,1630008309.87318,1630008309.87008,1630008624.27066,1
53,4,1,3,17,1,3,c3_HowFace,1,smiling?,118,F_759.jpg,1630008017.0349,1630008017.04603,290.141868104935,9.69006371498108,299.845487108231,301.946270456314,2.1007833480835,302.09632610321,0.700260877609253,302.798007955551,1,left,0.690623998641968,302.79658698082,604.475761165619,607.235761165619,1630008309.93677,1630008309.93973,1630008319.64039,1630008319.64224,1630008321.74117,1630008321.89123,1630008321.89319,1630008322.59291,1630008322.59149,1630008624.27066,1
53,4,1,3,17,2,3,c3_HowFace,2,smiling?,114,F_412.jpg,1630008017.0349,1630008017.04603,290.141868104935,9.69006371498108,299.845487108231,301.946270456314,0.3,303.113372077942,0.550204038619995,303.665352811813,3,right,0.53061318397522,303.663576116562,604.475761165619,607.235761165619,1630008309.93677,1630008309.93973,1630008319.64039,1630008319.64224,1630008321.74117,1630008322.90827,1630008322.90983,1630008323.46025,1630008323.45848,1630008624.27066,0
53,4,1,3,17,3,3,c3_HowFace,1,smiling?,117,F_593.jpg,1630008017.0349,1630008017.04603,290.141868104935,9.69006371498108,299.845487108231,301.946270456314,0.3,303.980362167358,0.700261354446411,304.681655874252,1,left,0.683202028274536,304.680623521805,604.475761165619,607.235761165619,1630008309.93677,1630008309.93973,1630008319.64039,1630008319.64224,1630008321.74117,1630008323.77526,1630008323.77684,1630008324.47656,1630008324.47553,1630008624.27066,1
53,4,1,3,17,4,3,c3_HowFace,2,smiling?,113,F_712.jpg,1630008017.0349,1630008017.04603,290.141868104935,9.69006371498108,299.845487108231,301.946270456314,0.3,304.997407665253,0.716934204101562,305.715444793701,3,right,0.702314853668213,305.714341869354,604.475761165619,607.235761165619,1630008309.93677,1630008309.93973,1630008319.64039,1630008319.64224,1630008321.74117,1630008324.79231,1630008324.79376,1630008325.51035,1630008325.50924,1630008624.27066,0
53,4,1,3,17,5,3,c3_HowFace,1,smiling?,115,F_695.jpg,1630008017.0349,1630008017.04603,290.141868104935,9.69006371498108,299.845487108231,301.946270456314,0.3,306.031126966476,0.616895914077759,306.661825885773,1,left,0.609961986541748,306.648022880554,604.475761165619,607.235761165619,1630008309.93677,1630008309.93973,1630008319.64039,1630008319.64224,1630008321.74117,1630008325.82603,1630008325.82773,1630008326.45673,1630008326.44292,1630008624.27066,1
53,4,1,3,17,6,3,c3_HowFace,1,smiling?,119,F_139.jpg,1630008017.0349,1630008017.04603,290.141868104935,9.69006371498108,299.845487108231,301.946270456314,0.3,306.964807977676,0.683588266372681,307.65007399559,1,left,0.665009021759033,307.648396244049,604.475761165619,607.235761165619,1630008309.93677,1630008309.93973,1630008319.64039,1630008319.64224,1630008321.74117,1630008326.75971,1630008326.76126,1630008327.44498,1630008327.4433,1630008624.27066,1
53,4,1,3,17,7,3,c3_HowFace,1,smiling?,116,F_083.jpg,1630008017.0349,1630008017.04603,290.141868104935,9.69006371498108,299.845487108231,301.946270456314,0.3,307.965181102753,0.650243520736694,308.617235889435,1,left,0.628703117370605,308.615424623489,604.475761165619,607.235761165619,1630008309.93677,1630008309.93973,1630008319.64039,1630008319.64224,1630008321.74117,1630008327.76008,1630008327.76161,1630008328.41214,1630008328.41033,1630008624.27066,1
53,4,1,3,17,8,3,c3_HowFace,2,smiling?,120,F_758.jpg,1630008017.0349,1630008017.04603,290.141868104935,9.69006371498108,299.845487108231,301.946270456314,0.3,308.932209005356,0.866988897323608,309.801016798019,3,right,0.852218866348267,309.799197902679,604.475761165619,607.235761165619,1630008309.93677,1630008309.93973,1630008319.64039,1630008319.64224,1630008321.74117,1630008328.72711,1630008328.72858,1630008329.59592,1630008329.5941,1630008624.27066,0
53,4,1,3,18,1,1,c1_WhyFace,1,admiring?,1,F_593.jpg,1630008017.0349,1630008017.04603,309.865890254974,7.7559916973114,317.63545416832,319.736237754822,2.10078358650208,319.886294355392,0.500185966491699,320.387491931915,1,left,0.482641935348511,320.386480321884,604.475761165619,607.235761165619,1630008329.66079,1630008329.67405,1630008337.43036,1630008337.43169,1630008339.53114,1630008339.6812,1630008339.6825,1630008340.18239,1630008340.18138,1630008624.27066,1
53,4,1,3,18,2,1,c1_WhyFace,2,admiring?,2,F_129.jpg,1630008017.0349,1630008017.04603,309.865890254974,7.7559916973114,317.63545416832,319.736237754822,0.3,320.703264703751,0.783624649047852,321.494957914352,3,right,0.776055097579956,321.486889352798,604.475761165619,607.235761165619,1630008329.66079,1630008329.67405,1630008337.43036,1630008337.43169,1630008339.53114,1630008340.49817,1630008340.49984,1630008341.28986,1630008341.28179,1630008624.27066,0
53,4,1,3,18,3,1,c1_WhyFace,1,admiring?,5,F_759.jpg,1630008017.0349,1630008017.04603,309.865890254974,7.7559916973114,317.63545416832,319.736237754822,0.3,321.803674926758,0.566879510879517,322.372191896439,1,left,0.544145822525024,322.370554437637,604.475761165619,607.235761165619,1630008329.66079,1630008329.67405,1630008337.43036,1630008337.43169,1630008339.53114,1630008341.59858,1630008341.60022,1630008342.16709,1630008342.16546,1630008624.27066,1
53,4,1,3,18,4,1,c1_WhyFace,2,admiring?,6,F_692.jpg,1630008017.0349,1630008017.04603,309.865890254974,7.7559916973114,317.63545416832,319.736237754822,0.3,322.687338104248,0.950355529785156,323.644953956604,1,left,0.941699028015137,323.637693634033,604.475761165619,607.235761165619,1630008329.66079,1630008329.67405,1630008337.43036,1630008337.43169,1630008339.53114,1630008342.48224,1630008342.48379,1630008343.43986,1630008343.4326,1630008624.27066,0
53,4,1,3,18,5,1,c1_WhyFace,1,admiring?,4,F_779.jpg,1630008017.0349,1630008017.04603,309.865890254974,7.7559916973114,317.63545416832,319.736237754822,0.3,323.954477539063,0.716932773590088,324.673067798615,1,left,0.694087982177734,324.671410312653,604.475761165619,607.235761165619,1630008329.66079,1630008329.67405,1630008337.43036,1630008337.43169,1630008339.53114,1630008343.74938,1630008343.75124,1630008344.46797,1630008344.46631,1630008624.27066,1
53,4,1,3,18,6,1,c1_WhyFace,1,admiring?,8,F_590.jpg,1630008017.0349,1630008017.04603,309.865890254974,7.7559916973114,317.63545416832,319.736237754822,0.3,324.988195886612,0.750280141830444,325.745120992661,1,left,0.740525960922241,325.738476028442,604.475761165619,607.235761165619,1630008329.66079,1630008329.67405,1630008337.43036,1630008337.43169,1630008339.53114,1630008344.7831,1630008344.78466,1630008345.54002,1630008345.53338,1630008624.27066,1
53,4,1,3,18,7,1,c1_WhyFace,1,admiring?,7,F_648.jpg,1630008017.0349,1630008017.04603,309.865890254974,7.7559916973114,317.63545416832,319.736237754822,0.3,326.055261363983,0.733607292175293,326.79543088913,1,left,0.723266839981079,326.788868656158,604.475761165619,607.235761165619,1630008329.66079,1630008329.67405,1630008337.43036,1630008337.43169,1630008339.53114,1630008345.85016,1630008345.85208,1630008346.59033,1630008346.58377,1630008624.27066,1
53,4,1,3,18,8,1,c1_WhyFace,2,admiring?,3,F_110.jpg,1630008017.0349,1630008017.04603,309.865890254974,7.7559916973114,317.63545416832,319.736237754822,0.3,327.105652322769,0.716933250427246,327.828324785233,3,right,0.700703144073486,327.822585573196,604.475761165619,607.235761165619,1630008329.66079,1630008329.67405,1630008337.43036,1630008337.43169,1630008339.53114,1630008346.90055,1630008346.90225,1630008347.62323,1630008347.61749,1630008624.27066,0
53,4,1,3,19,1,2,c2_WhyHand,1,competing?,9,H_261.jpg,1630008017.0349,1630008017.04603,327.88927816391,7.62276864051819,335.525459041595,337.62624215126,2.10078310966492,337.776298751831,0.53353214263916,338.311657896042,1,left,0.516682863235474,338.30983089447,604.475761165619,607.235761165619,1630008347.68418,1630008347.69016,1630008355.32036,1630008355.3242,1630008357.42114,1630008357.5712,1630008357.57379,1630008358.10656,1630008358.10473,1630008624.27066,1
53,4,1,3,19,2,2,c2_WhyHand,1,competing?,15,H_170.jpg,1630008017.0349,1630008017.04603,327.88927816391,7.62276864051819,335.525459041595,337.62624215126,0.3,338.626615991592,0.483513116836548,339.111622800827,1,left,0.469814777374268,339.110129108429,604.475761165619,607.235761165619,1630008347.68418,1630008347.69016,1630008355.32036,1630008355.3242,1630008357.42114,1630008358.42152,1630008358.42365,1630008358.90652,1630008358.90503,1630008624.27066,1
53,4,1,3,19,3,2,c2_WhyHand,2,competing?,12,H_483.jpg,1630008017.0349,1630008017.04603,327.88927816391,7.62276864051819,335.525459041595,337.62624215126,0.3,339.426914682388,0.733606576919556,340.162209978104,3,right,0.720993041992188,340.160521259308,604.475761165619,607.235761165619,1630008347.68418,1630008347.69016,1630008355.32036,1630008355.3242,1630008357.42114,1630008359.22182,1630008359.22372,1630008359.95711,1630008359.95542,1630008624.27066,0
53,4,1,3,19,4,2,c2_WhyHand,1,competing?,14,H_132.jpg,1630008017.0349,1630008017.04603,327.88927816391,7.62276864051819,335.525459041595,337.62624215126,0.3,340.47730635643,0.433494806289673,340.911854019165,1,left,0.424701929092407,340.91080116272,604.475761165619,607.235761165619,1630008347.68418,1630008347.69016,1630008355.32036,1630008355.3242,1630008357.42114,1630008360.27221,1630008360.2741,1630008360.70676,1630008360.7057,1630008624.27066,1
53,4,1,3,19,5,2,c2_WhyHand,1,competing?,16,H_136.jpg,1630008017.0349,1630008017.04603,327.88927816391,7.62276864051819,335.525459041595,337.62624215126,0.3,341.227585067749,0.600224018096924,341.828820934296,1,left,0.591465950012207,341.827809085846,604.475761165619,607.235761165619,1630008347.68418,1630008347.69016,1630008355.32036,1630008355.3242,1630008357.42114,1630008361.02249,1630008361.02353,1630008361.62372,1630008361.62271,1630008624.27066,1
53,4,1,3,19,6,2,c2_WhyHand,1,competing?,13,H_003.jpg,1630008017.0349,1630008017.04603,327.88927816391,7.62276864051819,335.525459041595,337.62624215126,0.3,342.144594659805,0.566878318786621,342.712540855408,1,left,0.553981065750122,342.711472978592,604.475761165619,607.235761165619,1630008347.68418,1630008347.69016,1630008355.32036,1630008355.3242,1630008357.42114,1630008361.9395,1630008361.94102,1630008362.50744,1630008362.50638,1630008624.27066,1
53,4,1,3,19,7,2,c2_WhyHand,2,competing?,10,H_126.jpg,1630008017.0349,1630008017.04603,327.88927816391,7.62276864051819,335.525459041595,337.62624215126,0.3,343.02825712204,0.583550691604614,343.612973918915,3,right,0.562893152236938,343.611807813644,604.475761165619,607.235761165619,1630008347.68418,1630008347.69016,1630008355.32036,1630008355.3242,1630008357.42114,1630008362.82316,1630008362.8245,1630008363.40788,1630008363.40671,1630008624.27066,0
53,4,1,3,19,8,2,c2_WhyHand,2,competing?,11,H_502.jpg,1630008017.0349,1630008017.04603,327.88927816391,7.62276864051819,335.525459041595,337.62624215126,0.3,343.928593387604,0.816971063613892,344.747261991501,3,right,0.806713104248047,344.745564451218,604.475761165619,607.235761165619,1630008347.68418,1630008347.69016,1630008355.32036,1630008355.3242,1630008357.42114,1630008363.7235,1630008363.725,1630008364.54216,1630008364.54047,1630008624.27066,0
53,4,1,3,20,1,4,c4_HowHand,1,reaching?,111,H_003.jpg,1630008017.0349,1630008017.04603,344.828927984238,12.1629648208618,357.000134458542,359.100918283463,2.10078382492065,359.25097369194,0.533532619476318,359.786194791794,1,left,0.501497030258179,359.784506311417,604.475761165619,607.235761165619,1630008364.62383,1630008364.6254,1630008376.79504,1630008376.80721,1630008378.89582,1630008379.04588,1630008379.05761,1630008379.5811,1630008379.57941,1630008624.27066,1
53,4,1,3,20,2,4,c4_HowHand,1,reaching?,110,H_364.jpg,1630008017.0349,1630008017.04603,344.828927984238,12.1629648208618,357.000134458542,359.100918283463,0.3,360.101290693283,0.533532381057739,360.645668020248,1,left,0.52060604095459,360.634823074341,604.475761165619,607.235761165619,1630008364.62383,1630008364.6254,1630008376.79504,1630008376.80721,1630008378.89582,1630008379.89619,1630008379.89747,1630008380.44057,1630008380.42973,1630008624.27066,1
53,4,1,3,20,3,4,c4_HowHand,2,reaching?,108,H_532.jpg,1630008017.0349,1630008017.04603,344.828927984238,12.1629648208618,357.000134458542,359.100918283463,0.3,360.951608409882,1.00037312507629,361.962476959229,3,right,0.993011951446533,361.951981534958,604.475761165619,607.235761165619,1630008364.62383,1630008364.6254,1630008376.79504,1630008376.80721,1630008378.89582,1630008380.74651,1630008380.74807,1630008381.75738,1630008381.74688,1630008624.27066,0
53,4,1,3,20,4,4,c4_HowHand,1,reaching?,106,H_006.jpg,1630008017.0349,1630008017.04603,344.828927984238,12.1629648208618,357.000134458542,359.100918283463,0.3,362.268765201569,0.917009353637695,363.19541882515,1,left,0.90855598449707,363.185774555206,604.475761165619,607.235761165619,1630008364.62383,1630008364.6254,1630008376.79504,1630008376.80721,1630008378.89582,1630008382.06367,1630008382.06514,1630008382.99032,1630008382.98068,1630008624.27066,1
53,4,1,3,20,5,4,c4_HowHand,2,reaching?,105,H_438.jpg,1630008017.0349,1630008017.04603,344.828927984238,12.1629648208618,357.000134458542,359.100918283463,0.3,363.502559652329,0.917008399963379,364.428429832459,3,right,0.906091213226318,364.419568052292,604.475761165619,607.235761165619,1630008364.62383,1630008364.6254,1630008376.79504,1630008376.80721,1630008378.89582,1630008383.29746,1630008383.29876,1630008384.22333,1630008384.21447,1630008624.27066,0
53,4,1,3,20,6,4,c4_HowHand,1,reaching?,107,H_007.jpg,1630008017.0349,1630008017.04603,344.828927984238,12.1629648208618,357.000134458542,359.100918283463,0.3,364.736353149414,0.933680534362793,365.671163787842,1,left,0.914559125900269,365.670033683777,604.475761165619,607.235761165619,1630008364.62383,1630008364.6254,1630008376.79504,1630008376.80721,1630008378.89582,1630008384.53126,1630008384.53316,1630008385.46607,1630008385.46494,1630008624.27066,1
53,4,1,3,20,7,4,c4_HowHand,1,reaching?,109,H_474.jpg,1630008017.0349,1630008017.04603,344.828927984238,12.1629648208618,357.000134458542,359.100918283463,0.3,365.986819496155,0.633569002151489,366.628763904572,1,left,0.622128009796143,366.620388498306,604.475761165619,607.235761165619,1630008364.62383,1630008364.6254,1630008376.79504,1630008376.80721,1630008378.89582,1630008385.78172,1630008385.78357,1630008386.42367,1630008386.41529,1630008624.27066,1
53,4,1,3,20,8,4,c4_HowHand,2,reaching?,112,H_132.jpg,1630008017.0349,1630008017.04603,344.828927984238,12.1629648208618,357.000134458542,359.100918283463,0.3,366.937172880173,0.683588027954102,367.622486820221,3,right,0.666412830352783,367.620760908127,604.475761165619,607.235761165619,1630008364.62383,1630008364.6254,1630008376.79504,1630008376.80721,1630008378.89582,1630008386.73207,1630008386.73371,1630008387.41739,1630008387.41566,1630008624.27066,0
53,4,1,3,21,1,3,c3_HowFace,1,open mouth?,73,F_403.jpg,1630008017.0349,1630008017.04603,367.704126110077,7.12778067588806,374.840120067596,376.940904369354,2.10078430175781,377.090960016251,0.483513355255127,377.578460922241,1,left,0.466715812683105,377.574473371506,604.475761165619,607.235761165619,1630008387.49903,1630008387.50069,1630008394.63502,1630008394.64063,1630008396.73581,1630008396.88586,1630008396.89069,1630008397.37336,1630008397.36938,1630008624.27066,1
53,4,1,3,21,2,3,c3_HowFace,2,open mouth?,79,F_648.jpg,1630008017.0349,1630008017.04603,367.704126110077,7.12778067588806,374.840120067596,376.940904369354,0.3,377.891259183884,0.533531188964844,378.426347007751,3,right,0.508395910263062,378.424790372849,604.475761165619,607.235761165619,1630008387.49903,1630008387.50069,1630008394.63502,1630008394.64063,1630008396.73581,1630008397.68616,1630008397.69012,1630008398.22125,1630008398.21969,1630008624.27066,0
53,4,1,3,21,3,3,c3_HowFace,1,open mouth?,74,F_776.jpg,1630008017.0349,1630008017.04603,367.704126110077,7.12778067588806,374.840120067596,376.940904369354,0.3,378.741574754715,0.566877841949463,379.309927930832,1,left,0.542923212051392,379.308452596664,604.475761165619,607.235761165619,1630008387.49903,1630008387.50069,1630008394.63502,1630008394.64063,1630008396.73581,1630008398.53648,1630008398.54012,1630008399.10483,1630008399.10335,1630008624.27066,1
53,4,1,3,21,4,3,c3_HowFace,2,open mouth?,77,F_584.jpg,1630008017.0349,1630008017.04603,367.704126110077,7.12778067588806,374.840120067596,376.940904369354,0.3,379.625238647461,0.55020546913147,380.178174009323,3,right,0.539579153060913,380.175444116592,604.475761165619,607.235761165619,1630008387.49903,1630008387.50069,1630008394.63502,1630008394.64063,1630008396.73581,1630008399.42014,1630008399.42383,1630008399.97308,1630008399.97035,1630008624.27066,0
53,4,1,3,21,5,3,c3_HowFace,1,open mouth?,80,F_844.jpg,1630008017.0349,1630008017.04603,367.704126110077,7.12778067588806,374.840120067596,376.940904369354,0.3,380.49222826004,0.550204992294312,381.044939985275,1,left,0.540907144546509,381.042433252335,604.475761165619,607.235761165619,1630008387.49903,1630008387.50069,1630008394.63502,1630008394.64063,1630008396.73581,1630008400.28713,1630008400.29055,1630008400.83984,1630008400.83734,1630008624.27066,1
53,4,1,3,21,6,3,c3_HowFace,1,open mouth?,78,F_692.jpg,1630008017.0349,1630008017.04603,367.704126110077,7.12778067588806,374.840120067596,376.940904369354,0.3,381.359218349457,0.450167655944824,381.811748018265,1,left,0.42999005317688,381.809386005402,604.475761165619,607.235761165619,1630008387.49903,1630008387.50069,1630008394.63502,1630008394.64063,1630008396.73581,1630008401.15412,1630008401.15728,1630008401.60665,1630008401.60429,1630008624.27066,1
53,4,1,3,21,7,3,c3_HowFace,1,open mouth?,75,F_086.jpg,1630008017.0349,1630008017.04603,367.704126110077,7.12778067588806,374.840120067596,376.940904369354,0.3,382.126171340942,0.43349552154541,382.561659803391,1,left,0.423731088638306,382.559666862488,604.475761165619,607.235761165619,1630008387.49903,1630008387.50069,1630008394.63502,1630008394.64063,1630008396.73581,1630008401.92107,1630008401.92383,1630008402.35656,1630008402.35457,1630008624.27066,1
53,4,1,3,21,8,3,c3_HowFace,2,open mouth?,76,F_544.jpg,1630008017.0349,1630008017.04603,367.704126110077,7.12778067588806,374.840120067596,376.940904369354,0.3,382.876451244354,0.566877603530884,383.444954862595,3,right,0.547001123428345,383.443328847885,604.475761165619,607.235761165619,1630008387.49903,1630008387.50069,1630008394.63502,1630008394.64063,1630008396.73581,1630008402.67135,1630008402.67366,1630008403.23986,1630008403.23823,1630008624.27066,0
53,4,1,3,22,1,1,c1_WhyFace,1,argument?,42,F_403.jpg,1630008017.0349,1630008017.04603,383.526693334579,9.98124361038208,393.513751020432,395.614534130096,2.10078310966492,395.764590015411,0.533533334732056,396.299237957001,1,left,0.516119003295898,396.298123350143,604.475761165619,607.235761165619,1630008403.3216,1630008403.32384,1630008413.30865,1630008413.32397,1630008415.40944,1630008415.55949,1630008415.56141,1630008416.09414,1630008416.09303,1630008624.27066,1
53,4,1,3,22,2,1,c1_WhyFace,2,argument?,46,F_844.jpg,1630008017.0349,1630008017.04603,383.526693334579,9.98124361038208,393.513751020432,395.614534130096,0.3,396.614907493591,0.550205707550049,397.166175832748,3,right,0.533768892288208,397.165113201141,604.475761165619,607.235761165619,1630008403.3216,1630008403.32384,1630008413.30865,1630008413.32397,1630008415.40944,1630008416.40981,1630008416.4114,1630008416.96108,1630008416.96002,1630008624.27066,0
53,4,1,3,22,3,1,c1_WhyFace,1,argument?,41,F_712.jpg,1630008017.0349,1630008017.04603,383.526693334579,9.98124361038208,393.513751020432,395.614534130096,0.3,397.481897106171,0.483514070510864,397.966813793182,1,left,0.463347911834717,397.965411176682,604.475761165619,607.235761165619,1630008403.3216,1630008403.32384,1630008413.30865,1630008413.32397,1630008415.40944,1630008417.2768,1630008417.27847,1630008417.76172,1630008417.76031,1630008624.27066,1
53,4,1,3,22,4,1,c1_WhyFace,1,argument?,48,F_758.jpg,1630008017.0349,1630008017.04603,383.526693334579,9.98124361038208,393.513751020432,395.614534130096,0.3,398.282196750641,0.716933250427246,399.000422945023,1,left,0.696446895599365,398.999130001068,604.475761165619,607.235761165619,1630008403.3216,1630008403.32384,1630008413.30865,1630008413.32397,1630008415.40944,1630008418.0771,1630008418.07904,1630008418.79533,1630008418.79403,1630008624.27066,1
53,4,1,3,22,5,1,c1_WhyFace,2,argument?,45,F_433.jpg,1630008017.0349,1630008017.04603,383.526693334579,9.98124361038208,393.513751020432,395.614534130096,0.3,399.315915336609,0.583550691604614,399.912033786774,3,right,0.575303077697754,399.899466028214,604.475761165619,607.235761165619,1630008403.3216,1630008403.32384,1630008413.30865,1630008413.32397,1630008415.40944,1630008419.11082,1630008419.11253,1630008419.70694,1630008419.69437,1630008624.27066,0
53,4,1,3,22,6,1,c1_WhyFace,1,argument?,43,F_716.jpg,1630008017.0349,1630008017.04603,383.526693334579,9.98124361038208,393.513751020432,395.614534130096,0.3,400.216250171661,0.466840982437134,400.684166898727,1,left,0.444323062896729,400.683091154099,604.475761165619,607.235761165619,1630008403.3216,1630008403.32384,1630008413.30865,1630008413.32397,1630008415.40944,1630008420.01115,1630008420.01284,1630008420.47907,1630008420.47799,1630008624.27066,1
53,4,1,3,22,7,1,c1_WhyFace,2,argument?,44,F_139.jpg,1630008017.0349,1630008017.04603,383.526693334579,9.98124361038208,393.513751020432,395.614534130096,0.3,400.999876489639,0.433494091033936,401.44537686348,1,left,0.42289400100708,401.433370580673,604.475761165619,607.235761165619,1630008403.3216,1630008403.32384,1630008413.30865,1630008413.32397,1630008415.40944,1630008420.79478,1630008420.7964,1630008421.24028,1630008421.22827,1630008624.27066,0
53,4,1,3,22,8,1,c1_WhyFace,1,argument?,47,F_743.jpg,1630008017.0349,1630008017.04603,383.526693334579,9.98124361038208,393.513751020432,395.614534130096,0.3,401.750156393051,0.750279664993286,402.51237701416,1,left,0.738204956054688,402.500436058044,604.475761165619,607.235761165619,1630008403.3216,1630008403.32384,1630008413.30865,1630008413.32397,1630008415.40944,1630008421.54506,1630008421.54719,1630008422.30728,1630008422.29534,1630008624.27066,1
53,4,1,3,23,1,2,c2_WhyHand,1,helping?,39,H_024.jpg,1630008017.0349,1630008017.04603,402.58380030632,9.14413666725159,411.737213125229,413.83799695015,2.10078382492065,413.988053073883,0.716934442520142,414.711659898758,1,left,0.695626974105835,414.704987516403,604.475761165619,607.235761165619,1630008422.3787,1630008422.39048,1630008431.53212,1630008431.5406,1630008433.6329,1630008433.78296,1630008433.79106,1630008434.50656,1630008434.49989,1630008624.27066,1
53,4,1,3,23,2,2,c2_WhyHand,1,helping?,36,H_349.jpg,1630008017.0349,1630008017.04603,402.58380030632,9.14413666725159,411.737213125229,413.83799695015,0.3,415.021772136688,0.583550214767456,415.61201499939,1,left,0.573177099227905,415.605322351456,604.475761165619,607.235761165619,1630008422.3787,1630008422.39048,1630008431.53212,1630008431.5406,1630008433.6329,1630008434.81667,1630008434.81838,1630008435.40692,1630008435.40022,1630008624.27066,1
53,4,1,3,23,3,2,c2_WhyHand,1,helping?,38,H_077.jpg,1630008017.0349,1630008017.04603,402.58380030632,9.14413666725159,411.737213125229,413.83799695015,0.3,415.922108402252,0.616895437240601,416.540664901733,1,left,0.596446990966797,416.539003839493,604.475761165619,607.235761165619,1630008422.3787,1630008422.39048,1630008431.53212,1630008431.5406,1630008433.6329,1630008435.71701,1630008435.71867,1630008436.33557,1630008436.33391,1630008624.27066,1
53,4,1,3,23,4,2,c2_WhyHand,1,helping?,37,H_474.jpg,1630008017.0349,1630008017.04603,402.58380030632,9.14413666725159,411.737213125229,413.83799695015,0.3,416.855789651871,0.550204038619995,417.411802997589,1,left,0.532855987548828,417.405993690491,604.475761165619,607.235761165619,1630008422.3787,1630008422.39048,1630008431.53212,1630008431.5406,1630008433.6329,1630008436.65069,1630008436.65252,1630008437.20671,1630008437.2009,1630008624.27066,1
53,4,1,3,23,5,2,c2_WhyHand,2,helping?,33,H_091.jpg,1630008017.0349,1630008017.04603,402.58380030632,9.14413666725159,411.737213125229,413.83799695015,0.3,417.722779502869,0.566877603530884,418.295335998535,1,left,0.556691884994507,418.2896571064,604.475761165619,607.235761165619,1630008422.3787,1630008422.39048,1630008431.53212,1630008431.5406,1630008433.6329,1630008437.51768,1630008437.51931,1630008438.09024,1630008438.08456,1630008624.27066,0
53,4,1,3,23,6,2,c2_WhyHand,2,helping?,35,H_159.jpg,1630008017.0349,1630008017.04603,402.58380030632,9.14413666725159,411.737213125229,413.83799695015,0.3,418.60644244194,0.816971063613892,419.425132980347,3,right,0.796980142593384,419.423413505554,604.475761165619,607.235761165619,1630008422.3787,1630008422.39048,1630008431.53212,1630008431.5406,1630008433.6329,1630008438.40134,1630008438.40312,1630008439.22004,1630008439.21832,1630008624.27066,0
53,4,1,3,23,7,2,c2_WhyHand,1,helping?,34,H_111.jpg,1630008017.0349,1630008017.04603,402.58380030632,9.14413666725159,411.737213125229,413.83799695015,0.3,419.740198125839,0.53353214263916,420.278288831711,1,left,0.518811941146851,420.273730268478,604.475761165619,607.235761165619,1630008422.3787,1630008422.39048,1630008431.53212,1630008431.5406,1630008433.6329,1630008439.5351,1630008439.53673,1630008440.07319,1630008440.06863,1630008624.27066,1
53,4,1,3,23,8,2,c2_WhyHand,2,helping?,40,H_012.jpg,1630008017.0349,1630008017.04603,402.58380030632,9.14413666725159,411.737213125229,413.83799695015,0.3,420.590514888763,0.900336027145386,421.494989862442,3,right,0.886746883392334,421.490850915909,604.475761165619,607.235761165619,1630008422.3787,1630008422.39048,1630008431.53212,1630008431.5406,1630008433.6329,1630008440.38542,1630008440.39067,1630008441.28989,1630008441.28575,1630008624.27066,0
53,4,1,3,24,1,4,c4_HowHand,1,both hands?,122,H_111.jpg,1630008017.0349,1630008017.04603,421.574214925766,8.22373104095459,429.810620298386,431.911404361725,2.10078406333923,432.061459770203,0.616896629333496,432.679378023148,1,left,0.602138996124268,432.678356399536,604.475761165619,607.235761165619,1630008441.36912,1630008441.3739,1630008449.60552,1630008449.60743,1630008451.70631,1630008451.85636,1630008451.85811,1630008452.47428,1630008452.47326,1630008624.27066,1
53,4,1,3,24,2,4,c4_HowHand,1,both hands?,128,H_027.jpg,1630008017.0349,1630008017.04603,421.574214925766,8.22373104095459,429.810620298386,431.911404361725,0.3,432.99514125824,0.583550930023193,433.579823007584,1,left,0.564618110656738,433.578692188263,604.475761165619,607.235761165619,1630008441.36912,1630008441.3739,1630008449.60552,1630008449.60743,1630008451.70631,1630008452.79004,1630008452.79152,1630008453.37473,1630008453.37359,1630008624.27066,1
53,4,1,3,24,3,4,c4_HowHand,2,both hands?,121,H_091.jpg,1630008017.0349,1630008017.04603,421.574214925766,8.22373104095459,429.810620298386,431.911404361725,0.3,433.895477523804,0.600223064422607,434.512392988205,3,right,0.5923171043396,434.495700588226,604.475761165619,607.235761165619,1630008441.36912,1630008441.3739,1630008449.60552,1630008449.60743,1630008451.70631,1630008453.69038,1630008453.69199,1630008454.3073,1630008454.2906,1630008624.27066,0
53,4,1,3,24,4,4,c4_HowHand,1,both hands?,123,H_167.jpg,1630008017.0349,1630008017.04603,421.574214925766,8.22373104095459,429.810620298386,431.911404361725,0.3,434.812486400604,0.683586597442627,435.497371902466,1,left,0.671560049057007,435.496072998047,604.475761165619,607.235761165619,1630008441.36912,1630008441.3739,1630008449.60552,1630008449.60743,1630008451.70631,1630008454.60739,1630008454.60891,1630008455.29227,1630008455.29098,1630008624.27066,1
53,4,1,3,24,5,4,c4_HowHand,1,both hands?,124,H_581.jpg,1630008017.0349,1630008017.04603,421.574214925766,8.22373104095459,429.810620298386,431.911404361725,0.3,435.812858095169,0.800299644470215,436.628726949692,1,left,0.791754961013794,436.613157739639,604.475761165619,607.235761165619,1630008441.36912,1630008441.3739,1630008449.60552,1630008449.60743,1630008451.70631,1630008455.60776,1630008455.60939,1630008456.42363,1630008456.40806,1630008624.27066,1
53,4,1,3,24,6,4,c4_HowHand,2,both hands?,126,H_159.jpg,1630008017.0349,1630008017.04603,421.574214925766,8.22373104095459,429.810620298386,431.911404361725,0.3,436.929942121506,0.700261116027832,437.631721010208,3,right,0.686810970306396,437.630203237534,604.475761165619,607.235761165619,1630008441.36912,1630008441.3739,1630008449.60552,1630008449.60743,1630008451.70631,1630008456.72484,1630008456.72649,1630008457.42662,1630008457.42511,1630008624.27066,0
53,4,1,3,24,7,4,c4_HowHand,1,both hands?,127,H_349.jpg,1630008017.0349,1630008017.04603,421.574214925766,8.22373104095459,429.810620298386,431.911404361725,0.3,437.946987380981,0.5668785572052,438.515530815125,1,left,0.544392108917236,438.513865938187,604.475761165619,607.235761165619,1630008441.36912,1630008441.3739,1630008449.60552,1630008449.60743,1630008451.70631,1630008457.74189,1630008457.74357,1630008458.31043,1630008458.30877,1630008624.27066,1
53,4,1,3,24,8,4,c4_HowHand,2,both hands?,125,H_627.jpg,1630008017.0349,1630008017.04603,421.574214925766,8.22373104095459,429.810620298386,431.911404361725,0.3,438.830650081635,0.700262308120728,439.532006015778,3,right,0.684417963027954,439.530912389755,604.475761165619,607.235761165619,1630008441.36912,1630008441.3739,1630008449.60552,1630008449.60743,1630008451.70631,1630008458.62555,1630008458.6274,1630008459.32691,1630008459.32581,1630008624.27066,0
53,4,1,3,25,1,2,c2_WhyHand,1,healthy?,18,H_438.jpg,1630008017.0349,1630008017.04603,439.614276399612,7.70061159133911,447.333821763992,449.417932024002,2.08411026000977,449.567988147736,0.550204753875732,450.128325929642,1,left,0.532773017883301,450.118192901611,604.475761165619,607.235761165619,1630008459.40918,1630008459.41051,1630008467.12872,1630008467.13039,1630008469.21283,1630008469.36289,1630008469.3736,1630008469.92323,1630008469.91309,1630008624.27066,1
53,4,1,3,25,2,2,c2_WhyHand,1,healthy?,23,H_364.jpg,1630008017.0349,1630008017.04603,439.614276399612,7.70061159133911,447.333821763992,449.417932024002,0.3,450.434978237152,0.566877365112305,451.00327085495,1,left,0.550694942474365,451.001855602264,604.475761165619,607.235761165619,1630008459.40918,1630008459.41051,1630008467.12872,1630008467.13039,1630008469.21283,1630008470.22988,1630008470.23163,1630008470.79817,1630008470.79676,1630008624.27066,1
53,4,1,3,25,3,2,c2_WhyHand,1,healthy?,17,H_362.jpg,1630008017.0349,1630008017.04603,439.614276399612,7.70061159133911,447.333821763992,449.417932024002,0.3,451.318640699387,0.700261831283569,452.028365840912,1,left,0.686432123184204,452.01890253067,604.475761165619,607.235761165619,1630008459.40918,1630008459.41051,1630008467.12872,1630008467.13039,1630008469.21283,1630008471.11354,1630008471.11507,1630008471.82327,1630008471.8138,1630008624.27066,1
53,4,1,3,25,4,2,c2_WhyHand,2,healthy?,24,H_019.jpg,1630008017.0349,1630008017.04603,439.614276399612,7.70061159133911,447.333821763992,449.417932024002,0.3,452.335687389374,0.766951560974121,453.103811969757,3,right,0.745141983032227,453.102638950348,604.475761165619,607.235761165619,1630008459.40918,1630008459.41051,1630008467.12872,1630008467.13039,1630008469.21283,1630008472.13059,1630008472.13241,1630008472.89871,1630008472.89754,1630008624.27066,0
53,4,1,3,25,5,2,c2_WhyHand,1,healthy?,19,H_167.jpg,1630008017.0349,1630008017.04603,439.614276399612,7.70061159133911,447.333821763992,449.417932024002,0.3,453.419425477982,0.600222587585449,454.021253814697,1,left,0.579693078994751,454.019648065567,604.475761165619,607.235761165619,1630008459.40918,1630008459.41051,1630008467.12872,1630008467.13039,1630008469.21283,1630008473.21433,1630008473.21616,1630008473.81616,1630008473.81455,1630008624.27066,1
53,4,1,3,25,6,2,c2_WhyHand,2,healthy?,20,H_007.jpg,1630008017.0349,1630008017.04603,439.614276399612,7.70061159133911,447.333821763992,449.417932024002,0.3,454.336432924271,0.800298690795898,455.144983997345,3,right,0.792108058929443,455.136731615067,604.475761165619,607.235761165619,1630008459.40918,1630008459.41051,1630008467.12872,1630008467.13039,1630008469.21283,1630008474.13134,1630008474.13299,1630008474.93989,1630008474.93163,1630008624.27066,0
53,4,1,3,25,7,2,c2_WhyHand,1,healthy?,21,H_627.jpg,1630008017.0349,1630008017.04603,439.614276399612,7.70061159133911,447.333821763992,449.417932024002,0.3,455.453515996933,0.550204753875732,456.005225887299,1,left,0.529349803924561,456.003720750809,604.475761165619,607.235761165619,1630008459.40918,1630008459.41051,1630008467.12872,1630008467.13039,1630008469.21283,1630008475.24842,1630008475.24969,1630008475.80013,1630008475.79862,1630008624.27066,1
53,4,1,3,25,8,2,c2_WhyHand,2,healthy?,22,H_130.jpg,1630008017.0349,1630008017.04603,439.614276399612,7.70061159133911,447.333821763992,449.417932024002,0.3,456.320505847931,0.983701229095459,457.312445869446,3,right,0.971524000167847,457.304207077026,604.475761165619,607.235761165619,1630008459.40918,1630008459.41051,1630008467.12872,1630008467.13039,1630008469.21283,1630008476.11541,1630008476.11727,1630008477.10735,1630008477.09911,1630008624.27066,0
53,4,1,3,26,1,4,c4_HowHand,1,pressing button?,82,H_126.jpg,1630008017.0349,1630008017.04603,457.387571086884,8.9813187122345,466.374256362915,468.475038995743,2.10078263282776,468.625095596313,0.566877841949463,469.195121994019,1,left,0.552927017211914,469.191973438263,604.475761165619,607.235761165619,1630008477.18247,1630008477.19043,1630008486.16916,1630008486.17361,1630008488.26994,1630008488.42,1630008488.4239,1630008488.99002,1630008488.98688,1630008624.27066,1
53,4,1,3,26,2,4,c4_HowHand,2,pressing button?,85,H_130.jpg,1630008017.0349,1630008017.04603,457.387571086884,8.9813187122345,466.374256362915,468.475038995743,0.3,469.508758296967,0.600223779678345,470.111966838837,3,right,0.581172227859497,470.108982076645,604.475761165619,607.235761165619,1630008477.18247,1630008477.19043,1630008486.16916,1630008486.17361,1630008488.26994,1630008489.30366,1630008489.30686,1630008489.90687,1630008489.90388,1630008624.27066,0
53,4,1,3,26,3,4,c4_HowHand,1,pressing button?,84,H_483.jpg,1630008017.0349,1630008017.04603,457.387571086884,8.9813187122345,466.374256362915,468.475038995743,0.3,470.425766220093,0.500187158584595,470.92895983696,1,left,0.478870868682861,470.925953378677,604.475761165619,607.235761165619,1630008477.18247,1630008477.19043,1630008486.16916,1630008486.17361,1630008488.26994,1630008490.22067,1630008490.22381,1630008490.72386,1630008490.72086,1630008624.27066,1
53,4,1,3,26,4,4,c4_HowHand,2,pressing button?,87,H_024.jpg,1630008017.0349,1630008017.04603,457.387571086884,8.9813187122345,466.374256362915,468.475038995743,0.3,471.242737998962,0.66691517829895,471.911689987183,3,right,0.644435167312622,471.909653177261,604.475761165619,607.235761165619,1630008477.18247,1630008477.19043,1630008486.16916,1630008486.17361,1630008488.26994,1630008491.03764,1630008491.04048,1630008491.70659,1630008491.70456,1630008624.27066,0
53,4,1,3,26,5,4,c4_HowHand,1,pressing button?,86,H_332.jpg,1630008017.0349,1630008017.04603,457.387571086884,8.9813187122345,466.374256362915,468.475038995743,0.3,472.226438035965,0.533531188964844,472.762272825241,1,left,0.510563850402832,472.75996922493,604.475761165619,607.235761165619,1630008477.18247,1630008477.19043,1630008486.16916,1630008486.17361,1630008488.26994,1630008492.02134,1630008492.02389,1630008492.55717,1630008492.55487,1630008624.27066,1
53,4,1,3,26,6,4,c4_HowHand,1,pressing button?,88,H_019.jpg,1630008017.0349,1630008017.04603,457.387571086884,8.9813187122345,466.374256362915,468.475038995743,0.3,473.076755514145,0.733606338500977,473.812156906128,1,left,0.714495897293091,473.810361852646,604.475761165619,607.235761165619,1630008477.18247,1630008477.19043,1630008486.16916,1630008486.17361,1630008488.26994,1630008492.87166,1630008492.87382,1630008493.60706,1630008493.60526,1630008624.27066,1
53,4,1,3,26,7,4,c4_HowHand,2,pressing button?,81,H_261.jpg,1630008017.0349,1630008017.04603,457.387571086884,8.9813187122345,466.374256362915,468.475038995743,0.3,474.127146949768,0.48351263999939,474.611738910675,3,right,0.466252088546753,474.610659589767,604.475761165619,607.235761165619,1630008477.18247,1630008477.19043,1630008486.16916,1630008486.17361,1630008488.26994,1630008493.92205,1630008493.92387,1630008494.40664,1630008494.40556,1630008624.27066,0
53,4,1,3,26,8,4,c4_HowHand,1,pressing button?,83,H_502.jpg,1630008017.0349,1630008017.04603,457.387571086884,8.9813187122345,466.374256362915,468.475038995743,0.3,474.927445402145,0.500186681747437,475.428711881638,1,left,0.483872890472412,475.427632083893,604.475761165619,607.235761165619,1630008477.18247,1630008477.19043,1630008486.16916,1630008486.17361,1630008488.26994,1630008494.72235,1630008494.72427,1630008495.22361,1630008495.22253,1630008624.27066,1
53,4,1,3,27,1,3,c3_HowFace,1,looking at camera?,60,F_618.jpg,1630008017.0349,1630008017.04603,475.510995616913,8.3879222869873,483.91413020134,486.01491235733,2.1007821559906,486.164969434738,0.433493852615356,486.600116004944,1,left,0.417414903640747,486.598463287354,604.475761165619,607.235761165619,1630008495.3059,1630008495.30727,1630008503.70903,1630008503.71102,1630008505.80981,1630008505.95987,1630008505.96177,1630008506.39502,1630008506.39337,1630008624.27066,1
53,4,1,3,27,2,3,c3_HowFace,2,looking at camera?,58,F_754.jpg,1630008017.0349,1630008017.04603,475.510995616913,8.3879222869873,483.91413020134,486.01491235733,0.3,486.915248622894,0.666916370391846,487.595616807938,3,right,0.65825080871582,487.582164993286,604.475761165619,607.235761165619,1630008495.3059,1630008495.30727,1630008503.70903,1630008503.71102,1630008505.80981,1630008506.71015,1630008506.71198,1630008507.39052,1630008507.37707,1630008624.27066,0
53,4,1,3,27,3,3,c3_HowFace,1,looking at camera?,59,F_129.jpg,1630008017.0349,1630008017.04603,475.510995616913,8.3879222869873,483.91413020134,486.01491235733,0.3,487.898949136734,0.600223779678345,488.500632991791,1,left,0.581640005111694,488.499172916412,604.475761165619,607.235761165619,1630008495.3059,1630008495.30727,1630008503.70903,1630008503.71102,1630008505.80981,1630008507.69385,1630008507.6955,1630008508.29554,1630008508.29408,1630008624.27066,1
53,4,1,3,27,4,3,c3_HowFace,1,looking at camera?,62,F_598.jpg,1630008017.0349,1630008017.04603,475.510995616913,8.3879222869873,483.91413020134,486.01491235733,0.3,488.815958490372,0.533531188964844,489.361701955795,1,left,0.52754807472229,489.349489679337,604.475761165619,607.235761165619,1630008495.3059,1630008495.30727,1630008503.70903,1630008503.71102,1630008505.80981,1630008508.61086,1630008508.6121,1630008509.1566,1630008509.14439,1630008624.27066,1
53,4,1,3,27,5,3,c3_HowFace,1,looking at camera?,64,F_128.jpg,1630008017.0349,1630008017.04603,475.510995616913,8.3879222869873,483.91413020134,486.01491235733,0.3,489.666275014877,0.500185966491699,490.168010940552,1,left,0.476495981216431,490.166460981369,604.475761165619,607.235761165619,1630008495.3059,1630008495.30727,1630008503.70903,1630008503.71102,1630008505.80981,1630008509.46118,1630008509.46308,1630008509.96291,1630008509.96136,1630008624.27066,1
53,4,1,3,27,6,3,c3_HowFace,2,looking at camera?,57,F_582.jpg,1630008017.0349,1630008017.04603,475.510995616913,8.3879222869873,483.91413020134,486.01491235733,0.3,490.483245601654,0.583551645278931,491.068413009644,1,left,0.568536996841431,491.066797246933,604.475761165619,607.235761165619,1630008495.3059,1630008495.30727,1630008503.70903,1630008503.71102,1630008505.80981,1630008510.27815,1630008510.2799,1630008510.86332,1630008510.8617,1630008624.27066,0
53,4,1,3,27,7,3,c3_HowFace,1,looking at camera?,61,F_774.jpg,1630008017.0349,1630008017.04603,475.510995616913,8.3879222869873,483.91413020134,486.01491235733,0.3,491.383581628799,0.950354337692261,492.345381965637,1,left,0.940459966659546,492.333935966492,604.475761165619,607.235761165619,1630008495.3059,1630008495.30727,1630008503.70903,1630008503.71102,1630008505.80981,1630008511.17848,1630008511.18006,1630008512.14028,1630008512.12884,1630008624.27066,1
53,4,1,3,27,8,3,c3_HowFace,2,looking at camera?,63,F_743.jpg,1630008017.0349,1630008017.04603,475.510995616913,8.3879222869873,483.91413020134,486.01491235733,0.3,492.650720825195,0.583551645278931,493.245589008331,3,right,0.572233915328979,493.234272470474,604.475761165619,607.235761165619,1630008495.3059,1630008495.30727,1630008503.70903,1630008503.71102,1630008505.80981,1630008512.44562,1630008512.44747,1630008513.04049,1630008513.02917,1630008624.27066,0
