src_subject_id,session_id,run_id,param_counterbalance_ver,param_block_num,param_trial_num,param_cond_type_num,param_cond_type_string,param_normative_response,param_ques_type_string,param_image_num,param_image_filename,param_trigger_onset,param_start_biopac,event01_fixation,event01_fixation_dur,event01_blockquestion_onset,event01_block_isi_blacksreen,event01_blockquestion_dur,event02_image_onset,event02_image_dur,event03_response_onset,event03_response_key,event03_response_keyname,event03_RT,event04_shortquestion_onset,param_end_instruct_onset,param_experiment_duration,RAW_e1_fixation,RAW_e1_fixation_biopac,RAW_e1_blockquestion_onset,RAW_e1_blockquestion_onset_biopac,RAW_e1_block_isi_blacksreen,RAW_e2_image_onset,RAW_e2_image_onset_biopac,RAW_e3_response_onset,RAW_e4_shortquestion_onset,RAW_param_end_instruct_onset,accuracy
14,4,1,3,1,1,4,c4_HowHand,1,reaching?,107,H_007.jpg,1620933256.85994,1620933256.87024,0.0494005584716795,0.0332484245300293,0.0994191074371336,2.11683773040771,2.01741862297058,2.26689337730408,1.30048489570618,3.57005499839783,1,left,1.26838493347168,3.56737827301025,604.474803676605,607.234803676605,1620933259.66934,1620933259.67497,1620933259.71936,1620933259.72121,1620933261.73678,1620933261.88683,1620933261.88873,1620933263.18999,1620933263.18732,1620933864.09474,1
14,4,1,3,1,2,4,c4_HowHand,2,reaching?,108,H_532.jpg,1620933256.85994,1620933256.87024,0.0494005584716795,0.0332484245300293,0.0994191074371336,2.11683773040771,0.3,3.88416313171387,1.06706619262695,4.95346092224121,3,right,1.04771280288696,4.95122932434082,604.474803676605,607.234803676605,1620933259.66934,1620933259.67497,1620933259.71936,1620933259.72121,1620933261.73678,1620933263.5041,1620933263.50594,1620933264.5734,1620933264.57117,1620933864.09474,0
14,4,1,3,1,3,4,c4_HowHand,1,reaching?,109,H_474.jpg,1620933256.85994,1620933256.87024,0.0494005584716795,0.0332484245300293,0.0994191074371336,2.11683773040771,0.3,5.26801418304443,1.40052175521851,6.68371891021729,1,left,1.39060306549072,6.66853593826294,604.474803676605,607.234803676605,1620933259.66934,1620933259.67497,1620933259.71936,1620933259.72121,1620933261.73678,1620933264.88795,1620933264.88974,1620933266.30366,1620933266.28848,1620933864.09474,1
14,4,1,3,1,4,4,c4_HowHand,2,reaching?,105,H_438.jpg,1620933256.85994,1620933256.87024,0.0494005584716795,0.0332484245300293,0.0994191074371336,2.11683773040771,0.3,6.98531960487366,1.71730804443359,NaN,0,NA,0,8.70262764930725,604.474803676605,607.234803676605,1620933259.66934,1620933259.67497,1620933259.71936,1620933259.72121,1620933261.73678,1620933266.60526,1620933266.60706,NaN,1620933268.32257,1620933864.09474,0
14,4,1,3,1,5,4,c4_HowHand,1,reaching?,110,H_364.jpg,1620933256.85994,1620933256.87024,0.0494005584716795,0.0332484245300293,0.0994191074371336,2.11683773040771,0.3,9.01941155433655,0.98370099067688,10.0190949344635,1,left,0.967632055282593,10.0031125450134,604.474803676605,607.234803676605,1620933259.66934,1620933259.67497,1620933259.71936,1620933259.72121,1620933261.73678,1620933268.63935,1620933268.64197,1620933269.63903,1620933269.62305,1620933864.09474,1
14,4,1,3,1,6,4,c4_HowHand,1,reaching?,106,H_006.jpg,1620933256.85994,1620933256.87024,0.0494005584716795,0.0332484245300293,0.0994191074371336,2.11683773040771,0.3,10.3198966884613,1.00037288665771,11.332768907547,1,left,0.988934993743896,11.320269575119,604.474803676605,607.234803676605,1620933259.66934,1620933259.67497,1620933259.71936,1620933259.72121,1620933261.73678,1620933269.93984,1620933269.94171,1620933270.95271,1620933270.94021,1620933864.09474,1
14,4,1,3,1,7,4,c4_HowHand,1,reaching?,111,H_003.jpg,1620933256.85994,1620933256.87024,0.0494005584716795,0.0332484245300293,0.0994191074371336,2.11683773040771,0.3,11.6370551490784,0.917008876800537,12.5666839981079,1,left,0.908679962158203,12.5540640258789,604.474803676605,607.234803676605,1620933259.66934,1620933259.67497,1620933259.71936,1620933259.72121,1620933261.73678,1620933271.25699,1620933271.25877,1620933272.18662,1620933272.174,1620933864.09474,1
14,4,1,3,1,8,4,c4_HowHand,2,reaching?,112,H_132.jpg,1620933256.85994,1620933256.87024,0.0494005584716795,0.0332484245300293,0.0994191074371336,2.11683773040771,0.3,12.8708488845825,1.00037288665771,13.8726169967651,3,right,0.978466033935547,13.8712217712402,604.474803676605,607.234803676605,1620933259.66934,1620933259.67497,1620933259.71936,1620933259.72121,1620933261.73678,1620933272.49079,1620933272.49224,1620933273.49256,1620933273.49116,1620933864.09474,0
14,4,1,3,2,1,2,c2_WhyHand,1,healthy?,21,H_627.jpg,1620933256.85994,1620933256.87024,14.0546226406097,3.47652316093445,17.5392565631866,19.6400401496887,2.10078358650208,19.7900957965851,1.00037240982056,20.7992329502106,1,left,0.984599113464355,20.7904682064056,604.474803676605,607.234803676605,1620933273.67456,1620933273.67657,1620933277.1592,1620933277.17,1620933279.25998,1620933279.41003,1620933279.41989,1620933280.41917,1620933280.41041,1620933864.09474,1
14,4,1,3,2,2,2,c2_WhyHand,1,healthy?,18,H_438.jpg,1620933256.85994,1620933256.87024,14.0546226406097,3.47652316093445,17.5392565631866,19.6400401496887,0.3,21.1072528266907,0.917008876800537,22.0256619358063,1,left,0.90051007270813,22.0242617034912,604.474803676605,607.234803676605,1620933273.67456,1620933273.67657,1620933277.1592,1620933277.17,1620933279.25998,1620933280.72719,1620933280.72885,1620933281.6456,1620933281.6442,1620933864.09474,1
14,4,1,3,2,3,2,c2_WhyHand,1,healthy?,23,H_364.jpg,1620933256.85994,1620933256.87024,14.0546226406097,3.47652316093445,17.5392565631866,19.6400401496887,0.3,22.3410465621948,1.15042996406555,23.4932818317413,1,left,1.12899708747864,23.4914765262604,604.474803676605,607.234803676605,1620933273.67456,1620933273.67657,1620933277.1592,1620933277.17,1620933279.25998,1620933281.96099,1620933281.96318,1620933283.11322,1620933283.11142,1620933864.09474,1
14,4,1,3,2,4,2,c2_WhyHand,2,healthy?,22,H_130.jpg,1620933256.85994,1620933256.87024,14.0546226406097,3.47652316093445,17.5392565631866,19.6400401496887,0.3,23.8082604312897,0.983700037002563,24.7998909854889,3,right,0.966434955596924,24.7919604682922,604.474803676605,607.234803676605,1620933273.67456,1620933273.67657,1620933277.1592,1620933277.17,1620933279.25998,1620933283.4282,1620933283.42977,1620933284.41983,1620933284.4119,1620933864.09474,0
14,4,1,3,2,5,2,c2_WhyHand,1,healthy?,17,H_362.jpg,1620933256.85994,1620933256.87024,14.0546226406097,3.47652316093445,17.5392565631866,19.6400401496887,0.3,25.1087455654144,1.01704621315002,26.1326439285278,1,left,1.00121212005615,26.1257917785645,604.474803676605,607.234803676605,1620933273.67456,1620933273.67657,1620933277.1592,1620933277.17,1620933279.25998,1620933284.72868,1620933284.73028,1620933285.75258,1620933285.74573,1620933864.09474,1
14,4,1,3,2,6,2,c2_WhyHand,2,healthy?,20,H_007.jpg,1620933256.85994,1620933256.87024,14.0546226406097,3.47652316093445,17.5392565631866,19.6400401496887,0.3,26.4425766372681,1.31715679168701,27.7664899730682,3,right,1.30182981491089,27.7597334289551,604.474803676605,607.234803676605,1620933273.67456,1620933273.67657,1620933277.1592,1620933277.17,1620933279.25998,1620933286.06252,1620933286.06445,1620933287.38643,1620933287.37967,1620933864.09474,0
14,4,1,3,2,7,2,c2_WhyHand,1,healthy?,19,H_167.jpg,1620933256.85994,1620933256.87024,14.0546226406097,3.47652316093445,17.5392565631866,19.6400401496887,0.3,28.0765201950073,0.917007684707642,28.9992978477478,1,left,0.906163930892944,28.993527879715,604.474803676605,607.234803676605,1620933273.67456,1620933273.67657,1620933277.1592,1620933277.17,1620933279.25998,1620933287.69646,1620933287.6982,1620933288.61924,1620933288.61347,1620933864.09474,1
14,4,1,3,2,8,2,c2_WhyHand,2,healthy?,24,H_019.jpg,1620933256.85994,1620933256.87024,14.0546226406097,3.47652316093445,17.5392565631866,19.6400401496887,0.3,29.3103141689301,1.11708188056946,30.4326548480988,3,right,1.10673785209656,30.4273960494995,604.474803676605,607.234803676605,1620933273.67456,1620933273.67657,1620933277.1592,1620933277.17,1620933279.25998,1620933288.93025,1620933288.932,1620933290.05259,1620933290.04734,1620933864.09474,0
14,4,1,3,3,1,1,c1_WhyFace,1,admiring?,4,F_779.jpg,1620933256.85994,1620933256.87024,30.5274329090118,6.11199402809143,36.6463813686371,38.7471647167206,2.1007833480835,38.8972210788727,1.00037384033203,39.8992819690704,1,left,0.979607105255127,39.8975949192047,604.474803676605,607.234803676605,1620933290.14737,1620933290.15332,1620933296.26632,1620933296.26985,1620933298.3671,1620933298.51716,1620933298.51979,1620933299.51922,1620933299.51753,1620933864.09474,1
14,4,1,3,3,2,1,c1_WhyFace,1,admiring?,1,F_593.jpg,1620933256.85994,1620933256.87024,30.5274329090118,6.11199402809143,36.6463813686371,38.7471647167206,0.3,40.2143785858154,1.00037312507629,41.2159209156036,1,left,0.977697134017944,41.2147517108917,604.474803676605,607.234803676605,1620933290.14737,1620933290.15332,1620933296.26632,1620933296.26985,1620933298.3671,1620933299.83432,1620933299.8363,1620933300.83586,1620933300.83469,1620933864.09474,1
14,4,1,3,3,3,1,c1_WhyFace,2,admiring?,3,F_110.jpg,1620933256.85994,1620933256.87024,30.5274329090118,6.11199402809143,36.6463813686371,38.7471647167206,0.3,41.531535615921,1.08373856544495,42.6163628005981,3,right,1.0626540184021,42.615274181366,604.474803676605,607.234803676605,1620933290.14737,1620933290.15332,1620933296.26632,1620933296.26985,1620933298.3671,1620933301.15147,1620933301.15319,1620933302.2363,1620933302.23521,1620933864.09474,0
14,4,1,3,3,4,1,c1_WhyFace,1,admiring?,8,F_590.jpg,1620933256.85994,1620933256.87024,30.5274329090118,6.11199402809143,36.6463813686371,38.7471647167206,0.3,42.932058801651,1.00037360191345,43.9335229301453,1,left,0.984482049942017,43.9324324035645,604.474803676605,607.234803676605,1620933290.14737,1620933290.15332,1620933296.26632,1620933296.26985,1620933298.3671,1620933302.552,1620933302.55368,1620933303.55346,1620933303.55237,1620933864.09474,1
14,4,1,3,3,5,1,c1_WhyFace,2,admiring?,6,F_692.jpg,1620933256.85994,1620933256.87024,30.5274329090118,6.11199402809143,36.6463813686371,38.7471647167206,0.3,44.2492167854309,0.967027425765991,45.2175648117065,3,right,0.951529026031494,45.2162442111969,604.474803676605,607.234803676605,1620933290.14737,1620933290.15332,1620933296.26632,1620933296.26985,1620933298.3671,1620933303.86916,1620933303.87093,1620933304.8375,1620933304.83618,1620933864.09474,0
14,4,1,3,3,6,1,c1_WhyFace,1,admiring?,5,F_759.jpg,1620933256.85994,1620933256.87024,30.5274329090118,6.11199402809143,36.6463813686371,38.7471647167206,0.3,45.5330288314819,0.833643674850464,46.3678059482574,1,left,0.816704034805298,46.3666725063324,604.474803676605,607.234803676605,1620933290.14737,1620933290.15332,1620933296.26632,1620933296.26985,1620933298.3671,1620933305.15297,1620933305.15443,1620933305.98775,1620933305.98661,1620933864.09474,1
14,4,1,3,3,7,1,c1_WhyFace,1,admiring?,7,F_648.jpg,1620933256.85994,1620933256.87024,30.5274329090118,6.11199402809143,36.6463813686371,38.7471647167206,0.3,46.6834649944305,0.917001962661743,47.601368894577,1,left,0.906625032424927,47.6004669570923,604.474803676605,607.234803676605,1620933290.14737,1620933290.15332,1620933296.26632,1620933296.26985,1620933298.3671,1620933306.3034,1620933306.30545,1620933307.22131,1620933307.22041,1620933864.09474,1
14,4,1,3,3,8,1,c1_WhyFace,2,admiring?,2,F_129.jpg,1620933256.85994,1620933256.87024,30.5274329090118,6.11199402809143,36.6463813686371,38.7471647167206,0.3,47.9172511005402,0.850317716598511,48.7686548137665,3,right,0.83788013458252,48.7675688171387,604.474803676605,607.234803676605,1620933290.14737,1620933290.15332,1620933296.26632,1620933296.26985,1620933298.3671,1620933307.53719,1620933307.53889,1620933308.38859,1620933308.38751,1620933864.09474,0
14,4,1,3,4,1,3,c3_HowFace,1,smiling?,119,F_139.jpg,1620933256.85994,1620933256.87024,48.8509330654144,6.75224375724792,55.6201245689392,57.7209076786041,2.10078310966492,57.8709628486633,0.750280857086182,58.6226699256897,1,left,0.733886003494263,58.6212437057495,604.474803676605,607.234803676605,1620933308.47087,1620933308.48665,1620933315.24006,1620933315.2426,1620933317.34085,1620933317.4909,1620933317.4933,1620933318.24261,1620933318.24118,1620933864.09474,1
14,4,1,3,4,2,3,c3_HowFace,2,smiling?,113,F_712.jpg,1620933256.85994,1620933256.87024,48.8509330654144,6.75224375724792,55.6201245689392,57.7209076786041,0.3,58.9380276107788,0.733607530593872,59.6826808357239,3,right,0.721631050109863,59.6716351413727,604.474803676605,607.234803676605,1620933308.47087,1620933308.48665,1620933315.24006,1620933315.2426,1620933317.34085,1620933318.55797,1620933318.55966,1620933319.30262,1620933319.29157,1620933864.09474,0
14,4,1,3,4,3,3,c3_HowFace,1,smiling?,115,F_695.jpg,1620933256.85994,1620933256.87024,48.8509330654144,6.75224375724792,55.6201245689392,57.7209076786041,0.3,59.9884200000763,0.766952037811279,60.7661878967285,1,left,0.75574803352356,60.7553720378876,604.474803676605,607.234803676605,1620933308.47087,1620933308.48665,1620933315.24006,1620933315.2426,1620933317.34085,1620933319.60836,1620933319.60997,1620933320.38613,1620933320.37531,1620933864.09474,1
14,4,1,3,4,4,3,c3_HowFace,2,smiling?,120,F_758.jpg,1620933256.85994,1620933256.87024,48.8509330654144,6.75224375724792,55.6201245689392,57.7209076786041,0.3,61.0721561813355,0.783626556396484,61.8660418891907,3,right,0.772603034973145,61.8557827377319,604.474803676605,607.234803676605,1620933308.47087,1620933308.48665,1620933315.24006,1620933315.2426,1620933317.34085,1620933320.6921,1620933320.69358,1620933321.48598,1620933321.47572,1620933864.09474,0
14,4,1,3,4,5,3,c3_HowFace,1,smiling?,116,F_083.jpg,1620933256.85994,1620933256.87024,48.8509330654144,6.75224375724792,55.6201245689392,57.7209076786041,0.3,62.1725680732727,0.933680772781372,63.1164870166779,1,left,0.920390844345093,63.1062488460541,604.474803676605,607.234803676605,1620933308.47087,1620933308.48665,1620933315.24006,1620933315.2426,1620933317.34085,1620933321.79251,1620933321.79428,1620933322.73643,1620933322.72619,1620933864.09474,1
14,4,1,3,4,6,3,c3_HowFace,1,smiling?,118,F_759.jpg,1620933256.85994,1620933256.87024,48.8509330654144,6.75224375724792,55.6201245689392,57.7209076786041,0.3,63.4230337047577,0.750279903411865,64.1829869651794,1,left,0.742455005645752,64.1733136081696,604.474803676605,607.234803676605,1620933308.47087,1620933308.48665,1620933315.24006,1620933315.2426,1620933317.34085,1620933323.04297,1620933323.04484,1620933323.80293,1620933323.79325,1620933864.09474,1
14,4,1,3,4,7,3,c3_HowFace,2,smiling?,114,F_412.jpg,1620933256.85994,1620933256.87024,48.8509330654144,6.75224375724792,55.6201245689392,57.7209076786041,0.3,64.4900970363617,0.850318431854248,65.3491969013214,3,right,0.842757940292358,65.3404154682159,604.474803676605,607.234803676605,1620933308.47087,1620933308.48665,1620933315.24006,1620933315.2426,1620933317.34085,1620933324.11004,1620933324.11159,1620933324.96914,1620933324.96035,1620933864.09474,0
14,4,1,3,4,8,3,c3_HowFace,1,smiling?,117,F_593.jpg,1620933256.85994,1620933256.87024,48.8509330654144,6.75224375724792,55.6201245689392,57.7209076786041,0.3,65.6572010421753,0.850317001342773,66.5158519649506,1,left,0.843076944351196,66.5075180435181,604.474803676605,607.234803676605,1620933308.47087,1620933308.48665,1620933315.24006,1620933315.2426,1620933317.34085,1620933325.27714,1620933325.27868,1620933326.13579,1620933326.12746,1620933864.09474,1
14,4,1,3,5,1,4,c4_HowHand,1,lifting?,56,H_136.jpg,1620933256.85994,1620933256.87024,66.5908810997009,6.54288578033447,73.1433260345459,75.2441086673737,2.10078263282776,75.3941645526886,0.950354099273682,76.349219789505,1,left,0.93921685218811,76.3445186519623,604.474803676605,607.234803676605,1620933326.21082,1620933326.2135,1620933332.76327,1620933332.77072,1620933334.86405,1620933335.0141,1620933335.02023,1620933335.96916,1620933335.96446,1620933864.09474,1
14,4,1,3,5,2,4,c4_HowHand,2,lifting?,51,H_038.jpg,1620933256.85994,1620933256.87024,66.5908810997009,6.54288578033447,73.1433260345459,75.2441086673737,0.3,76.6613035106659,1.00037264823914,77.6662239933014,3,right,0.985452890396118,77.661676158905,604.474803676605,607.234803676605,1620933326.21082,1620933326.2135,1620933332.76327,1620933332.77072,1620933334.86405,1620933336.28124,1620933336.28332,1620933337.28616,1620933337.28162,1620933864.09474,0
14,4,1,3,5,3,4,c4_HowHand,1,lifting?,52,H_189.jpg,1620933256.85994,1620933256.87024,66.5908810997009,6.54288578033447,73.1433260345459,75.2441086673737,0.3,77.978461971283,1.08373737335205,79.0666088962555,1,left,1.06345009803772,79.062199344635,604.474803676605,607.234803676605,1620933326.21082,1620933326.2135,1620933332.76327,1620933332.77072,1620933334.86405,1620933337.5984,1620933337.6032,1620933338.68655,1620933338.68214,1620933864.09474,1
14,4,1,3,5,4,4,c4_HowHand,2,lifting?,53,H_077.jpg,1620933256.85994,1620933256.87024,66.5908810997009,6.54288578033447,73.1433260345459,75.2441086673737,0.3,79.3789846801758,1.0337188243866,80.4158689880371,3,right,1.01854300498962,80.4127035045624,604.474803676605,607.234803676605,1620933326.21082,1620933326.2135,1620933332.76327,1620933332.77072,1620933334.86405,1620933338.99892,1620933339.00305,1620933340.03581,1620933340.03264,1620933864.09474,0
14,4,1,3,5,5,4,c4_HowHand,1,lifting?,50,H_443.jpg,1620933256.85994,1620933256.87024,66.5908810997009,6.54288578033447,73.1433260345459,75.2441086673737,0.3,80.729488363266,1.36717629432678,82.1001098060608,1,left,1.34623885154724,82.0966646575928,604.474803676605,607.234803676605,1620933326.21082,1620933326.2135,1620933332.76327,1620933332.77072,1620933334.86405,1620933340.34943,1620933340.35321,1620933341.72005,1620933341.7166,1620933864.09474,1
14,4,1,3,5,6,4,c4_HowHand,2,lifting?,55,H_012.jpg,1620933256.85994,1620933256.87024,66.5908810997009,6.54288578033447,73.1433260345459,75.2441086673737,0.3,82.4134488010406,0.967027902603149,83.3826758766174,3,right,0.953510046005249,83.3804767036438,604.474803676605,607.234803676605,1620933326.21082,1620933326.2135,1620933332.76327,1620933332.77072,1620933334.86405,1620933342.03339,1620933342.0363,1620933343.00261,1620933343.00042,1620933864.09474,0
14,4,1,3,5,7,4,c4_HowHand,1,lifting?,49,H_362.jpg,1620933256.85994,1620933256.87024,66.5908810997009,6.54288578033447,73.1433260345459,75.2441086673737,0.3,83.6972606086731,0.866989850997925,84.5662429237366,1,left,0.852409839630127,84.564250459671,604.474803676605,607.234803676605,1620933326.21082,1620933326.2135,1620933332.76327,1620933332.77072,1620933334.86405,1620933343.3172,1620933343.3198,1620933344.18618,1620933344.18419,1620933864.09474,1
14,4,1,3,5,8,4,c4_HowHand,1,lifting?,54,H_170.jpg,1620933256.85994,1620933256.87024,66.5908810997009,6.54288578033447,73.1433260345459,75.2441086673737,0.3,84.8810357952118,0.967027425765991,85.8492259883881,1,left,0.9428870677948,85.8480632209778,604.474803676605,607.234803676605,1620933326.21082,1620933326.2135,1620933332.76327,1620933332.77072,1620933334.86405,1620933344.50097,1620933344.50319,1620933345.46917,1620933345.468,1620933864.09474,1
14,4,1,3,6,1,2,c2_WhyHand,1,helping?,38,H_077.jpg,1620933256.85994,1620933256.87024,85.9314281845093,9.68350172042847,95.635046710968,97.7191564941406,2.08410978317261,97.8692128562927,0.967027902603149,98.8491928482056,1,left,0.945877075195312,98.8362407588959,604.474803676605,607.234803676605,1620933345.55137,1620933345.55281,1620933355.25499,1620933355.25672,1620933357.3391,1620933357.48915,1620933357.50316,1620933358.46913,1620933358.45618,1620933864.09474,1
14,4,1,3,6,2,2,c2_WhyHand,1,helping?,36,H_349.jpg,1620933256.85994,1620933256.87024,85.9314281845093,9.68350172042847,95.635046710968,97.7191564941406,0.3,99.1530251407623,0.850317239761353,100.004720916748,1,left,0.831804990768433,100.003342380524,604.474803676605,607.234803676605,1620933345.55137,1620933345.55281,1620933355.25499,1620933355.25672,1620933357.3391,1620933358.77296,1620933358.77484,1620933359.62466,1620933359.62328,1620933864.09474,1
14,4,1,3,6,3,2,c2_WhyHand,1,helping?,37,H_474.jpg,1620933256.85994,1620933256.87024,85.9314281845093,9.68350172042847,95.635046710968,97.7191564941406,0.3,100.32012676239,0.883663177490234,101.205632915497,1,left,0.862681150436401,101.20378993988,604.474803676605,607.234803676605,1620933345.55137,1620933345.55281,1620933355.25499,1620933355.25672,1620933357.3391,1620933359.94007,1620933359.94163,1620933360.82557,1620933360.82373,1620933864.09474,1
14,4,1,3,6,4,2,c2_WhyHand,1,helping?,39,H_024.jpg,1620933256.85994,1620933256.87024,85.9314281845093,9.68350172042847,95.635046710968,97.7191564941406,0.3,101.520574798584,1.13375639915466,102.665945997238,3,right,1.12251901626587,102.654331197739,604.474803676605,607.234803676605,1620933345.55137,1620933345.55281,1620933355.25499,1620933355.25672,1620933357.3391,1620933361.14051,1620933361.14219,1620933362.28589,1620933362.27427,1620933864.09474,0
14,4,1,3,6,5,2,c2_WhyHand,2,helping?,40,H_012.jpg,1620933256.85994,1620933256.87024,85.9314281845093,9.68350172042847,95.635046710968,97.7191564941406,0.3,102.971115579605,1.20044684410095,104.172659864426,3,right,1.17953586578369,104.171562423706,604.474803676605,607.234803676605,1620933345.55137,1620933345.55281,1620933355.25499,1620933355.25672,1620933357.3391,1620933362.59105,1620933362.59277,1620933363.7926,1620933363.7915,1620933864.09474,0
14,4,1,3,6,6,2,c2_WhyHand,2,helping?,35,H_159.jpg,1620933256.85994,1620933256.87024,85.9314281845093,9.68350172042847,95.635046710968,97.7191564941406,0.3,104.48834728241,0.983700752258301,105.482683887482,3,right,0.970475912094116,105.472048034668,604.474803676605,607.234803676605,1620933345.55137,1620933345.55281,1620933355.25499,1620933355.25672,1620933357.3391,1620933364.10829,1620933364.1102,1620933365.10262,1620933365.09199,1620933864.09474,0
14,4,1,3,6,7,2,c2_WhyHand,1,helping?,34,H_111.jpg,1620933256.85994,1620933256.87024,85.9314281845093,9.68350172042847,95.635046710968,97.7191564941406,0.3,105.788832416534,1.15042901039124,106.949401845932,1,left,1.14281606674194,106.939261426926,604.474803676605,607.234803676605,1620933345.55137,1620933345.55281,1620933355.25499,1620933355.25672,1620933357.3391,1620933365.40877,1620933365.41046,1620933366.56934,1620933366.5592,1620933864.09474,1
14,4,1,3,6,8,2,c2_WhyHand,2,helping?,33,H_091.jpg,1620933256.85994,1620933256.87024,85.9314281845093,9.68350172042847,95.635046710968,97.7191564941406,0.3,107.256046524048,0.9170081615448,108.183197965622,3,right,0.907605171203613,108.173054685593,604.474803676605,607.234803676605,1620933345.55137,1620933345.55281,1620933355.25499,1620933355.25672,1620933357.3391,1620933366.87599,1620933366.87735,1620933367.80314,1620933367.79299,1620933864.09474,0
14,4,1,3,7,1,1,c1_WhyFace,1,proud?,104,F_598.jpg,1620933256.85994,1620933256.87024,108.256419172287,5.23349571228027,113.508378734589,115.592489709854,2.0841109752655,115.75921749115,1.55057811737061,117.315836896896,1,left,1.54293513298035,117.309795608521,604.474803676605,607.234803676605,1620933367.87636,1620933367.87784,1620933373.12832,1620933373.13045,1620933375.21243,1620933375.37916,1620933375.38104,1620933376.93578,1620933376.92973,1620933864.09474,1
14,4,1,3,7,2,1,c1_WhyFace,2,proud?,102,F_760.jpg,1620933256.85994,1620933256.87024,108.256419172287,5.23349571228027,113.508378734589,115.592489709854,0.3,117.626580944061,0.866989612579346,118.499674787521,3,right,0.859657049179077,118.493570556641,604.474803676605,607.234803676605,1620933367.87636,1620933367.87784,1620933373.12832,1620933373.13045,1620933375.21243,1620933377.24652,1620933377.24833,1620933378.11961,1620933378.11351,1620933864.09474,0
14,4,1,3,7,3,1,c1_WhyFace,1,proud?,97,F_582.jpg,1620933256.85994,1620933256.87024,108.256419172287,5.23349571228027,113.508378734589,115.592489709854,0.3,118.810355653763,0.950353622436523,119.765900840759,1,left,0.931522130966187,119.760709276199,604.474803676605,607.234803676605,1620933367.87636,1620933367.87784,1620933373.12832,1620933373.13045,1620933375.21243,1620933378.43029,1620933378.43192,1620933379.38584,1620933379.38065,1620933864.09474,1
14,4,1,3,7,4,1,c1_WhyFace,2,proud?,98,F_412.jpg,1620933256.85994,1620933256.87024,108.256419172287,5.23349571228027,113.508378734589,115.592489709854,0.3,120.077494373322,0.800299644470215,120.88270401001,3,right,0.786926031112671,120.877794017792,604.474803676605,607.234803676605,1620933367.87636,1620933367.87784,1620933373.12832,1620933373.13045,1620933375.21243,1620933379.69743,1620933379.6992,1620933380.50264,1620933380.49773,1620933864.09474,0
14,4,1,3,7,5,1,c1_WhyFace,1,proud?,101,F_083.jpg,1620933256.85994,1620933256.87024,108.256419172287,5.23349571228027,113.508378734589,115.592489709854,0.3,121.194576253891,0.90033745765686,122.09990190506,1,left,0.889060974121094,122.094913711548,604.474803676605,607.234803676605,1620933367.87636,1620933367.87784,1620933373.12832,1620933373.13045,1620933375.21243,1620933380.81452,1620933380.81606,1620933381.71984,1620933381.71485,1620933864.09474,1
14,4,1,3,7,6,1,c1_WhyFace,2,proud?,100,F_776.jpg,1620933256.85994,1620933256.87024,108.256419172287,5.23349571228027,113.508378734589,115.592489709854,0.3,122.411698570251,1.05039191246033,123.465888967514,3,right,1.02994513511658,123.462090482712,604.474803676605,607.234803676605,1620933367.87636,1620933367.87784,1620933373.12832,1620933373.13045,1620933375.21243,1620933382.03164,1620933382.03631,1620933383.08583,1620933383.08203,1620933864.09474,0
14,4,1,3,7,7,1,c1_WhyFace,1,proud?,103,F_618.jpg,1620933256.85994,1620933256.87024,108.256419172287,5.23349571228027,113.508378734589,115.592489709854,0.3,123.77887462616,0.933681726455688,124.714058866501,1,left,0.908318996429443,124.712556352615,604.474803676605,607.234803676605,1620933367.87636,1620933367.87784,1620933373.12832,1620933373.13045,1620933375.21243,1620933383.39881,1620933383.40296,1620933384.334,1620933384.3325,1620933864.09474,1
14,4,1,3,7,8,1,c1_WhyFace,1,proud?,99,F_695.jpg,1620933256.85994,1620933256.87024,108.256419172287,5.23349571228027,113.508378734589,115.592489709854,0.3,125.029342164993,0.950353860855103,125.981064786911,1,left,0.92659592628479,125.979696025848,604.474803676605,607.234803676605,1620933367.87636,1620933367.87784,1620933373.12832,1620933373.13045,1620933375.21243,1620933384.64928,1620933384.65321,1620933385.601,1620933385.59964,1620933864.09474,1
14,4,1,3,8,1,3,c3_HowFace,1,looking to side?,72,F_590.jpg,1620933256.85994,1620933256.87024,126.046387424469,4.97366046905518,131.031577339172,133.132363786697,2.10078644752502,133.282419910431,0.7669517993927,134.050831785202,1,left,0.757609844207764,134.049371709824,604.474803676605,607.234803676605,1620933385.66633,1620933385.66999,1620933390.65152,1620933390.65327,1620933392.7523,1620933392.90236,1620933392.90439,1620933393.67077,1620933393.66931,1620933864.09474,1
14,4,1,3,8,2,3,c3_HowFace,1,looking to side?,71,F_433.jpg,1620933256.85994,1620933256.87024,126.046387424469,4.97366046905518,131.031577339172,133.132363786697,0.3,134.366156330109,0.833644866943359,135.200822820663,1,left,0.822936773300171,135.199801197052,604.474803676605,607.234803676605,1620933385.66633,1620933385.66999,1620933390.65152,1620933390.65327,1620933392.7523,1620933393.9861,1620933393.98751,1620933394.82076,1620933394.81974,1620933864.09474,1
14,4,1,3,8,3,3,c3_HowFace,1,looking to side?,67,F_716.jpg,1620933256.85994,1620933256.87024,126.046387424469,4.97366046905518,131.031577339172,133.132363786697,0.3,135.516584625244,0.800300359725952,136.31789683342,1,left,0.783557176589966,136.31688498497,604.474803676605,607.234803676605,1620933385.66633,1620933385.66999,1620933390.65152,1620933390.65327,1620933392.7523,1620933395.13652,1620933395.13805,1620933395.93784,1620933395.93682,1620933864.09474,1
14,4,1,3,8,4,3,c3_HowFace,2,looking to side?,70,F_779.jpg,1620933256.85994,1620933256.87024,126.046387424469,4.97366046905518,131.031577339172,133.132363786697,0.3,136.633669128418,0.816971302032471,137.451748838425,1,left,0.796854019165039,137.45064043045,604.474803676605,607.234803676605,1620933385.66633,1620933385.66999,1620933390.65152,1620933390.65327,1620933392.7523,1620933396.25361,1620933396.25531,1620933397.07169,1620933397.07058,1620933864.09474,0
14,4,1,3,8,5,3,c3_HowFace,1,looking to side?,68,F_760.jpg,1620933256.85994,1620933256.87024,126.046387424469,4.97366046905518,131.031577339172,133.132363786697,0.3,137.767425289154,1.45054054260254,139.219599952698,1,left,1.43786191940308,139.217965831757,604.474803676605,607.234803676605,1620933385.66633,1620933385.66999,1620933390.65152,1620933390.65327,1620933392.7523,1620933397.38736,1620933397.38867,1620933398.83954,1620933398.8379,1620933864.09474,1
14,4,1,3,8,6,3,c3_HowFace,2,looking to side?,66,F_111.jpg,1620933256.85994,1620933256.87024,126.046387424469,4.97366046905518,131.031577339172,133.132363786697,0.3,139.53475069046,0.917009592056274,140.466649999619,3,right,0.909517049789429,140.451760282516,604.474803676605,607.234803676605,1620933385.66633,1620933385.66999,1620933390.65152,1620933390.65327,1620933392.7523,1620933399.15469,1620933399.15603,1620933400.08659,1620933400.0717,1620933864.09474,0
14,4,1,3,8,7,3,c3_HowFace,1,looking to side?,69,F_110.jpg,1620933256.85994,1620933256.87024,126.046387424469,4.97366046905518,131.031577339172,133.132363786697,0.3,140.768544902802,1.3004846572876,142.070796003342,1,left,1.27675890922546,142.069029560089,604.474803676605,607.234803676605,1620933385.66633,1620933385.66999,1620933390.65152,1620933390.65327,1620933392.7523,1620933400.38848,1620933400.39041,1620933401.69074,1620933401.68897,1620933864.09474,1
14,4,1,3,8,8,3,c3_HowFace,2,looking to side?,65,F_798.jpg,1620933256.85994,1620933256.87024,126.046387424469,4.97366046905518,131.031577339172,133.132363786697,0.3,142.385814418793,0.967026948928833,143.365892877579,3,right,0.95702600479126,143.352841367722,604.474803676605,607.234803676605,1620933385.66633,1620933385.66999,1620933390.65152,1620933390.65327,1620933392.7523,1620933402.00575,1620933402.0074,1620933402.98583,1620933402.97278,1620933864.09474,0
14,4,1,3,9,1,1,c1_WhyFace,1,argument?,43,F_716.jpg,1620933256.85994,1620933256.87024,143.436205854416,6.69178605079651,150.138705720901,152.239488592148,2.10078287124634,152.389544715881,0.800298690795898,153.199878921509,1,left,0.791043043136597,153.189843406677,604.474803676605,607.234803676605,1620933403.05614,1620933403.05777,1620933409.75864,1620933409.76034,1620933411.85943,1620933412.00948,1620933412.01139,1620933412.81982,1620933412.80978,1620933864.09474,1
14,4,1,3,9,2,1,c1_WhyFace,2,argument?,44,F_139.jpg,1620933256.85994,1620933256.87024,143.436205854416,6.69178605079651,150.138705720901,152.239488592148,0.3,153.506627311707,0.917009592056274,154.424669017792,3,right,0.901028156280518,154.423636903763,604.474803676605,607.234803676605,1620933403.05614,1620933403.05777,1620933409.75864,1620933409.76034,1620933411.85943,1620933413.12657,1620933413.12832,1620933414.04461,1620933414.04358,1620933864.09474,0
14,4,1,3,9,3,1,c1_WhyFace,1,argument?,41,F_712.jpg,1620933256.85994,1620933256.87024,143.436205854416,6.69178605079651,150.138705720901,152.239488592148,0.3,154.740421285629,0.983700752258301,155.725357999802,1,left,0.964246034622192,155.724122037888,604.474803676605,607.234803676605,1620933403.05614,1620933403.05777,1620933409.75864,1620933409.76034,1620933411.85943,1620933414.36036,1620933414.36184,1620933415.3453,1620933415.34406,1620933864.09474,1
14,4,1,3,9,4,1,c1_WhyFace,2,argument?,45,F_433.jpg,1620933256.85994,1620933256.87024,143.436205854416,6.69178605079651,150.138705720901,152.239488592148,0.3,156.040907611847,0.900334119796753,156.942351808548,3,right,0.879871845245361,156.941241731644,604.474803676605,607.234803676605,1620933403.05614,1620933403.05777,1620933409.75864,1620933409.76034,1620933411.85943,1620933415.66085,1620933415.66287,1620933416.56229,1620933416.56118,1620933864.09474,0
14,4,1,3,9,5,1,c1_WhyFace,1,argument?,42,F_403.jpg,1620933256.85994,1620933256.87024,143.436205854416,6.69178605079651,150.138705720901,152.239488592148,0.3,157.258026828766,0.917009353637695,158.182941904068,1,left,0.902420997619629,158.175036182404,604.474803676605,607.234803676605,1620933403.05614,1620933403.05777,1620933409.75864,1620933409.76034,1620933411.85943,1620933416.87797,1620933416.87959,1620933417.80288,1620933417.79498,1620933864.09474,1
14,4,1,3,9,6,1,c1_WhyFace,2,argument?,46,F_844.jpg,1620933256.85994,1620933256.87024,143.436205854416,6.69178605079651,150.138705720901,152.239488592148,0.3,158.49182056427,0.883661985397339,159.382695903778,3,right,0.872389078140259,159.375482549667,604.474803676605,607.234803676605,1620933403.05614,1620933403.05777,1620933409.75864,1620933409.76034,1620933411.85943,1620933418.11176,1620933418.11334,1620933419.00264,1620933418.99542,1620933864.09474,0
14,4,1,3,9,7,1,c1_WhyFace,1,argument?,47,F_743.jpg,1620933256.85994,1620933256.87024,143.436205854416,6.69178605079651,150.138705720901,152.239488592148,0.3,159.692267885208,1.03371858596802,160.733040800095,1,left,1.0172119140625,160.725986471176,604.474803676605,607.234803676605,1620933403.05614,1620933403.05777,1620933409.75864,1620933409.76034,1620933411.85943,1620933419.31221,1620933419.31364,1620933420.35298,1620933420.34593,1620933864.09474,1
14,4,1,3,9,8,1,c1_WhyFace,1,argument?,48,F_758.jpg,1620933256.85994,1620933256.87024,143.436205854416,6.69178605079651,150.138705720901,152.239488592148,0.3,161.04277132988,0.933680295944214,161.977661838532,1,left,0.91203498840332,161.976451625824,604.474803676605,607.234803676605,1620933403.05614,1620933403.05777,1620933409.75864,1620933409.76034,1620933411.85943,1620933420.66271,1620933420.66439,1620933421.5976,1620933421.59639,1620933864.09474,1
14,4,1,3,10,1,3,c3_HowFace,1,open mouth?,80,F_844.jpg,1620933256.85994,1620933256.87024,162.043144693375,5.92475509643555,167.978691568375,170.079474439621,2.10078287124634,170.229532232285,0.750278234481812,170.981427898407,1,left,0.725557088851929,170.979810466766,604.474803676605,607.234803676605,1620933421.66308,1620933421.66413,1620933427.59863,1620933427.60323,1620933429.69941,1620933429.84947,1620933429.85294,1620933430.60137,1620933430.59975,1620933864.09474,1
14,4,1,3,10,2,3,c3_HowFace,1,open mouth?,74,F_776.jpg,1620933256.85994,1620933256.87024,162.043144693375,5.92475509643555,167.978691568375,170.079474439621,0.3,171.296595802307,0.650240898132324,171.949603786469,1,left,0.636096954345703,171.946836700439,604.474803676605,607.234803676605,1620933421.66308,1620933421.66413,1620933427.59863,1620933427.60323,1620933429.69941,1620933430.91653,1620933430.91979,1620933431.56954,1620933431.56678,1620933864.09474,1
14,4,1,3,10,3,3,c3_HowFace,2,open mouth?,76,F_544.jpg,1620933256.85994,1620933256.87024,162.043144693375,5.92475509643555,167.978691568375,170.079474439621,0.3,172.263622751236,0.800298452377319,173.066636791229,3,right,0.777274131774902,173.063921203613,604.474803676605,607.234803676605,1620933421.66308,1620933421.66413,1620933427.59863,1620933427.60323,1620933429.69941,1620933431.88356,1620933431.88649,1620933432.68658,1620933432.68386,1620933864.09474,0
14,4,1,3,10,4,3,c3_HowFace,1,open mouth?,78,F_692.jpg,1620933256.85994,1620933256.87024,162.043144693375,5.92475509643555,167.978691568375,170.079474439621,0.3,173.380705823898,0.866989850997925,174.24927400589,1,left,0.844045162200928,174.247695674896,604.474803676605,607.234803676605,1620933421.66308,1620933421.66413,1620933427.59863,1620933427.60323,1620933429.69941,1620933433.00064,1620933433.00321,1620933433.86921,1620933433.86763,1620933864.09474,1
14,4,1,3,10,5,3,c3_HowFace,2,open mouth?,77,F_584.jpg,1620933256.85994,1620933256.87024,162.043144693375,5.92475509643555,167.978691568375,170.079474439621,0.3,174.5644805336,0.900336265563965,175.466006984711,3,right,0.881923913955688,175.464816799164,604.474803676605,607.234803676605,1620933421.66308,1620933421.66413,1620933427.59863,1620933427.60323,1620933429.69941,1620933434.18442,1620933434.18654,1620933435.08595,1620933435.08476,1620933864.09474,0
14,4,1,3,10,6,3,c3_HowFace,1,open mouth?,73,F_403.jpg,1620933256.85994,1620933256.87024,162.043144693375,5.92475509643555,167.978691568375,170.079474439621,0.3,175.781601657867,0.766952753067017,176.550283899307,1,left,0.750700950622559,176.548554410934,604.474803676605,607.234803676605,1620933421.66308,1620933421.66413,1620933427.59863,1620933427.60323,1620933429.69941,1620933435.40154,1620933435.40304,1620933436.17022,1620933436.16849,1620933864.09474,1
14,4,1,3,10,7,3,c3_HowFace,1,open mouth?,75,F_086.jpg,1620933256.85994,1620933256.87024,162.043144693375,5.92475509643555,167.978691568375,170.079474439621,0.3,176.865338554382,0.833643913269043,177.699939002991,1,left,0.823246002197266,177.698982467651,604.474803676605,607.234803676605,1620933421.66308,1620933421.66413,1620933427.59863,1620933427.60323,1620933429.69941,1620933436.48528,1620933436.48698,1620933437.31988,1620933437.31892,1620933864.09474,1
14,4,1,3,10,8,3,c3_HowFace,2,open mouth?,79,F_648.jpg,1620933256.85994,1620933256.87024,162.043144693375,5.92475509643555,167.978691568375,170.079474439621,0.3,178.015767326355,0.900335550308228,178.917598953247,3,right,0.88680100440979,178.916102876663,604.474803676605,607.234803676605,1620933421.66308,1620933421.66413,1620933427.59863,1620933427.60323,1620933429.69941,1620933437.63571,1620933437.63718,1620933438.53754,1620933438.53604,1620933864.09474,0
14,4,1,3,11,1,4,c4_HowHand,1,pressing button?,88,H_019.jpg,1620933256.85994,1620933256.87024,178.982795467377,6.87509632110596,185.86869644165,187.969480028152,2.10078358650208,188.119535675049,0.800298690795898,188.921164979935,1,left,0.783234119415283,188.919834365845,604.474803676605,607.234803676605,1620933438.60273,1620933438.60398,1620933445.48864,1620933445.49029,1620933447.58942,1620933447.73947,1620933447.74129,1620933448.5411,1620933448.53977,1620933864.09474,1
14,4,1,3,11,2,4,c4_HowHand,2,pressing button?,87,H_024.jpg,1620933256.85994,1620933256.87024,178.982795467377,6.87509632110596,185.86869644165,187.969480028152,0.3,189.23661898613,0.800297975540161,190.038805952072,3,right,0.778815984725952,190.03691696167,604.474803676605,607.234803676605,1620933438.60273,1620933438.60398,1620933445.48864,1620933445.49029,1620933447.58942,1620933448.85656,1620933448.85827,1620933449.65875,1620933449.65686,1620933864.09474,0
14,4,1,3,11,3,4,c4_HowHand,2,pressing button?,85,H_130.jpg,1620933256.85994,1620933256.87024,178.982795467377,6.87509632110596,185.86869644165,187.969480028152,0.3,190.353703012466,0.733606576919556,191.100045909882,3,right,0.722824811935425,191.087309589386,604.474803676605,607.234803676605,1620933438.60273,1620933438.60398,1620933445.48864,1620933445.49029,1620933447.58942,1620933449.97364,1620933449.97545,1620933450.71999,1620933450.70725,1620933864.09474,0
14,4,1,3,11,4,4,c4_HowHand,1,pressing button?,83,H_502.jpg,1620933256.85994,1620933256.87024,178.982795467377,6.87509632110596,185.86869644165,187.969480028152,0.3,191.404094209671,0.666915655136108,192.083340873718,1,left,0.656964063644409,192.071009864807,604.474803676605,607.234803676605,1620933438.60273,1620933438.60398,1620933445.48864,1620933445.49029,1620933447.58942,1620933451.02403,1620933451.02565,1620933451.70328,1620933451.69095,1620933864.09474,1
14,4,1,3,11,5,4,c4_HowHand,2,pressing button?,81,H_261.jpg,1620933256.85994,1620933256.87024,178.982795467377,6.87509632110596,185.86869644165,187.969480028152,0.3,192.387794485092,0.716934680938721,193.105770816803,3,right,0.697509050369263,193.104729166031,604.474803676605,607.234803676605,1620933438.60273,1620933438.60398,1620933445.48864,1620933445.49029,1620933447.58942,1620933452.00773,1620933452.00906,1620933452.72571,1620933452.72467,1620933864.09474,0
14,4,1,3,11,6,4,c4_HowHand,1,pressing button?,86,H_332.jpg,1620933256.85994,1620933256.87024,178.982795467377,6.87509632110596,185.86869644165,187.969480028152,0.3,193.421513547897,0.633569240570068,194.066587915421,1,left,0.622649192810059,194.055082788467,604.474803676605,607.234803676605,1620933438.60273,1620933438.60398,1620933445.48864,1620933445.49029,1620933447.58942,1620933453.04145,1620933453.04311,1620933453.68653,1620933453.67502,1620933864.09474,1
14,4,1,3,11,7,4,c4_HowHand,1,pressing button?,82,H_126.jpg,1620933256.85994,1620933256.87024,178.982795467377,6.87509632110596,185.86869644165,187.969480028152,0.3,194.371867408752,0.700261116027832,195.083211889267,1,left,0.692639112472534,195.07212852478,604.474803676605,607.234803676605,1620933438.60273,1620933438.60398,1620933445.48864,1620933445.49029,1620933447.58942,1620933453.99181,1620933453.99367,1620933454.70315,1620933454.69207,1620933864.09474,1
14,4,1,3,11,8,4,c4_HowHand,1,pressing button?,84,H_483.jpg,1620933256.85994,1620933256.87024,178.982795467377,6.87509632110596,185.86869644165,187.969480028152,0.3,195.388913383484,0.816971063613892,196.216557016373,1,left,0.802576065063477,196.205884447098,604.474803676605,607.234803676605,1620933438.60273,1620933438.60398,1620933445.48864,1620933445.49029,1620933447.58942,1620933455.00885,1620933455.0104,1620933455.8365,1620933455.82582,1620933864.09474,1
14,4,1,3,12,1,2,c2_WhyHand,1,competing?,9,H_261.jpg,1620933256.85994,1620933256.87024,196.305922021866,7.34213185310364,203.658664455414,205.759448280334,2.10078382492065,205.909503927231,1.20044684410095,207.116298904419,1,left,1.18325114250183,207.109950771332,604.474803676605,607.234803676605,1620933455.92586,1620933455.92725,1620933463.2786,1620933463.28698,1620933465.37939,1620933465.52944,1620933465.5369,1620933466.73624,1620933466.72989,1620933864.09474,1
14,4,1,3,12,2,2,c2_WhyHand,2,competing?,12,H_483.jpg,1620933256.85994,1620933256.87024,196.305922021866,7.34213185310364,203.658664455414,205.759448280334,0.3,207.426735391617,0.866990327835083,208.299283018112,3,right,0.850373983383179,208.293725719452,604.474803676605,607.234803676605,1620933455.92586,1620933455.92725,1620933463.2786,1620933463.28698,1620933465.37939,1620933467.04667,1620933467.04832,1620933467.91922,1620933467.91366,1620933864.09474,0
14,4,1,3,12,3,2,c2_WhyHand,1,competing?,14,H_132.jpg,1620933256.85994,1620933256.87024,196.305922021866,7.34213185310364,203.658664455414,205.759448280334,0.3,208.610510101318,0.683588981628418,209.299257984161,1,left,0.674010038375854,209.294099082947,604.474803676605,607.234803676605,1620933455.92586,1620933455.92725,1620933463.2786,1620933463.28698,1620933465.37939,1620933468.23045,1620933468.23221,1620933468.9192,1620933468.91404,1620933864.09474,1
14,4,1,3,12,4,2,c2_WhyHand,2,competing?,10,H_126.jpg,1620933256.85994,1620933256.87024,196.305922021866,7.34213185310364,203.658664455414,205.759448280334,0.3,209.610884180069,0.766952037811279,210.383224954605,3,right,0.751811027526855,210.37783621788,604.474803676605,607.234803676605,1620933455.92586,1620933455.92725,1620933463.2786,1620933463.28698,1620933465.37939,1620933469.23082,1620933469.23265,1620933470.00316,1620933469.99778,1620933864.09474,0
14,4,1,3,12,5,2,c2_WhyHand,1,competing?,16,H_136.jpg,1620933256.85994,1620933256.87024,196.305922021866,7.34213185310364,203.658664455414,205.759448280334,0.3,210.69462179184,0.750279426574707,211.446666946411,1,left,0.727272987365723,211.444901218414,604.474803676605,607.234803676605,1620933455.92586,1620933455.92725,1620933463.2786,1620933463.28698,1620933465.37939,1620933470.31456,1620933470.31654,1620933471.06661,1620933471.06484,1620933864.09474,1
14,4,1,3,12,6,2,c2_WhyHand,2,competing?,11,H_502.jpg,1620933256.85994,1620933256.87024,196.305922021866,7.34213185310364,203.658664455414,205.759448280334,0.3,211.761685123444,0.850317478179932,212.61303185463,3,right,0.826107978820801,212.612002601624,604.474803676605,607.234803676605,1620933455.92586,1620933455.92725,1620933463.2786,1620933463.28698,1620933465.37939,1620933471.38162,1620933471.38642,1620933472.23297,1620933472.23194,1620933864.09474,0
14,4,1,3,12,7,2,c2_WhyHand,1,competing?,13,H_003.jpg,1620933256.85994,1620933256.87024,196.305922021866,7.34213185310364,203.658664455414,205.759448280334,0.3,212.928787937164,0.766952514648438,213.699909915924,1,left,0.753000974655151,213.695740451813,604.474803676605,607.234803676605,1620933455.92586,1620933455.92725,1620933463.2786,1620933463.28698,1620933465.37939,1620933472.54873,1620933472.55322,1620933473.31985,1620933473.31568,1620933864.09474,1
14,4,1,3,12,8,2,c2_WhyHand,1,competing?,15,H_170.jpg,1620933256.85994,1620933256.87024,196.305922021866,7.34213185310364,203.658664455414,205.759448280334,0.3,214.012526025772,0.666914939880371,214.68269490242,1,left,0.645104885101318,214.679440965652,604.474803676605,607.234803676605,1620933455.92586,1620933455.92725,1620933463.2786,1620933463.28698,1620933465.37939,1620933473.63247,1620933473.63759,1620933474.30263,1620933474.29938,1620933864.09474,1
14,4,1,3,13,1,1,c1_WhyFace,1,self-doubt?,29,F_544.jpg,1620933256.85994,1620933256.87024,214.746132602692,6.9717812538147,221.732070913315,223.83285402298,2.10078310966492,223.982910861969,0.716933250427246,224.700882902145,1,left,0.694931983947754,224.699844112396,604.474803676605,607.234803676605,1620933474.36607,1620933474.36971,1620933481.35201,1620933481.35359,1620933483.45279,1620933483.60285,1620933483.60477,1620933484.32082,1620933484.31978,1620933864.09474,1
14,4,1,3,13,2,1,c1_WhyFace,2,self-doubt?,27,F_086.jpg,1620933256.85994,1620933256.87024,214.746132602692,6.9717812538147,221.732070913315,223.83285402298,0.3,225.016628255844,1.11708331108093,226.149927845001,3,right,1.11000609397888,226.133711566925,604.474803676605,607.234803676605,1620933474.36607,1620933474.36971,1620933481.35201,1620933481.35359,1620933483.45279,1620933484.63657,1620933484.63821,1620933485.76987,1620933485.75365,1620933864.09474,0
14,4,1,3,13,3,1,c1_WhyFace,1,self-doubt?,25,F_798.jpg,1620933256.85994,1620933256.87024,214.746132602692,6.9717812538147,221.732070913315,223.83285402298,0.3,226.450497617722,0.750279426574707,227.202502002716,1,left,0.729521989822388,227.200777044296,604.474803676605,607.234803676605,1620933474.36607,1620933474.36971,1620933481.35201,1620933481.35359,1620933483.45279,1620933486.07044,1620933486.07221,1620933486.82244,1620933486.82072,1620933864.09474,1
14,4,1,3,13,4,1,c1_WhyFace,1,self-doubt?,26,F_111.jpg,1620933256.85994,1620933256.87024,214.746132602692,6.9717812538147,221.732070913315,223.83285402298,0.3,227.517561903,0.683587789535522,228.202162971497,1,left,0.671145915985107,228.201149692535,604.474803676605,607.234803676605,1620933474.36607,1620933474.36971,1620933481.35201,1620933481.35359,1620933483.45279,1620933487.1375,1620933487.13929,1620933487.8221,1620933487.82109,1620933864.09474,1
14,4,1,3,13,5,1,c1_WhyFace,2,self-doubt?,31,F_774.jpg,1620933256.85994,1620933256.87024,214.746132602692,6.9717812538147,221.732070913315,223.83285402298,0.3,228.517935028076,0.716933965682983,229.235976924896,3,right,0.702493190765381,229.234868993759,604.474803676605,607.234803676605,1620933474.36607,1620933474.36971,1620933481.35201,1620933481.35359,1620933483.45279,1620933488.13787,1620933488.1395,1620933488.85592,1620933488.85481,1620933864.09474,0
14,4,1,3,13,6,1,c1_WhyFace,1,self-doubt?,28,F_754.jpg,1620933256.85994,1620933256.87024,214.746132602692,6.9717812538147,221.732070913315,223.83285402298,0.3,229.551653375626,1.05039215087891,230.61632894516,1,left,1.04047107696533,230.602045526505,604.474803676605,607.234803676605,1620933474.36607,1620933474.36971,1620933481.35201,1620933481.35359,1620933483.45279,1620933489.17159,1620933489.17298,1620933490.23627,1620933490.22198,1620933864.09474,1
14,4,1,3,13,7,1,c1_WhyFace,2,self-doubt?,32,F_128.jpg,1620933256.85994,1620933256.87024,214.746132602692,6.9717812538147,221.732070913315,223.83285402298,0.3,230.918830862045,0.866989135742188,231.787315835953,3,right,0.847781896591187,231.785819997787,604.474803676605,607.234803676605,1620933474.36607,1620933474.36971,1620933481.35201,1620933481.35359,1620933483.45279,1620933490.53877,1620933490.54049,1620933491.40725,1620933491.40576,1620933864.09474,0
14,4,1,3,13,8,1,c1_WhyFace,1,self-doubt?,30,F_584.jpg,1620933256.85994,1620933256.87024,214.746132602692,6.9717812538147,221.732070913315,223.83285402298,0.3,232.102603664398,0.86699104309082,232.971449842453,1,left,0.851705074310303,232.969594707489,604.474803676605,607.234803676605,1620933474.36607,1620933474.36971,1620933481.35201,1620933481.35359,1620933483.45279,1620933491.72254,1620933491.72403,1620933492.59139,1620933492.58953,1620933864.09474,1
14,4,1,3,14,1,3,c3_HowFace,1,looking at camera?,64,F_128.jpg,1620933256.85994,1620933256.87024,233.036286582947,7.73568820953369,240.789176931381,242.88996099472,2.10078406333923,243.040016880035,0.633569478988647,243.682698001862,1,left,0.623157978057861,243.673586359024,604.474803676605,607.234803676605,1620933492.65623,1620933492.65779,1620933500.40912,1620933500.41147,1620933502.5099,1620933502.65996,1620933502.66164,1620933503.30264,1620933503.29353,1620933864.09474,1
14,4,1,3,14,2,3,c3_HowFace,1,looking at camera?,60,F_618.jpg,1620933256.85994,1620933256.87024,233.036286582947,7.73568820953369,240.789176931381,242.88996099472,0.3,243.990370979309,0.850317716598511,244.849286785126,1,left,0.832995891571045,244.840688695908,604.474803676605,607.234803676605,1620933492.65623,1620933492.65779,1620933500.40912,1620933500.41147,1620933502.5099,1620933503.61031,1620933503.61222,1620933504.46923,1620933504.46063,1620933864.09474,1
14,4,1,3,14,3,3,c3_HowFace,1,looking at camera?,62,F_598.jpg,1620933256.85994,1620933256.87024,233.036286582947,7.73568820953369,240.789176931381,242.88996099472,0.3,245.15747379303,0.733607292175293,245.892153968811,1,left,0.714641094207764,245.891081085205,604.474803676605,607.234803676605,1620933492.65623,1620933492.65779,1620933500.40912,1620933500.41147,1620933502.5099,1620933504.77741,1620933504.77944,1620933505.51209,1620933505.51102,1620933864.09474,1
14,4,1,3,14,4,3,c3_HowFace,2,looking at camera?,63,F_743.jpg,1620933256.85994,1620933256.87024,233.036286582947,7.73568820953369,240.789176931381,242.88996099472,0.3,246.20786570549,0.683588266372681,246.899430980682,3,right,0.67694091796875,246.891453971863,604.474803676605,607.234803676605,1620933492.65623,1620933492.65779,1620933500.40912,1620933500.41147,1620933502.5099,1620933505.8278,1620933505.82937,1620933506.51937,1620933506.51139,1620933864.09474,0
14,4,1,3,14,5,3,c3_HowFace,1,looking at camera?,61,F_774.jpg,1620933256.85994,1620933256.87024,233.036286582947,7.73568820953369,240.789176931381,242.88996099472,0.3,247.208238115311,0.783625841140747,247.999280920029,1,left,0.768368005752563,247.991863956451,604.474803676605,607.234803676605,1620933492.65623,1620933492.65779,1620933500.40912,1620933500.41147,1620933502.5099,1620933506.82818,1620933506.83006,1620933507.61922,1620933507.6118,1620933864.09474,1
14,4,1,3,14,6,3,c3_HowFace,2,looking at camera?,57,F_582.jpg,1620933256.85994,1620933256.87024,233.036286582947,7.73568820953369,240.789176931381,242.88996099472,0.3,248.308648338318,0.800298929214478,249.11633895874,3,right,0.788429021835327,249.108947267532,604.474803676605,607.234803676605,1620933492.65623,1620933492.65779,1620933500.40912,1620933500.41147,1620933502.5099,1620933507.92859,1620933507.93053,1620933508.73628,1620933508.72889,1620933864.09474,0
14,4,1,3,14,7,3,c3_HowFace,2,looking at camera?,58,F_754.jpg,1620933256.85994,1620933256.87024,233.036286582947,7.73568820953369,240.789176931381,242.88996099472,0.3,249.425731649399,0.866990089416504,250.293774833679,3,right,0.845741987228394,250.292721738815,604.474803676605,607.234803676605,1620933492.65623,1620933492.65779,1620933500.40912,1620933500.41147,1620933502.5099,1620933509.04567,1620933509.04736,1620933509.91371,1620933509.91266,1620933864.09474,0
14,4,1,3,14,8,3,c3_HowFace,1,looking at camera?,59,F_129.jpg,1620933256.85994,1620933256.87024,233.036286582947,7.73568820953369,240.789176931381,242.88996099472,0.3,250.609507074356,0.75027871131897,251.366287937164,1,left,0.737433910369873,251.359785785675,604.474803676605,607.234803676605,1620933492.65623,1620933492.65779,1620933500.40912,1620933500.41147,1620933502.5099,1620933510.22945,1620933510.23145,1620933510.98623,1620933510.97972,1620933864.09474,1
14,4,1,3,15,1,4,c4_HowHand,1,both hands?,123,H_167.jpg,1620933256.85994,1620933256.87024,251.443150749207,8.11876821517944,259.579518785477,261.680301418304,2.10078263282776,261.830358018875,1.18377423286438,263.016354789734,1,left,1.16852784156799,263.01413225174,604.474803676605,607.234803676605,1620933511.06309,1620933511.06451,1620933519.19946,1620933519.20336,1620933521.30024,1620933521.4503,1620933521.45334,1620933522.63629,1620933522.63407,1620933864.09474,1
14,4,1,3,15,2,4,c4_HowHand,2,both hands?,121,H_091.jpg,1620933256.85994,1620933256.87024,251.443150749207,8.11876821517944,259.579518785477,261.680301418304,0.3,263.33091758728,0.850317239761353,264.182458868027,3,right,0.840904951095581,264.181234827042,604.474803676605,607.234803676605,1620933511.06309,1620933511.06451,1620933519.19946,1620933519.20336,1620933521.30024,1620933522.95086,1620933522.95328,1620933523.8024,1620933523.80117,1620933864.09474,0
14,4,1,3,15,3,4,c4_HowHand,2,both hands?,125,H_627.jpg,1620933256.85994,1620933256.87024,251.443150749207,8.11876821517944,259.579518785477,261.680301418304,0.3,264.498018493652,0.866991281509399,265.366030921936,3,right,0.844426155090332,265.365009775162,604.474803676605,607.234803676605,1620933511.06309,1620933511.06451,1620933519.19946,1620933519.20336,1620933521.30024,1620933524.11796,1620933524.11982,1620933524.98597,1620933524.98495,1620933864.09474,0
14,4,1,3,15,4,4,c4_HowHand,1,both hands?,128,H_027.jpg,1620933256.85994,1620933256.87024,251.443150749207,8.11876821517944,259.579518785477,261.680301418304,0.3,265.681793441772,1.03371953964233,266.716540803909,1,left,1.01226997375488,266.715512981415,604.474803676605,607.234803676605,1620933511.06309,1620933511.06451,1620933519.19946,1620933519.20336,1620933521.30024,1620933525.30173,1620933525.30319,1620933526.33648,1620933526.33545,1620933864.09474,1
14,4,1,3,15,5,4,c4_HowHand,1,both hands?,122,H_111.jpg,1620933256.85994,1620933256.87024,251.443150749207,8.11876821517944,259.579518785477,261.680301418304,0.3,267.032297124863,0.900336503982544,267.93394993782,1,left,0.887087106704712,267.932633628845,604.474803676605,607.234803676605,1620933511.06309,1620933511.06451,1620933519.19946,1620933519.20336,1620933521.30024,1620933526.65224,1620933526.65375,1620933527.55389,1620933527.55257,1620933864.09474,1
14,4,1,3,15,6,4,c4_HowHand,2,both hands?,126,H_159.jpg,1620933256.85994,1620933256.87024,251.443150749207,8.11876821517944,259.579518785477,261.680301418304,0.3,268.249418487549,0.750279426574707,269.00143693924,3,right,0.727086067199707,268.999697914124,604.474803676605,607.234803676605,1620933511.06309,1620933511.06451,1620933519.19946,1620933519.20336,1620933521.30024,1620933527.86936,1620933527.87133,1620933528.62138,1620933528.61964,1620933864.09474,0
14,4,1,3,15,7,4,c4_HowHand,1,both hands?,124,H_581.jpg,1620933256.85994,1620933256.87024,251.443150749207,8.11876821517944,259.579518785477,261.680301418304,0.3,269.316482534409,1.08373808860779,270.401279916763,1,left,1.06850504875183,270.400220623016,604.474803676605,607.234803676605,1620933511.06309,1620933511.06451,1620933519.19946,1620933519.20336,1620933521.30024,1620933528.93642,1620933528.93822,1620933530.02122,1620933530.02016,1620933864.09474,1
14,4,1,3,15,8,4,c4_HowHand,1,both hands?,127,H_349.jpg,1620933256.85994,1620933256.87024,251.443150749207,8.11876821517944,259.579518785477,261.680301418304,0.3,270.717005243301,0.850317001342773,271.56879281044,1,left,0.832925081253052,271.567322244644,604.474803676605,607.234803676605,1620933511.06309,1620933511.06451,1620933519.19946,1620933519.20336,1620933521.30024,1620933530.33694,1620933530.33852,1620933531.18873,1620933531.18726,1620933864.09474,1
14,4,1,3,16,1,2,c2_WhyHand,1,self-protection?,89,H_443.jpg,1620933256.85994,1620933256.87024,271.63401268959,6.71786832809448,278.369858255386,280.470642795563,2.10078454017639,280.620698680878,0.950354099273682,281.583048810959,1,left,0.941266059875488,281.571052780151,604.474803676605,607.234803676605,1620933531.25395,1620933531.26981,1620933537.9898,1620933537.99138,1620933540.09058,1620933540.24064,1620933540.24256,1620933541.20299,1620933541.19099,1620933864.09474,1
14,4,1,3,16,2,2,c2_WhyHand,2,self-protection?,90,H_006.jpg,1620933256.85994,1620933256.87024,271.63401268959,6.71786832809448,278.369858255386,280.470642795563,0.3,281.887837162018,1.10041093826294,282.999854793549,3,right,1.08596110343933,282.988248100281,604.474803676605,607.234803676605,1620933531.25395,1620933531.26981,1620933537.9898,1620933537.99138,1620933540.09058,1620933541.50778,1620933541.50944,1620933542.61979,1620933542.60819,1620933864.09474,0
14,4,1,3,16,3,2,c2_WhyHand,1,self-protection?,91,H_581.jpg,1620933256.85994,1620933256.87024,271.63401268959,6.71786832809448,278.369858255386,280.470642795563,0.3,283.305032482147,0.98370099067688,284.300146808624,1,left,0.973695039749146,284.288733472824,604.474803676605,607.234803676605,1620933531.25395,1620933531.26981,1620933537.9898,1620933537.99138,1620933540.09058,1620933542.92497,1620933542.92631,1620933543.92009,1620933543.90867,1620933864.09474,1
14,4,1,3,16,4,2,c2_WhyHand,2,self-protection?,92,H_532.jpg,1620933256.85994,1620933256.87024,271.63401268959,6.71786832809448,278.369858255386,280.470642795563,0.3,284.605517139435,1.33383178710938,285.940784921646,3,right,1.31703305244446,285.939348926544,604.474803676605,607.234803676605,1620933531.25395,1620933531.26981,1620933537.9898,1620933537.99138,1620933540.09058,1620933544.22546,1620933544.22721,1620933545.56072,1620933545.55929,1620933864.09474,0
14,4,1,3,16,5,2,c2_WhyHand,1,self-protection?,96,H_027.jpg,1620933256.85994,1620933256.87024,271.63401268959,6.71786832809448,278.369858255386,280.470642795563,0.3,286.256133785248,0.900334358215332,287.157513847351,1,left,0.883522987365723,287.156468143463,604.474803676605,607.234803676605,1620933531.25395,1620933531.26981,1620933537.9898,1620933537.99138,1620933540.09058,1620933545.87607,1620933545.87764,1620933546.77745,1620933546.77641,1620933864.09474,1
14,4,1,3,16,6,2,c2_WhyHand,1,self-protection?,93,H_038.jpg,1620933256.85994,1620933256.87024,271.63401268959,6.71786832809448,278.369858255386,280.470642795563,0.3,287.473252763748,0.917008876800537,288.399251928329,3,right,0.903326034545898,288.390261640549,604.474803676605,607.234803676605,1620933531.25395,1620933531.26981,1620933537.9898,1620933537.99138,1620933540.09058,1620933547.09319,1620933547.09475,1620933548.01919,1620933548.0102,1620933864.09474,0
14,4,1,3,16,7,2,c2_WhyHand,2,self-protection?,95,H_332.jpg,1620933256.85994,1620933256.87024,271.63401268959,6.71786832809448,278.369858255386,280.470642795563,0.3,288.707047691345,0.950353622436523,289.658829917908,3,right,0.93268084526062,289.657401313782,604.474803676605,607.234803676605,1620933531.25395,1620933531.26981,1620933537.9898,1620933537.99138,1620933540.09058,1620933548.32699,1620933548.32861,1620933549.27877,1620933549.27734,1620933864.09474,0
14,4,1,3,16,8,2,c2_WhyHand,1,self-protection?,94,H_189.jpg,1620933256.85994,1620933256.87024,271.63401268959,6.71786832809448,278.369858255386,280.470642795563,0.3,289.974186172485,0.850317239761353,290.8330519104,1,left,0.836035966873169,290.824503412247,604.474803676605,607.234803676605,1620933531.25395,1620933531.26981,1620933537.9898,1620933537.99138,1620933540.09058,1620933549.59413,1620933549.59621,1620933550.45299,1620933550.44444,1620933864.09474,1
14,4,1,3,17,1,3,c3_HowFace,1,smiling?,118,F_759.jpg,1620933256.85994,1620933256.87024,290.90786813736,8.92407369613647,299.844533195496,301.945317258835,2.10078406333923,302.095373620987,0.800297975540161,302.899201860428,1,left,0.788574934005737,302.895671596527,604.474803676605,607.234803676605,1620933550.52781,1620933550.52919,1620933559.46447,1620933559.47003,1620933561.56526,1620933561.71531,1620933561.72023,1620933562.51914,1620933562.51561,1620933864.09474,1
14,4,1,3,17,2,3,c3_HowFace,2,smiling?,114,F_412.jpg,1620933256.85994,1620933256.87024,290.90786813736,8.92407369613647,299.844533195496,301.945317258835,0.3,303.212455739975,0.633570194244385,303.849262943268,3,right,0.614965200424194,303.846025934219,604.474803676605,607.234803676605,1620933550.52781,1620933550.52919,1620933559.46447,1620933559.47003,1620933561.56526,1620933562.83239,1620933562.83633,1620933563.4692,1620933563.46597,1620933864.09474,0
14,4,1,3,17,3,3,c3_HowFace,1,smiling?,117,F_593.jpg,1620933256.85994,1620933256.87024,290.90786813736,8.92407369613647,299.844533195496,301.945317258835,0.3,304.162812223434,0.73360538482666,304.899555912018,1,left,0.716093063354492,304.896417608261,604.474803676605,607.234803676605,1620933550.52781,1620933550.52919,1620933559.46447,1620933559.47003,1620933561.56526,1620933563.78275,1620933563.7862,1620933564.5195,1620933564.51636,1620933864.09474,1
14,4,1,3,17,4,3,c3_HowFace,2,smiling?,113,F_712.jpg,1620933256.85994,1620933256.87024,290.90786813736,8.92407369613647,299.844533195496,301.945317258835,0.3,305.213202228546,0.766953229904175,305.983032932282,3,right,0.751569986343384,305.98015545845,604.474803676605,607.234803676605,1620933550.52781,1620933550.52919,1620933559.46447,1620933559.47003,1620933561.56526,1620933564.83314,1620933564.8366,1620933565.60297,1620933565.60009,1620933864.09474,0
14,4,1,3,17,5,3,c3_HowFace,1,smiling?,115,F_695.jpg,1620933256.85994,1620933256.87024,290.90786813736,8.92407369613647,299.844533195496,301.945317258835,0.3,306.29693936348,0.683589220046997,306.982717981339,1,left,0.666584968566895,306.980528583527,604.474803676605,607.234803676605,1620933550.52781,1620933550.52919,1620933559.46447,1620933559.47003,1620933561.56526,1620933565.91688,1620933565.91984,1620933566.60266,1620933566.60047,1620933864.09474,1
14,4,1,3,17,6,3,c3_HowFace,1,smiling?,119,F_139.jpg,1620933256.85994,1620933256.87024,290.90786813736,8.92407369613647,299.844533195496,301.945317258835,0.3,307.297314157486,0.65024209022522,307.9492628479,1,left,0.638638973236084,307.947556247711,604.474803676605,607.234803676605,1620933550.52781,1620933550.52919,1620933559.46447,1620933559.47003,1620933561.56526,1620933566.91725,1620933566.91983,1620933567.5692,1620933567.5675,1620933864.09474,1
14,4,1,3,17,7,3,c3_HowFace,1,smiling?,116,F_083.jpg,1620933256.85994,1620933256.87024,290.90786813736,8.92407369613647,299.844533195496,301.945317258835,0.3,308.264340867996,0.666915416717529,308.933037986755,1,left,0.649960994720459,308.931256284714,604.474803676605,607.234803676605,1620933550.52781,1620933550.52919,1620933559.46447,1620933559.47003,1620933561.56526,1620933567.88428,1620933567.88671,1620933568.55298,1620933568.5512,1620933864.09474,1
14,4,1,3,17,8,3,c3_HowFace,2,smiling?,120,F_758.jpg,1620933256.85994,1620933256.87024,290.90786813736,8.92407369613647,299.844533195496,301.945317258835,0.3,309.248040904999,0.700260400772095,309.949908008575,3,right,0.679532051086426,309.948301305771,604.474803676605,607.234803676605,1620933550.52781,1620933550.52919,1620933559.46447,1620933559.47003,1620933561.56526,1620933568.86798,1620933568.86989,1620933569.56985,1620933569.56824,1620933864.09474,0
14,4,1,3,18,1,1,c1_WhyFace,1,admiring?,1,F_593.jpg,1620933256.85994,1620933256.87024,310.03166674614,7.59026622772217,317.634502162933,319.735285272598,2.10078310966492,319.885340919495,0.750279664993286,320.636786928177,1,left,0.734472036361694,320.635620584488,604.474803676605,607.234803676605,1620933569.65161,1620933569.65269,1620933577.25444,1620933577.25638,1620933579.35522,1620933579.50528,1620933579.50729,1620933580.25673,1620933580.25556,1620933864.09474,1
14,4,1,3,18,2,1,c1_WhyFace,2,admiring?,2,F_129.jpg,1620933256.85994,1620933256.87024,310.03166674614,7.59026622772217,317.634502162933,319.735285272598,0.3,320.952405920029,0.633568286895752,321.599843015671,3,right,0.622530937194824,321.585974206924,604.474803676605,607.234803676605,1620933569.65161,1620933569.65269,1620933577.25444,1620933577.25638,1620933579.35522,1620933580.57235,1620933580.57437,1620933581.21978,1620933581.20591,1620933864.09474,0
14,4,1,3,18,3,1,c1_WhyFace,1,admiring?,5,F_759.jpg,1620933256.85994,1620933256.87024,310.03166674614,7.59026622772217,317.634502162933,319.735285272598,0.3,321.90276049614,0.650241851806641,322.554018011093,1,left,0.634814977645874,322.553002347946,604.474803676605,607.234803676605,1620933569.65161,1620933569.65269,1620933577.25444,1620933577.25638,1620933579.35522,1620933581.5227,1620933581.52422,1620933582.17396,1620933582.17294,1620933864.09474,1
14,4,1,3,18,4,1,c1_WhyFace,2,admiring?,6,F_692.jpg,1620933256.85994,1620933256.87024,310.03166674614,7.59026622772217,317.634502162933,319.735285272598,0.3,322.86978720665,0.750279426574707,323.632694950104,3,right,0.742547988891602,323.620066633224,604.474803676605,607.234803676605,1620933569.65161,1620933569.65269,1620933577.25444,1620933577.25638,1620933579.35522,1620933582.48973,1620933582.49158,1620933583.25263,1620933583.24001,1620933864.09474,0
14,4,1,3,18,5,1,c1_WhyFace,1,admiring?,4,F_779.jpg,1620933256.85994,1620933256.87024,310.03166674614,7.59026622772217,317.634502162933,319.735285272598,0.3,323.936851968765,0.716933250427246,324.654907932282,1,left,0.698190927505493,324.653785219193,604.474803676605,607.234803676605,1620933569.65161,1620933569.65269,1620933577.25444,1620933577.25638,1620933579.35522,1620933583.55679,1620933583.55837,1620933584.27485,1620933584.27372,1620933864.09474,1
14,4,1,3,18,6,1,c1_WhyFace,1,admiring?,8,F_590.jpg,1620933256.85994,1620933256.87024,310.03166674614,7.59026622772217,317.634502162933,319.735285272598,0.3,324.970570793152,0.783624410629272,325.755224933624,1,left,0.762087106704712,325.754195203781,604.474803676605,607.234803676605,1620933569.65161,1620933569.65269,1620933577.25444,1620933577.25638,1620933579.35522,1620933584.59051,1620933584.59196,1620933585.37516,1620933585.37413,1620933864.09474,1
14,4,1,3,18,7,1,c1_WhyFace,1,admiring?,7,F_648.jpg,1620933256.85994,1620933256.87024,310.03166674614,7.59026622772217,317.634502162933,319.735285272598,0.3,326.070980539322,0.700261354446411,326.772241821289,1,left,0.683209896087646,326.771241893768,604.474803676605,607.234803676605,1620933569.65161,1620933569.65269,1620933577.25444,1620933577.25638,1620933579.35522,1620933585.69092,1620933585.69249,1620933586.39218,1620933586.39118,1620933864.09474,1
14,4,1,3,18,8,1,c1_WhyFace,2,admiring?,3,F_110.jpg,1620933256.85994,1620933256.87024,310.03166674614,7.59026622772217,317.634502162933,319.735285272598,0.3,327.088026990891,0.683587312698364,327.783310880661,3,right,0.674444198608398,327.771614303589,604.474803676605,607.234803676605,1620933569.65161,1620933569.65269,1620933577.25444,1620933577.25638,1620933579.35522,1620933586.70797,1620933586.7093,1620933587.40325,1620933587.39155,1620933864.09474,0
14,4,1,3,19,1,2,c2_WhyHand,1,competing?,9,H_261.jpg,1620933256.85994,1620933256.87024,327.854979743958,7.65698313713074,335.524506082535,337.625290384293,2.10078430175781,337.775345315933,0.700261116027832,338.477007856369,1,left,0.678627014160156,338.475606431961,604.474803676605,607.234803676605,1620933587.47492,1620933587.48644,1620933595.14445,1620933595.15352,1620933597.24523,1620933597.39528,1620933597.3969,1620933598.09695,1620933598.09555,1620933864.09474,1
14,4,1,3,19,2,2,c2_WhyHand,1,competing?,15,H_170.jpg,1620933256.85994,1620933256.87024,327.854979743958,7.65698313713074,335.524506082535,337.625290384293,0.3,338.792391767502,0.533533096313477,339.333050956726,1,left,0.519869089126587,339.325924863815,604.474803676605,607.234803676605,1620933587.47492,1620933587.48644,1620933595.14445,1620933595.15352,1620933597.24523,1620933598.41233,1620933598.41388,1620933598.95299,1620933598.94586,1620933864.09474,1
14,4,1,3,19,3,2,c2_WhyHand,2,competing?,12,H_483.jpg,1620933256.85994,1620933256.87024,327.854979743958,7.65698313713074,335.524506082535,337.625290384293,0.3,339.642708768845,0.616896629333496,340.266382923126,3,right,0.605825185775757,340.259605398178,604.474803676605,607.234803676605,1620933587.47492,1620933587.48644,1620933595.14445,1620933595.15352,1620933597.24523,1620933599.26265,1620933599.26435,1620933599.88632,1620933599.87954,1620933864.09474,0
14,4,1,3,19,4,2,c2_WhyHand,1,competing?,14,H_132.jpg,1620933256.85994,1620933256.87024,327.854979743958,7.65698313713074,335.524506082535,337.625290384293,0.3,340.5763904953,0.566878080368042,341.150270929337,1,left,0.552395820617676,341.143268575668,604.474803676605,607.234803676605,1620933587.47492,1620933587.48644,1620933595.14445,1620933595.15352,1620933597.24523,1620933600.19633,1620933600.19796,1620933600.77021,1620933600.76321,1620933864.09474,1
14,4,1,3,19,5,2,c2_WhyHand,1,competing?,16,H_136.jpg,1620933256.85994,1620933256.87024,327.854979743958,7.65698313713074,335.524506082535,337.625290384293,0.3,341.460053911209,0.616895914077759,342.083044996262,1,left,0.60669207572937,342.076949825287,604.474803676605,607.234803676605,1620933587.47492,1620933587.48644,1620933595.14445,1620933595.15352,1620933597.24523,1620933601.07999,1620933601.08149,1620933601.70298,1620933601.69689,1620933864.09474,1
14,4,1,3,19,6,2,c2_WhyHand,1,competing?,13,H_003.jpg,1620933256.85994,1620933256.87024,327.854979743958,7.65698313713074,335.524506082535,337.625290384293,0.3,342.393734922409,0.566877841949463,342.966720809937,1,left,0.556174039840698,342.960612764359,604.474803676605,607.234803676605,1620933587.47492,1620933587.48644,1620933595.14445,1620933595.15352,1620933597.24523,1620933602.01367,1620933602.01527,1620933602.58666,1620933602.58055,1620933864.09474,1
14,4,1,3,19,7,2,c2_WhyHand,2,competing?,10,H_126.jpg,1620933256.85994,1620933256.87024,327.854979743958,7.65698313713074,335.524506082535,337.625290384293,0.3,343.277397861481,0.633569955825806,343.916662921906,3,right,0.621464014053345,343.910967817307,604.474803676605,607.234803676605,1620933587.47492,1620933587.48644,1620933595.14445,1620933595.15352,1620933597.24523,1620933602.89734,1620933602.89873,1620933603.5366,1620933603.53091,1620933864.09474,0
14,4,1,3,19,8,2,c2_WhyHand,2,competing?,11,H_502.jpg,1620933256.85994,1620933256.87024,327.854979743958,7.65698313713074,335.524506082535,337.625290384293,0.3,344.227751722336,0.733606576919556,344.966562976837,3,right,0.718229055404663,344.961358299255,604.474803676605,607.234803676605,1620933587.47492,1620933587.48644,1620933595.14445,1620933595.15352,1620933597.24523,1620933603.84769,1620933603.84947,1620933604.5865,1620933604.5813,1620933864.09474,0
14,4,1,3,20,1,4,c4_HowHand,1,reaching?,111,H_003.jpg,1620933256.85994,1620933256.87024,345.044723978043,11.9472630023956,356.999181976318,359.099964370728,2.10078239440918,359.250020494461,0.683589458465576,359.93481086731,1,left,0.664988994598389,359.933609952927,604.474803676605,607.234803676605,1620933604.66466,1620933604.66986,1620933616.61912,1620933616.62088,1620933618.7199,1620933618.86996,1620933618.87179,1620933619.55475,1620933619.55355,1620933864.09474,1
14,4,1,3,20,2,4,c4_HowHand,1,reaching?,110,H_364.jpg,1620933256.85994,1620933256.87024,345.044723978043,11.9472630023956,356.999181976318,359.099964370728,0.3,360.250393857956,0.716933727264404,360.96869181633,1,left,0.699788808822632,360.96732758522,604.474803676605,607.234803676605,1620933604.66466,1620933604.66986,1620933616.61912,1620933616.62088,1620933618.7199,1620933619.87033,1620933619.87228,1620933620.58863,1620933620.58727,1620933864.09474,1
14,4,1,3,20,3,4,c4_HowHand,2,reaching?,108,H_532.jpg,1620933256.85994,1620933256.87024,345.044723978043,11.9472630023956,356.999181976318,359.099964370728,0.3,361.284112682343,1.00037288665771,362.286127796173,3,right,0.984353065490723,362.284485569,604.474803676605,607.234803676605,1620933604.66466,1620933604.66986,1620933616.61912,1620933616.62088,1620933618.7199,1620933620.90405,1620933620.90591,1620933621.90607,1620933621.90442,1620933864.09474,0
14,4,1,3,20,4,4,c4_HowHand,1,reaching?,106,H_006.jpg,1620933256.85994,1620933256.87024,345.044723978043,11.9472630023956,356.999181976318,359.099964370728,0.3,362.601270666122,0.766952276229858,363.369580974579,1,left,0.750262022018433,363.368222942352,604.474803676605,607.234803676605,1620933604.66466,1620933604.66986,1620933616.61912,1620933616.62088,1620933618.7199,1620933622.22121,1620933622.22329,1620933622.98952,1620933622.98816,1620933864.09474,1
14,4,1,3,20,5,4,c4_HowHand,2,reaching?,105,H_438.jpg,1620933256.85994,1620933256.87024,345.044723978043,11.9472630023956,356.999181976318,359.099964370728,0.3,363.685008993149,0.967026710510254,364.66590379715,3,right,0.957329988479614,364.652035703659,604.474803676605,607.234803676605,1620933604.66466,1620933604.66986,1620933616.61912,1620933616.62088,1620933618.7199,1620933623.30495,1620933623.30676,1620933624.28584,1620933624.27197,1620933864.09474,0
14,4,1,3,20,6,4,c4_HowHand,1,reaching?,107,H_007.jpg,1620933256.85994,1620933256.87024,345.044723978043,11.9472630023956,356.999181976318,359.099964370728,0.3,364.968820800781,0.833643913269043,365.803426971436,1,left,0.822548151016235,365.80246471405,604.474803676605,607.234803676605,1620933604.66466,1620933604.66986,1620933616.61912,1620933616.62088,1620933618.7199,1620933624.58876,1620933624.59021,1620933625.42337,1620933625.4224,1620933864.09474,1
14,4,1,3,20,7,4,c4_HowHand,1,reaching?,109,H_474.jpg,1620933256.85994,1620933256.87024,345.044723978043,11.9472630023956,356.999181976318,359.099964370728,0.3,366.119249095917,0.866989374160767,366.987411966324,1,left,0.848928928375244,366.986238470078,604.474803676605,607.234803676605,1620933604.66466,1620933604.66986,1620933616.61912,1620933616.62088,1620933618.7199,1620933625.73919,1620933625.74107,1620933626.60735,1620933626.60618,1620933864.09474,1
14,4,1,3,20,8,4,c4_HowHand,2,reaching?,112,H_132.jpg,1620933256.85994,1620933256.87024,345.044723978043,11.9472630023956,356.999181976318,359.099964370728,0.3,367.3030235672,0.967026948928833,368.28324889183,3,right,0.957143783569336,368.270050516129,604.474803676605,607.234803676605,1620933604.66466,1620933604.66986,1620933616.61912,1620933616.62088,1620933618.7199,1620933626.92296,1620933626.92447,1620933627.90319,1620933627.88999,1620933864.09474,0
14,4,1,3,21,1,3,c3_HowFace,1,open mouth?,73,F_403.jpg,1620933256.85994,1620933256.87024,368.353415718079,6.47847127914429,374.839167346954,376.939951648712,2.10078430175781,377.090007772446,0.650241851806641,377.749359836578,1,left,0.630130052566528,377.740249624252,604.474803676605,607.234803676605,1620933627.97335,1620933627.98641,1620933634.45911,1620933634.46992,1620933636.55989,1620933636.70995,1620933636.71975,1620933637.3693,1620933637.36019,1620933864.09474,1
14,4,1,3,21,2,3,c3_HowFace,2,open mouth?,79,F_648.jpg,1620933256.85994,1620933256.87024,368.353415718079,6.47847127914429,374.839167346954,376.939951648712,0.3,378.057033529282,0.683589220046997,378.74989484787,3,right,0.66970419883728,378.740622749329,604.474803676605,607.234803676605,1620933627.97335,1620933627.98641,1620933634.45911,1620933634.46992,1620933636.55989,1620933637.67697,1620933637.67861,1620933638.36983,1620933638.36056,1620933864.09474,0
14,4,1,3,21,3,3,c3_HowFace,1,open mouth?,74,F_776.jpg,1620933256.85994,1620933256.87024,368.353415718079,6.47847127914429,374.839167346954,376.939951648712,0.3,379.057407608032,0.650243520736694,379.709274997711,1,left,0.625814914703369,379.707651128769,604.474803676605,607.234803676605,1620933627.97335,1620933627.98641,1620933634.45911,1620933634.46992,1620933636.55989,1620933638.67735,1620933638.67955,1620933639.32921,1620933639.32759,1620933864.09474,1
14,4,1,3,21,4,3,c3_HowFace,2,open mouth?,77,F_584.jpg,1620933256.85994,1620933256.87024,368.353415718079,6.47847127914429,374.839167346954,376.939951648712,0.3,380.024434318542,0.833644151687622,380.865994920731,3,right,0.823004007339478,380.85807847023,604.474803676605,607.234803676605,1620933627.97335,1620933627.98641,1620933634.45911,1620933634.46992,1620933636.55989,1620933639.64437,1620933639.64623,1620933640.48593,1620933640.47802,1620933864.09474,0
14,4,1,3,21,5,3,c3_HowFace,1,open mouth?,80,F_844.jpg,1620933256.85994,1620933256.87024,368.353415718079,6.47847127914429,374.839167346954,376.939951648712,0.3,381.174864282608,0.733605861663818,381.915910949707,1,left,0.725054979324341,381.908470144272,604.474803676605,607.234803676605,1620933627.97335,1620933627.98641,1620933634.45911,1620933634.46992,1620933636.55989,1620933640.7948,1620933640.79633,1620933641.53585,1620933641.52841,1620933864.09474,1
14,4,1,3,21,6,3,c3_HowFace,1,open mouth?,78,F_692.jpg,1620933256.85994,1620933256.87024,368.353415718079,6.47847127914429,374.839167346954,376.939951648712,0.3,382.225255241394,0.733607769012451,382.966669788361,1,left,0.719747066497803,382.958863010407,604.474803676605,607.234803676605,1620933627.97335,1620933627.98641,1620933634.45911,1620933634.46992,1620933636.55989,1620933641.84519,1620933641.84702,1620933642.58661,1620933642.5788,1620933864.09474,1
14,4,1,3,21,7,3,c3_HowFace,1,open mouth?,75,F_086.jpg,1620933256.85994,1620933256.87024,368.353415718079,6.47847127914429,374.839167346954,376.939951648712,0.3,383.275647392273,0.683588743209839,383.965907802582,1,left,0.671167135238647,383.959236135483,604.474803676605,607.234803676605,1620933627.97335,1620933627.98641,1620933634.45911,1620933634.46992,1620933636.55989,1620933642.89559,1620933642.89701,1620933643.58585,1620933643.57918,1620933864.09474,1
14,4,1,3,21,8,3,c3_HowFace,2,open mouth?,76,F_544.jpg,1620933256.85994,1620933256.87024,368.353415718079,6.47847127914429,374.839167346954,376.939951648712,0.3,384.276020994186,0.917007923126221,385.200196018219,3,right,0.908903837203979,385.193028917313,604.474803676605,607.234803676605,1620933627.97335,1620933627.98641,1620933634.45911,1620933634.46992,1620933636.55989,1620933643.89596,1620933643.89753,1620933644.82014,1620933644.81297,1620933864.09474,0
14,4,1,3,22,1,1,c1_WhyFace,1,argument?,42,F_403.jpg,1620933256.85994,1620933256.87024,385.276393642426,8.23156428337097,393.512798776627,395.61358212471,2.1007833480835,395.763638010025,0.983700037002563,396.74989484787,1,left,0.967544078826904,396.747338047028,604.474803676605,607.234803676605,1620933644.89633,1620933644.90289,1620933653.13274,1620933653.13659,1620933655.23352,1620933655.38358,1620933655.38677,1620933656.36983,1620933656.36728,1620933864.09474,1
14,4,1,3,22,2,1,c1_WhyFace,2,argument?,46,F_844.jpg,1620933256.85994,1620933256.87024,385.276393642426,8.23156428337097,393.512798776627,395.61358212471,0.3,397.064122905731,0.650241613388062,397.716519823074,3,right,0.627663135528564,397.714364519119,604.474803676605,607.234803676605,1620933644.89633,1620933644.90289,1620933653.13274,1620933653.13659,1620933655.23352,1620933656.68406,1620933656.68655,1620933657.33646,1620933657.3343,1620933864.09474,0
14,4,1,3,22,3,1,c1_WhyFace,1,argument?,41,F_712.jpg,1620933256.85994,1620933256.87024,385.276393642426,8.23156428337097,393.512798776627,395.61358212471,0.3,398.03114985466,0.800298929214478,398.832542886734,1,left,0.791089057922363,398.831448783875,604.474803676605,607.234803676605,1620933644.89633,1620933644.90289,1620933653.13274,1620933653.13659,1620933655.23352,1620933657.65109,1620933657.65306,1620933658.45248,1620933658.45139,1620933864.09474,1
14,4,1,3,22,4,1,c1_WhyFace,1,argument?,48,F_758.jpg,1620933256.85994,1620933256.87024,385.276393642426,8.23156428337097,393.512798776627,395.61358212471,0.3,399.14823340416,0.733606576919556,399.883409967422,1,left,0.714576959609985,399.881839981079,604.474803676605,607.234803676605,1620933644.89633,1620933644.90289,1620933653.13274,1620933653.13659,1620933655.23352,1620933658.76817,1620933658.77004,1620933659.50335,1620933659.50178,1620933864.09474,1
14,4,1,3,22,5,1,c1_WhyFace,2,argument?,45,F_433.jpg,1620933256.85994,1620933256.87024,385.276393642426,8.23156428337097,393.512798776627,395.61358212471,0.3,400.198625078201,0.716933727264404,400.916708936691,3,right,0.694005966186523,400.915558805466,604.474803676605,607.234803676605,1620933644.89633,1620933644.90289,1620933653.13274,1620933653.13659,1620933655.23352,1620933659.81856,1620933659.8204,1620933660.53665,1620933660.5355,1620933864.09474,0
14,4,1,3,22,6,1,c1_WhyFace,1,argument?,43,F_716.jpg,1620933256.85994,1620933256.87024,385.276393642426,8.23156428337097,393.512798776627,395.61358212471,0.3,401.232343664169,0.650241136550903,401.883665790558,1,left,0.641238927841187,401.88258480072,604.474803676605,607.234803676605,1620933644.89633,1620933644.90289,1620933653.13274,1620933653.13659,1620933655.23352,1620933660.85228,1620933660.854,1620933661.5036,1620933661.50252,1620933864.09474,1
14,4,1,3,22,7,1,c1_WhyFace,2,argument?,44,F_139.jpg,1620933256.85994,1620933256.87024,385.276393642426,8.23156428337097,393.512798776627,395.61358212471,0.3,402.199370613098,0.766952753067017,402.967422952652,3,right,0.751097917556763,402.966323366165,604.474803676605,607.234803676605,1620933644.89633,1620933644.90289,1620933653.13274,1620933653.13659,1620933655.23352,1620933661.81931,1620933661.82091,1620933662.58736,1620933662.58626,1620933864.09474,0
14,4,1,3,22,8,1,c1_WhyFace,1,argument?,47,F_743.jpg,1620933256.85994,1620933256.87024,385.276393642426,8.23156428337097,393.512798776627,395.61358212471,0.3,403.283108463287,0.733606815338135,404.017759790421,1,left,0.71444296836853,404.016715278625,604.474803676605,607.234803676605,1620933644.89633,1620933644.90289,1620933653.13274,1620933653.13659,1620933655.23352,1620933662.90305,1620933662.90436,1620933663.6377,1620933663.63665,1620933864.09474,1
14,4,1,3,23,1,2,c2_WhyHand,1,helping?,39,H_024.jpg,1620933256.85994,1620933256.87024,404.100080242157,7.62784957885742,411.736261119843,413.837043275833,2.1007821559906,413.987100114822,0.750280380249023,414.749881973267,1,left,0.739254951477051,414.737380495071,604.474803676605,607.234803676605,1620933663.72002,1620933663.7216,1620933671.3562,1620933671.35768,1620933673.45698,1620933673.60704,1620933673.60859,1620933674.36982,1620933674.35732,1620933864.09474,1
14,4,1,3,23,2,2,c2_WhyHand,1,helping?,36,H_349.jpg,1620933256.85994,1620933256.87024,404.100080242157,7.62784957885742,411.736261119843,413.837043275833,0.3,415.054164638519,0.816972255706787,415.872538795471,1,left,0.802824974060059,415.871136894226,604.474803676605,607.234803676605,1620933663.72002,1620933663.7216,1620933671.3562,1620933671.35768,1620933673.45698,1620933674.6741,1620933674.67586,1620933675.49248,1620933675.49108,1620933864.09474,1
14,4,1,3,23,3,2,c2_WhyHand,1,helping?,38,H_077.jpg,1620933256.85994,1620933256.87024,404.100080242157,7.62784957885742,411.736261119843,413.837043275833,0.3,416.18792175293,0.650241613388062,416.850152959824,1,left,0.638835906982422,416.838163366318,604.474803676605,607.234803676605,1620933663.72002,1620933663.7216,1620933671.3562,1620933671.35768,1620933673.45698,1620933675.80786,1620933675.80956,1620933676.47009,1620933676.4581,1620933864.09474,1
14,4,1,3,23,4,2,c2_WhyHand,1,helping?,37,H_474.jpg,1620933256.85994,1620933256.87024,404.100080242157,7.62784957885742,411.736261119843,413.837043275833,0.3,417.154948940277,0.716934204101562,417.87360786438,1,left,0.699265956878662,417.871883144379,604.474803676605,607.234803676605,1620933663.72002,1620933663.7216,1620933671.3562,1620933671.35768,1620933673.45698,1620933676.77489,1620933676.77663,1620933677.49355,1620933677.49182,1620933864.09474,1
14,4,1,3,23,5,2,c2_WhyHand,2,helping?,33,H_091.jpg,1620933256.85994,1620933256.87024,404.100080242157,7.62784957885742,411.736261119843,413.837043275833,0.3,418.188666810989,0.83364462852478,419.023906936646,3,right,0.813305139541626,419.022311439514,604.474803676605,607.234803676605,1620933663.72002,1620933663.7216,1620933671.3562,1620933671.35768,1620933673.45698,1620933677.80861,1620933677.81011,1620933678.64385,1620933678.64225,1620933864.09474,0
14,4,1,3,23,6,2,c2_WhyHand,2,helping?,35,H_159.jpg,1620933256.85994,1620933256.87024,404.100080242157,7.62784957885742,411.736261119843,413.837043275833,0.3,419.339095821381,0.666915893554688,420.007063856125,3,right,0.651276826858521,420.006011714935,604.474803676605,607.234803676605,1620933663.72002,1620933663.7216,1620933671.3562,1620933671.35768,1620933673.45698,1620933678.95903,1620933678.96081,1620933679.627,1620933679.62595,1620933864.09474,0
14,4,1,3,23,7,2,c2_WhyHand,1,helping?,34,H_111.jpg,1620933256.85994,1620933256.87024,404.100080242157,7.62784957885742,411.736261119843,413.837043275833,0.3,420.322796096802,0.733606338500977,421.058025827408,1,left,0.714570045471191,421.056402435303,604.474803676605,607.234803676605,1620933663.72002,1620933663.7216,1620933671.3562,1620933671.35768,1620933673.45698,1620933679.94274,1620933679.94408,1620933680.67796,1620933680.67634,1620933864.09474,1
14,4,1,3,23,8,2,c2_WhyHand,2,helping?,40,H_012.jpg,1620933256.85994,1620933256.87024,404.100080242157,7.62784957885742,411.736261119843,413.837043275833,0.3,421.373188009262,0.866988658905029,422.241916885376,3,right,0.849428176879883,422.240176668167,604.474803676605,607.234803676605,1620933663.72002,1620933663.7216,1620933671.3562,1620933671.35768,1620933673.45698,1620933680.99313,1620933680.99457,1620933681.86186,1620933681.86012,1620933864.09474,0
14,4,1,3,24,1,4,c4_HowHand,1,both hands?,122,H_111.jpg,1620933256.85994,1620933256.87024,422.323541870117,7.47432899475098,429.809667816162,431.910450925827,2.10078310966492,432.060506811142,1.71730589866638,433.924595823288,1,left,1.83769102096558,433.777812709808,604.474803676605,607.234803676605,1620933681.94348,1620933681.9451,1620933689.42961,1620933689.43709,1620933691.53039,1620933691.68045,1620933691.68739,1620933693.54453,1620933693.39775,1620933864.09474,1
14,4,1,3,24,2,4,c4_HowHand,1,both hands?,128,H_027.jpg,1620933256.85994,1620933256.87024,422.323541870117,7.47432899475098,429.809667816162,431.910450925827,0.3,434.094598045349,1.16710233688354,435.262797822952,1,left,1.1461489200592,435.261700382233,604.474803676605,607.234803676605,1620933681.94348,1620933681.9451,1620933689.42961,1620933689.43709,1620933691.53039,1620933693.71454,1620933693.7161,1620933694.88274,1620933694.88164,1620933864.09474,1
14,4,1,3,24,3,4,c4_HowHand,2,both hands?,121,H_091.jpg,1620933256.85994,1620933256.87024,422.323541870117,7.47432899475098,429.809667816162,431.910450925827,0.3,435.578485479355,0.933680772781372,436.515909900665,3,right,0.911813974380493,436.512166252136,604.474803676605,607.234803676605,1620933681.94348,1620933681.9451,1620933689.42961,1620933689.43709,1620933691.53039,1620933695.19842,1620933695.20325,1620933696.13585,1620933696.13211,1620933864.09474,0
14,4,1,3,24,4,4,c4_HowHand,1,both hands?,123,H_167.jpg,1620933256.85994,1620933256.87024,422.323541870117,7.47432899475098,429.809667816162,431.910450925827,0.3,436.82895111084,0.716935157775879,437.549671878815,1,left,0.705582141876221,437.545886268616,604.474803676605,607.234803676605,1620933681.94348,1620933681.9451,1620933689.42961,1620933689.43709,1620933691.53039,1620933696.44889,1620933696.45343,1620933697.16961,1620933697.16583,1620933864.09474,1
14,4,1,3,24,5,4,c4_HowHand,1,both hands?,124,H_581.jpg,1620933256.85994,1620933256.87024,422.323541870117,7.47432899475098,429.809667816162,431.910450925827,0.3,437.862671127319,0.750279426574707,438.616659870148,1,left,0.737406015396118,438.612950553894,604.474803676605,607.234803676605,1620933681.94348,1620933681.9451,1620933689.42961,1620933689.43709,1620933691.53039,1620933697.48261,1620933697.4864,1620933698.2366,1620933698.23289,1620933864.09474,1
14,4,1,3,24,6,4,c4_HowHand,2,both hands?,126,H_159.jpg,1620933256.85994,1620933256.87024,422.323541870117,7.47432899475098,429.809667816162,431.910450925827,0.3,438.929735174179,0.70026159286499,439.632699956894,3,right,0.677359819412231,439.629996767044,604.474803676605,607.234803676605,1620933681.94348,1620933681.9451,1620933689.42961,1620933689.43709,1620933691.53039,1620933698.54967,1620933698.55293,1620933699.25264,1620933699.24994,1620933864.09474,0
14,4,1,3,24,7,4,c4_HowHand,1,both hands?,127,H_349.jpg,1620933256.85994,1620933256.87024,422.323541870117,7.47432899475098,429.809667816162,431.910450925827,0.3,439.946780910492,0.650242805480957,440.599286785126,1,left,0.628693103790283,440.597023715973,604.474803676605,607.234803676605,1620933681.94348,1620933681.9451,1620933689.42961,1620933689.43709,1620933691.53039,1620933699.56672,1620933699.57003,1620933700.21923,1620933700.21696,1620933864.09474,1
14,4,1,3,24,8,4,c4_HowHand,2,both hands?,125,H_627.jpg,1620933256.85994,1620933256.87024,422.323541870117,7.47432899475098,429.809667816162,431.910450925827,0.3,440.913809051514,1.25046563148499,442.165988912582,3,right,1.23518800735474,442.164274682999,604.474803676605,607.234803676605,1620933681.94348,1620933681.9451,1620933689.42961,1620933689.43709,1620933691.53039,1620933700.53375,1620933700.53636,1620933701.78593,1620933701.78421,1620933864.09474,0
14,4,1,3,25,1,2,c2_WhyHand,1,healthy?,18,H_438.jpg,1620933256.85994,1620933256.87024,442.247639408112,5.06734251976013,447.332868566513,449.433652391434,2.10078382492065,449.58370803833,0.866990327835083,450.451799860001,1,left,0.844115018844604,450.450698366165,604.474803676605,607.234803676605,1620933701.86758,1620933701.86979,1620933706.95281,1620933706.9547,1620933709.05359,1620933709.20365,1620933709.20542,1620933710.07174,1620933710.07064,1620933864.09474,1
14,4,1,3,25,2,2,c2_WhyHand,1,healthy?,23,H_364.jpg,1620933256.85994,1620933256.87024,442.247639408112,5.06734251976013,447.332868566513,449.433652391434,0.3,450.76748298645,0.716933488845825,451.485936870575,1,left,0.706079006195068,451.484416475296,604.474803676605,607.234803676605,1620933701.86758,1620933701.86979,1620933706.95281,1620933706.9547,1620933709.05359,1620933710.38742,1620933710.38903,1620933711.10588,1620933711.10436,1620933864.09474,1
14,4,1,3,25,3,2,c2_WhyHand,1,healthy?,17,H_362.jpg,1620933256.85994,1620933256.87024,442.247639408112,5.06734251976013,447.332868566513,449.433652391434,0.3,451.801201334,0.666916131973267,452.469590892792,1,left,0.647203922271729,452.468117465973,604.474803676605,607.234803676605,1620933701.86758,1620933701.86979,1620933706.95281,1620933706.9547,1620933709.05359,1620933711.42114,1620933711.42311,1620933712.08953,1620933712.08806,1620933864.09474,1
14,4,1,3,25,4,2,c2_WhyHand,2,healthy?,24,H_019.jpg,1620933256.85994,1620933256.87024,442.247639408112,5.06734251976013,447.332868566513,449.433652391434,0.3,452.784903039932,0.700260162353516,453.486909856796,3,right,0.679858922958374,453.485163202286,604.474803676605,607.234803676605,1620933701.86758,1620933701.86979,1620933706.95281,1620933706.9547,1620933709.05359,1620933712.40484,1620933712.4066,1620933713.10685,1620933713.1051,1620933864.09474,0
14,4,1,3,25,5,2,c2_WhyHand,1,healthy?,19,H_167.jpg,1620933256.85994,1620933256.87024,442.247639408112,5.06734251976013,447.332868566513,449.433652391434,0.3,453.801947822571,0.650242567062378,454.453153839111,1,left,0.638598918914795,454.452190389633,604.474803676605,607.234803676605,1620933701.86758,1620933701.86979,1620933706.95281,1620933706.9547,1620933709.05359,1620933713.42189,1620933713.42343,1620933714.07309,1620933714.07213,1620933864.09474,1
14,4,1,3,25,6,2,c2_WhyHand,2,healthy?,20,H_007.jpg,1620933256.85994,1620933256.87024,442.247639408112,5.06734251976013,447.332868566513,449.433652391434,0.3,454.768975486755,0.716934204101562,455.499969949722,3,right,0.705060005187988,455.485909690857,604.474803676605,607.234803676605,1620933701.86758,1620933701.86979,1620933706.95281,1620933706.9547,1620933709.05359,1620933714.38891,1620933714.39046,1620933715.11991,1620933715.10585,1620933864.09474,0
14,4,1,3,25,7,2,c2_WhyHand,1,healthy?,21,H_627.jpg,1620933256.85994,1620933256.87024,442.247639408112,5.06734251976013,447.332868566513,449.433652391434,0.3,455.802693834305,0.983701229095459,456.787927856445,1,left,0.968731880187988,456.7863950634,604.474803676605,607.234803676605,1620933701.86758,1620933701.86979,1620933706.95281,1620933706.9547,1620933709.05359,1620933715.42263,1620933715.4246,1620933716.40787,1620933716.40633,1620933864.09474,1
14,4,1,3,25,8,2,c2_WhyHand,2,healthy?,22,H_130.jpg,1620933256.85994,1620933256.87024,442.247639408112,5.06734251976013,447.332868566513,449.433652391434,0.3,457.103178730011,0.683588981628418,457.787803878784,3,right,0.669255018234253,457.786767711639,604.474803676605,607.234803676605,1620933701.86758,1620933701.86979,1620933706.95281,1620933706.9547,1620933709.05359,1620933716.72312,1620933716.72476,1620933717.40774,1620933717.40671,1620933864.09474,0
14,4,1,3,26,1,4,c4_HowHand,1,pressing button?,82,H_126.jpg,1620933256.85994,1620933256.87024,457.870131959915,8.49880504608154,466.373302688599,468.474086751938,2.10078406333923,468.624141683579,0.633569955825806,469.266338815689,1,left,0.612813949584961,469.257711639404,604.474803676605,607.234803676605,1620933717.49007,1620933717.50324,1620933725.99324,1620933726.00295,1620933728.09403,1620933728.24408,1620933728.25267,1620933728.88628,1620933728.87765,1620933864.09474,1
14,4,1,3,26,2,4,c4_HowHand,2,pressing button?,85,H_130.jpg,1620933256.85994,1620933256.87024,457.870131959915,8.49880504608154,466.373302688599,468.474086751938,0.3,469.574497213364,0.600223302841187,470.175761928558,3,right,0.57840895652771,470.174720516205,604.474803676605,607.234803676605,1620933717.49007,1620933717.50324,1620933725.99324,1620933726.00295,1620933728.09403,1620933729.19444,1620933729.19627,1620933729.7957,1620933729.79466,1620933864.09474,0
14,4,1,3,26,3,4,c4_HowHand,1,pressing button?,84,H_483.jpg,1620933256.85994,1620933256.87024,457.870131959915,8.49880504608154,466.373302688599,468.474086751938,0.3,470.491506090164,0.633569240570068,471.133447875977,1,left,0.620468854904175,471.125075330734,604.474803676605,607.234803676605,1620933717.49007,1620933717.50324,1620933725.99324,1620933726.00295,1620933728.09403,1620933730.11145,1620933730.11276,1620933730.75339,1620933730.74501,1620933864.09474,1
14,4,1,3,26,4,4,c4_HowHand,2,pressing button?,87,H_024.jpg,1620933256.85994,1620933256.87024,457.870131959915,8.49880504608154,466.373302688599,468.474086751938,0.3,471.441859235764,0.716934204101562,472.1665229702,3,right,0.709877014160156,472.158793439865,604.474803676605,607.234803676605,1620933717.49007,1620933717.50324,1620933725.99324,1620933726.00295,1620933728.09403,1620933731.0618,1620933731.06346,1620933731.78646,1620933731.77873,1620933864.09474,0
14,4,1,3,26,5,4,c4_HowHand,1,pressing button?,86,H_332.jpg,1620933256.85994,1620933256.87024,457.870131959915,8.49880504608154,466.373302688599,468.474086751938,0.3,472.475578775406,0.616897106170654,473.099668970108,1,left,0.60564398765564,473.092475881577,604.474803676605,607.234803676605,1620933717.49007,1620933717.50324,1620933725.99324,1620933726.00295,1620933728.09403,1620933732.09552,1620933732.09706,1620933732.71961,1620933732.71241,1620933864.09474,1
14,4,1,3,26,6,4,c4_HowHand,1,pressing button?,88,H_019.jpg,1620933256.85994,1620933256.87024,457.870131959915,8.49880504608154,466.373302688599,468.474086751938,0.3,473.409259309769,0.516861200332642,473.933322896957,1,left,0.499975919723511,473.926120510101,604.474803676605,607.234803676605,1620933717.49007,1620933717.50324,1620933725.99324,1620933726.00295,1620933728.09403,1620933733.0292,1620933733.03091,1620933733.55326,1620933733.54606,1620933864.09474,1
14,4,1,3,26,7,4,c4_HowHand,2,pressing button?,81,H_261.jpg,1620933256.85994,1620933256.87024,457.870131959915,8.49880504608154,466.373302688599,468.474086751938,0.3,474.242904891968,0.633568525314331,474.883190860748,3,right,0.621523141860962,474.876473417282,604.474803676605,607.234803676605,1620933717.49007,1620933717.50324,1620933725.99324,1620933726.00295,1620933728.09403,1620933733.86284,1620933733.86469,1620933734.50313,1620933734.49641,1620933864.09474,0
14,4,1,3,26,8,4,c4_HowHand,1,pressing button?,83,H_502.jpg,1620933256.85994,1620933256.87024,457.870131959915,8.49880504608154,466.373302688599,468.474086751938,0.3,475.193258752823,0.583550930023193,475.782735815048,1,left,0.574044942855835,475.776809682846,604.474803676605,607.234803676605,1620933717.49007,1620933717.50324,1620933725.99324,1620933726.00295,1620933728.09403,1620933734.8132,1620933734.8153,1620933735.40267,1620933735.39675,1620933864.09474,1
14,4,1,3,27,1,3,c3_HowFace,1,looking at camera?,60,F_618.jpg,1620933256.85994,1620933256.87024,475.860173931122,8.038822889328,483.913177957535,486.013960351944,2.10078239440918,486.164016475677,1.35050320625305,487.516347875595,1,left,1.33659195899963,487.514519681931,604.474803676605,607.234803676605,1620933735.48011,1620933735.4859,1620933743.53312,1620933743.53682,1620933745.6339,1620933745.78396,1620933745.78663,1620933747.13629,1620933747.13446,1620933864.09474,1
14,4,1,3,27,2,3,c3_HowFace,2,looking at camera?,58,F_754.jpg,1620933256.85994,1620933256.87024,475.860173931122,8.038822889328,483.913177957535,486.013960351944,0.3,487.831305971146,0.967026233673096,488.79935883522,3,right,0.952178001403809,488.798332204819,604.474803676605,607.234803676605,1620933735.48011,1620933735.4859,1620933743.53312,1620933743.53682,1620933745.6339,1620933747.45125,1620933747.45335,1620933748.4193,1620933748.41827,1620933864.09474,0
14,4,1,3,27,3,3,c3_HowFace,1,looking at camera?,59,F_129.jpg,1620933256.85994,1620933256.87024,475.860173931122,8.038822889328,483.913177957535,486.013960351944,0.3,489.11511754036,0.666915416717529,489.783081998825,1,left,0.652626991271973,489.782032957077,604.474803676605,607.234803676605,1620933735.48011,1620933735.4859,1620933743.53312,1620933743.53682,1620933745.6339,1620933748.73506,1620933748.73674,1620933749.40302,1620933749.40197,1620933864.09474,1
14,4,1,3,27,4,3,c3_HowFace,1,looking at camera?,62,F_598.jpg,1620933256.85994,1620933256.87024,475.860173931122,8.038822889328,483.913177957535,486.013960351944,0.3,490.098817577362,0.616895914077759,490.716845979691,1,left,0.599939823150635,490.71571349144,604.474803676605,607.234803676605,1620933735.48011,1620933735.4859,1620933743.53312,1620933743.53682,1620933745.6339,1620933749.71876,1620933749.72003,1620933750.33679,1620933750.33565,1620933864.09474,1
14,4,1,3,27,5,3,c3_HowFace,1,looking at camera?,64,F_128.jpg,1620933256.85994,1620933256.87024,475.860173931122,8.038822889328,483.913177957535,486.013960351944,0.3,491.032499065399,0.566877603530884,491.600327005386,1,left,0.557180166244507,491.59937666893,604.474803676605,607.234803676605,1620933735.48011,1620933735.4859,1620933743.53312,1620933743.53682,1620933745.6339,1620933750.65244,1620933750.65424,1620933751.22027,1620933751.21932,1620933864.09474,1
14,4,1,3,27,6,3,c3_HowFace,2,looking at camera?,57,F_582.jpg,1620933256.85994,1620933256.87024,475.860173931122,8.038822889328,483.913177957535,486.013960351944,0.3,491.916162004471,0.683587312698364,492.600770940781,1,left,0.660560846328735,492.599749317169,604.474803676605,607.234803676605,1620933735.48011,1620933735.4859,1620933743.53312,1620933743.53682,1620933745.6339,1620933751.5361,1620933751.53777,1620933752.22071,1620933752.21969,1620933864.09474,0
14,4,1,3,27,7,3,c3_HowFace,1,looking at camera?,61,F_774.jpg,1620933256.85994,1620933256.87024,475.860173931122,8.038822889328,483.913177957535,486.013960351944,0.3,492.91653465271,0.917009353637695,493.835310926437,1,left,0.901721000671387,493.833544006348,604.474803676605,607.234803676605,1620933735.48011,1620933735.4859,1620933743.53312,1620933743.53682,1620933745.6339,1620933752.53647,1620933752.53812,1620933753.45525,1620933753.45348,1620933864.09474,1
