src_subject_id,session_id,run_id,param_counterbalance_ver,param_block_num,param_trial_num,param_cond_type_num,param_cond_type_string,param_normative_response,param_ques_type_string,param_image_num,param_image_filename,param_trigger_onset,param_start_biopac,event01_fixation,event01_fixation_dur,event01_blockquestion_onset,event01_block_isi_blacksreen,event01_blockquestion_dur,event02_image_onset,event02_image_dur,event03_response_onset,event03_response_key,event03_response_keyname,event03_RT,event04_shortquestion_onset,param_end_instruct_onset,param_experiment_duration,RAW_e1_fixation,RAW_e1_fixation_biopac,RAW_e1_blockquestion_onset,RAW_e1_blockquestion_onset_biopac,RAW_e1_block_isi_blacksreen,RAW_e2_image_onset,RAW_e2_image_onset_biopac,RAW_e3_response_onset,RAW_e4_shortquestion_onset,RAW_param_end_instruct_onset,accuracy
81,4,2,3,1,1,4,c4_HowHand,1,reaching?,107,H_007.jpg,1636052646.21712,1636052646.21934,0.0253109836578367,0.03000807762146,0.0586573982238767,2.10942148208618,2.0507640838623,2.25947832107544,1.50055909156799,3.76188611030579,1,left,1.48326992988586,3.76003741264343,604.467387189865,607.227387189865,1636052649.00243,1636052649.00808,1636052649.03578,1636052649.03688,1636052651.08655,1636052651.2366,1636052651.23837,1636052652.73901,1636052652.73716,1636053253.44451,1
81,4,2,3,1,2,4,c4_HowHand,2,reaching?,108,H_532.jpg,1636052646.21712,1636052646.21934,0.0253109836578367,0.03000807762146,0.0586573982238767,2.10942148208618,0.3,4.07682179450989,0.0166728496551514,4.09473608970642,1,left,0.000672101974487305,4.09349464416504,604.467387189865,607.227387189865,1636052649.00243,1636052649.00808,1636052649.03578,1636052649.03688,1636052651.08655,1636052653.05395,1636052653.0558,1636052653.07186,1636052653.07062,1636053253.44451,0
81,4,2,3,1,3,4,c4_HowHand,1,reaching?,109,H_474.jpg,1636052646.21712,1636052646.21934,0.0253109836578367,0.03000807762146,0.0586573982238767,2.10942148208618,0.3,4.41027997970581,1.7173068523407,6.28853510856628,1,left,1.85728902816772,6.12758683204651,604.467387189865,607.227387189865,1636052649.00243,1636052649.00808,1636052649.03578,1636052649.03688,1636052651.08655,1636052653.3874,1636052653.38947,1636052655.26566,1636052655.10471,1636053253.44451,1
81,4,2,3,1,4,4,c4_HowHand,2,reaching?,105,H_438.jpg,1636052646.21712,1636052646.21934,0.0253109836578367,0.03000807762146,0.0586573982238767,2.10942148208618,0.3,6.44437169075012,0.0166730880737305,6.463228931427,1,left,0.000659942626953125,6.46104477882385,604.467387189865,607.227387189865,1636052649.00243,1636052649.00808,1636052649.03578,1636052649.03688,1636052651.08655,1636052655.4215,1636052655.42324,1636052655.44035,1636052655.43817,1636053253.44451,0
81,4,2,3,1,5,4,c4_HowHand,1,reaching?,110,H_364.jpg,1636052646.21712,1636052646.21934,0.0253109836578367,0.03000807762146,0.0586573982238767,2.10942148208618,0.3,6.77782916069031,1.10041069984436,7.89590190887451,1,left,1.08781409263611,7.87823986053467,604.467387189865,607.227387189865,1636052649.00243,1636052649.00808,1636052649.03578,1636052649.03688,1636052651.08655,1636052655.75495,1636052655.75759,1636052656.87303,1636052656.85536,1636053253.44451,1
81,4,2,3,1,6,4,c4_HowHand,1,reaching?,106,H_006.jpg,1636052646.21712,1636052646.21934,0.0253109836578367,0.03000807762146,0.0586573982238767,2.10942148208618,0.3,8.19502519607544,1.23379302024841,9.43082403182983,1,left,1.20899415016174,9.42881821632385,604.467387189865,607.227387189865,1636052649.00243,1636052649.00808,1636052649.03578,1636052649.03688,1636052651.08655,1636052657.17215,1636052657.17412,1636052658.40795,1636052658.40594,1636053253.44451,1
81,4,2,3,1,7,4,c4_HowHand,1,reaching?,111,H_003.jpg,1636052646.21712,1636052646.21934,0.0253109836578367,0.03000807762146,0.0586573982238767,2.10942148208618,0.3,9.74560283660889,1.16710186004639,10.9267909431458,1,left,1.15838503837585,10.9127046966553,604.467387189865,607.227387189865,1636052649.00243,1636052649.00808,1636052649.03578,1636052649.03688,1636052651.08655,1636052658.72273,1636052658.72491,1636052659.90391,1636052659.88983,1636053253.44451,1
81,4,2,3,1,8,4,c4_HowHand,2,reaching?,112,H_132.jpg,1636052646.21712,1636052646.21934,0.0253109836578367,0.03000807762146,0.0586573982238767,2.10942148208618,0.3,11.2294902706146,0.0166730880737305,11.2472560310364,1,left,0.000345945358276367,11.2461633586884,604.467387189865,607.227387189865,1636052649.00243,1636052649.00808,1636052649.03578,1636052649.03688,1636052651.08655,1636052660.20661,1636052660.20851,1636052660.22438,1636052660.22329,1636053253.44451,0
81,4,2,3,2,1,2,c2_WhyHand,1,healthy?,21,H_627.jpg,1636052646.21712,1636052646.21934,11.3795454406738,6.15155649185181,17.5485129261017,19.6492955589294,2.10078263282776,19.7993519210815,1.7173068523407,21.6889691257477,3,right,1.86845107078552,21.5166587734222,604.467387189865,607.227387189865,1636052660.35667,1636052660.35783,1636052666.52564,1636052666.52732,1636052668.62642,1636052668.77648,1636052668.77934,1636052670.66609,1636052670.49378,1636053253.44451,0
81,4,2,3,2,2,2,c2_WhyHand,1,healthy?,18,H_438.jpg,1636052646.21712,1636052646.21934,11.3795454406738,6.15155649185181,17.5485129261017,19.6492955589294,0.3,21.8334443473816,0.0166726112365723,21.8515291118622,3,right,0.000243902206420898,21.8501169586182,604.467387189865,607.227387189865,1636052660.35667,1636052660.35783,1636052666.52564,1636052666.52732,1636052668.62642,1636052670.81057,1636052670.81213,1636052670.82865,1636052670.82724,1636053253.44451,0
81,4,2,3,2,3,2,c2_WhyHand,1,healthy?,23,H_364.jpg,1636052646.21712,1636052646.21934,11.3795454406738,6.15155649185181,17.5485129261017,19.6492955589294,0.3,22.1669020557404,1.10040974617004,23.2682979011536,1,left,1.07808685302734,23.2673118019104,604.467387189865,607.227387189865,1636052660.35667,1636052660.35783,1636052666.52564,1636052666.52732,1636052668.62642,1636052671.14403,1636052671.14581,1636052672.24542,1636052672.24444,1636053253.44451,1
81,4,2,3,2,4,2,c2_WhyHand,2,healthy?,22,H_130.jpg,1636052646.21712,1636052646.21934,11.3795454406738,6.15155649185181,17.5485129261017,19.6492955589294,0.3,23.5840973758697,1.25046586990356,24.843630065918,3,right,1.23414993286133,24.8345632457733,604.467387189865,607.227387189865,1636052660.35667,1636052660.35783,1636052666.52564,1636052666.52732,1636052668.62642,1636052672.56122,1636052672.56311,1636052673.82075,1636052673.81169,1636053253.44451,0
81,4,2,3,2,5,2,c2_WhyHand,1,healthy?,17,H_362.jpg,1636052646.21712,1636052646.21934,11.3795454406738,6.15155649185181,17.5485129261017,19.6492955589294,0.3,25.1513481044769,1.00037288665771,26.1535060310364,1,left,0.981968879699707,26.1517209911346,604.467387189865,607.227387189865,1636052660.35667,1636052660.35783,1636052666.52564,1636052666.52732,1636052668.62642,1636052674.12847,1636052674.1303,1636052675.13063,1636052675.12884,1636053253.44451,1
81,4,2,3,2,6,2,c2_WhyHand,2,healthy?,20,H_007.jpg,1636052646.21712,1636052646.21934,11.3795454406738,6.15155649185181,17.5485129261017,19.6492955589294,0.3,26.4685058498383,1.50055909156799,27.9701950454712,3,right,1.48257088661194,27.9690649414062,604.467387189865,607.227387189865,1636052660.35667,1636052660.35783,1636052666.52564,1636052666.52732,1636052668.62642,1636052675.44563,1636052675.44735,1636052676.94732,1636052676.94619,1636053253.44451,0
81,4,2,3,2,7,2,c2_WhyHand,1,healthy?,19,H_167.jpg,1636052646.21712,1636052646.21934,11.3795454406738,6.15155649185181,17.5485129261017,19.6492955589294,0.3,28.2858507537842,1.23379325866699,29.5207939052582,1,left,1.21117281913757,29.5196440124512,604.467387189865,607.227387189865,1636052660.35667,1636052660.35783,1636052666.52564,1636052666.52732,1636052668.62642,1636052677.26297,1636052677.26493,1636052678.49792,1636052678.49677,1636053253.44451,1
81,4,2,3,2,8,2,c2_WhyHand,2,healthy?,24,H_019.jpg,1636052646.21712,1636052646.21934,11.3795454406738,6.15155649185181,17.5485129261017,19.6492955589294,0.3,29.8364286327362,1.71730780601501,31.5655319595337,3,right,1.70026416778564,31.5537364387512,604.467387189865,607.227387189865,1636052660.35667,1636052660.35783,1636052666.52564,1636052666.52732,1636052668.62642,1636052678.81355,1636052678.815,1636052680.54266,1636052680.53086,1636053253.44451,0
81,4,2,3,3,1,1,c1_WhyFace,1,admiring?,4,F_779.jpg,1636052646.21712,1636052646.21934,31.6537728214264,4.9854941368103,36.6556382083893,38.7564220333099,2.10078382492065,38.9064781570435,1.25046563148499,40.1599841022491,1,left,1.23878502845764,40.1569437885284,604.467387189865,607.227387189865,1636052680.6309,1636052680.63263,1636052685.63276,1636052685.63785,1636052687.73355,1636052687.8836,1636052687.88781,1636052689.13711,1636052689.13407,1636053253.44451,1
81,4,2,3,3,2,1,c1_WhyFace,1,admiring?,1,F_593.jpg,1636052646.21712,1636052646.21934,31.6537728214264,4.9854941368103,36.6556382083893,38.7564220333099,0.3,40.4737288856506,1.45054149627686,41.926842918396,1,left,1.43654894828796,41.9242703819275,604.467387189865,607.227387189865,1636052680.6309,1636052680.63263,1636052685.63276,1636052685.63785,1636052687.73355,1636052689.45085,1636052689.45408,1636052690.90397,1636052690.90139,1636053253.44451,1
81,4,2,3,3,3,1,c1_WhyFace,2,admiring?,3,F_110.jpg,1636052646.21712,1636052646.21934,31.6537728214264,4.9854941368103,36.6556382083893,38.7564220333099,0.3,42.2410540485382,1.00037431716919,43.2431690597534,3,right,0.979507923126221,43.2414283657074,604.467387189865,607.227387189865,1636052680.6309,1636052680.63263,1636052685.63276,1636052685.63785,1636052687.73355,1636052691.21818,1636052691.22042,1636052692.22029,1636052692.21855,1636053253.44451,0
81,4,2,3,3,4,1,c1_WhyFace,1,admiring?,8,F_590.jpg,1636052646.21712,1636052646.21934,31.6537728214264,4.9854941368103,36.6556382083893,38.7564220333099,0.3,43.5582122707367,0.633569717407227,44.1929430866241,1,left,0.612963199615479,44.1917819881439,604.467387189865,607.227387189865,1636052680.6309,1636052680.63263,1636052685.63276,1636052685.63785,1636052687.73355,1636052692.53534,1636052692.53705,1636052693.17007,1636052693.16891,1636053253.44451,1
81,4,2,3,3,5,1,c1_WhyFace,2,admiring?,6,F_692.jpg,1636052646.21712,1636052646.21934,31.6537728214264,4.9854941368103,36.6556382083893,38.7564220333099,0.3,44.5085663700104,1.71730756759644,46.4921159648895,1,left,1.96324510574341,46.2258739376068,604.467387189865,607.227387189865,1636052680.6309,1636052680.63263,1636052685.63276,1636052685.63785,1636052687.73355,1636052693.48569,1636052693.48733,1636052695.46924,1636052695.203,1636053253.44451,0
81,4,2,3,3,6,1,c1_WhyFace,1,admiring?,5,F_759.jpg,1636052646.21712,1636052646.21934,31.6537728214264,4.9854941368103,36.6556382083893,38.7564220333099,0.3,46.5426571273804,0.016674280166626,46.5607709789276,1,left,0.000179052352905273,46.559331407547,604.467387189865,607.227387189865,1636052680.6309,1636052680.63263,1636052685.63276,1636052685.63785,1636052687.73355,1636052695.51978,1636052695.52083,1636052695.53789,1636052695.53646,1636053253.44451,1
81,4,2,3,3,7,1,c1_WhyFace,1,admiring?,7,F_648.jpg,1636052646.21712,1636052646.21934,31.6537728214264,4.9854941368103,36.6556382083893,38.7564220333099,0.3,46.876116027832,1.18377494812012,48.0614540481567,1,left,1.16101217269897,48.0598909759522,604.467387189865,607.227387189865,1636052680.6309,1636052680.63263,1636052685.63276,1636052685.63785,1636052687.73355,1636052695.85324,1636052695.85491,1636052697.03858,1636052697.03701,1636053253.44451,1
81,4,2,3,3,8,1,c1_WhyFace,2,admiring?,2,F_129.jpg,1636052646.21712,1636052646.21934,31.6537728214264,4.9854941368103,36.6556382083893,38.7564220333099,0.3,48.3766760730743,0.950353622436523,49.3428320789337,1,left,0.943279981613159,49.3270296955109,604.467387189865,607.227387189865,1636052680.6309,1636052680.63263,1636052685.63276,1636052685.63785,1636052687.73355,1636052697.3538,1636052697.35534,1636052698.31996,1636052698.30415,1636053253.44451,0
81,4,2,3,4,1,3,c3_HowFace,1,smiling?,119,F_139.jpg,1636052646.21712,1636052646.21934,49.4103948974609,6.19277119636536,55.6127078437805,57.713491191864,2.1007833480835,57.863547077179,1.26713871955872,59.1324810886383,1,left,1.24439191818237,59.1306857967377,604.467387189865,607.227387189865,1636052698.38752,1636052698.38946,1636052704.58983,1636052704.5913,1636052706.69062,1636052706.84067,1636052706.84255,1636052708.10961,1636052708.10781,1636053253.44451,1
81,4,2,3,4,2,3,c3_HowFace,2,smiling?,113,F_712.jpg,1636052646.21712,1636052646.21934,49.4103948974609,6.19277119636536,55.6127078437805,57.713491191864,0.3,59.4474711322784,1.03371906280518,60.4821998977661,3,right,1.01808476448059,60.4811901950836,604.467387189865,607.227387189865,1636052698.38752,1636052698.38946,1636052704.58983,1636052704.5913,1636052706.69062,1636052708.4246,1636052708.42619,1636052709.45932,1636052709.45831,1636053253.44451,0
81,4,2,3,4,3,3,c3_HowFace,1,smiling?,115,F_695.jpg,1636052646.21712,1636052646.21934,49.4103948974609,6.19277119636536,55.6127078437805,57.713491191864,0.3,60.7979743385315,0.833644390106201,61.6335499191284,1,left,0.809739112854004,61.6316187286377,604.467387189865,607.227387189865,1636052698.38752,1636052698.38946,1636052704.58983,1636052704.5913,1636052706.69062,1636052709.7751,1636052709.77707,1636052710.61067,1636052710.60874,1636053253.44451,1
81,4,2,3,4,4,3,c3_HowFace,2,smiling?,120,F_758.jpg,1636052646.21712,1636052646.21934,49.4103948974609,6.19277119636536,55.6127078437805,57.713491191864,0.3,61.9484040641785,0.0166726112365723,61.9665501022339,1,left,0.000501155853271484,61.965076675415,604.467387189865,607.227387189865,1636052698.38752,1636052698.38946,1636052704.58983,1636052704.5913,1636052706.69062,1636052710.92553,1636052710.92763,1636052710.94367,1636052710.9422,1636053253.44451,0
81,4,2,3,4,5,3,c3_HowFace,1,smiling?,116,F_083.jpg,1636052646.21712,1636052646.21934,49.4103948974609,6.19277119636536,55.6127078437805,57.713491191864,0.3,62.2818605804443,0.833644390106201,63.117298116684,1,left,0.818259000778198,63.1155049705505,604.467387189865,607.227387189865,1636052698.38752,1636052698.38946,1636052704.58983,1636052704.5913,1636052706.69062,1636052711.25898,1636052711.26132,1636052712.09442,1636052712.09263,1636053253.44451,1
81,4,2,3,4,6,3,c3_HowFace,1,smiling?,118,F_759.jpg,1636052646.21712,1636052646.21934,49.4103948974609,6.19277119636536,55.6127078437805,57.713491191864,0.3,63.432289352417,1.71730852127075,NaN,0,NA,0,65.1495978736877,604.467387189865,607.227387189865,1636052698.38752,1636052698.38946,1636052704.58983,1636052704.5913,1636052706.69062,1636052712.40941,1636052712.41113,NaN,1636052714.12672,1636053253.44451,0
81,4,2,3,4,7,3,c3_HowFace,2,smiling?,114,F_412.jpg,1636052646.21712,1636052646.21934,49.4103948974609,6.19277119636536,55.6127078437805,57.713491191864,0.3,65.4663829708099,0.983698844909668,66.4517819786072,3,right,0.96256422996521,66.4500818157196,604.467387189865,607.227387189865,1636052698.38752,1636052698.38946,1636052704.58983,1636052704.5913,1636052706.69062,1636052714.44351,1636052714.44506,1636052715.42891,1636052715.42721,1636053253.44451,0
81,4,2,3,4,8,3,c3_HowFace,1,smiling?,117,F_593.jpg,1636052646.21712,1636052646.21934,49.4103948974609,6.19277119636536,55.6127078437805,57.713491191864,0.3,66.7668671512604,0.900336265563965,67.6762089633942,1,left,0.891337871551514,67.6672034168243,604.467387189865,607.227387189865,1636052698.38752,1636052698.38946,1636052704.58983,1636052704.5913,1636052706.69062,1636052715.74399,1636052715.74582,1636052716.65333,1636052716.64433,1636053253.44451,1
81,4,2,3,5,1,4,c4_HowHand,1,lifting?,56,H_136.jpg,1636052646.21712,1636052646.21934,67.7505669498444,5.38317203521729,73.1525816822052,75.2366926574707,2.0841109752655,75.4034213924408,1.18377494812012,76.5936190986633,1,left,1.1681821346283,76.5871963405609,604.467387189865,607.227387189865,1636052716.72769,1636052716.7304,1636052722.12971,1636052722.13283,1636052724.21382,1636052724.38055,1636052724.38248,1636052725.57074,1636052725.56432,1636053253.44451,1
81,4,2,3,5,2,4,c4_HowHand,2,lifting?,51,H_038.jpg,1636052646.21712,1636052646.21934,67.7505669498444,5.38317203521729,73.1525816822052,75.2366926574707,0.3,76.9039807224274,1.11708307266235,78.0267650985718,3,right,1.10358905792236,78.0210637950897,604.467387189865,607.227387189865,1636052716.72769,1636052716.7304,1636052722.12971,1636052722.13283,1636052724.21382,1636052725.8811,1636052725.88256,1636052727.00389,1636052726.99819,1636053253.44451,0
81,4,2,3,5,3,4,c4_HowHand,1,lifting?,52,H_189.jpg,1636052646.21712,1636052646.21934,67.7505669498444,5.38317203521729,73.1525816822052,75.2366926574707,0.3,78.3378491306305,1.03371906280518,79.37685297966,1,left,1.02287197113037,79.3715681934357,604.467387189865,607.227387189865,1636052716.72769,1636052716.7304,1636052722.12971,1636052722.13283,1636052724.21382,1636052727.31497,1636052727.31682,1636052728.35398,1636052728.34869,1636053253.44451,1
81,4,2,3,5,4,4,c4_HowHand,2,lifting?,53,H_077.jpg,1636052646.21712,1636052646.21934,67.7505669498444,5.38317203521729,73.1525816822052,75.2366926574707,0.3,79.6883530521393,1.43386816978455,81.1267619037628,3,right,1.42455005645752,81.1222212219238,604.467387189865,607.227387189865,1636052716.72769,1636052716.7304,1636052722.12971,1636052722.13283,1636052724.21382,1636052728.66548,1636052728.66723,1636052730.10389,1636052730.09935,1636053253.44451,0
81,4,2,3,5,5,4,c4_HowHand,1,lifting?,50,H_443.jpg,1636052646.21712,1636052646.21934,67.7505669498444,5.38317203521729,73.1525816822052,75.2366926574707,0.3,81.439006319046,0.900335073471069,82.3404400253296,1,left,0.875119924545288,82.3393413925171,604.467387189865,607.227387189865,1636052716.72769,1636052716.7304,1636052722.12971,1636052722.13283,1636052724.21382,1636052730.41613,1636052730.42066,1636052731.31756,1636052731.31647,1636053253.44451,1
81,4,2,3,5,6,4,c4_HowHand,2,lifting?,55,H_012.jpg,1636052646.21712,1636052646.21934,67.7505669498444,5.38317203521729,73.1525816822052,75.2366926574707,0.3,82.656125535965,0.0166738033294678,82.6768810653686,1,left,0.000618934631347656,82.6727993392944,604.467387189865,607.227387189865,1636052716.72769,1636052716.7304,1636052722.12971,1636052722.13283,1636052724.21382,1636052731.63325,1636052731.63726,1636052731.65401,1636052731.64992,1636053253.44451,0
81,4,2,3,5,7,4,c4_HowHand,1,lifting?,49,H_362.jpg,1636052646.21712,1636052646.21934,67.7505669498444,5.38317203521729,73.1525816822052,75.2366926574707,0.3,82.9895839595795,1.08373713493347,84.0768470668793,1,left,1.06080508232117,84.0733210945129,604.467387189865,607.227387189865,1636052716.72769,1636052716.7304,1636052722.12971,1636052722.13283,1636052724.21382,1636052731.96671,1636052731.97091,1636052733.05397,1636052733.05045,1636053253.44451,1
81,4,2,3,5,8,4,c4_HowHand,1,lifting?,54,H_170.jpg,1636052646.21712,1636052646.21934,67.7505669498444,5.38317203521729,73.1525816822052,75.2366926574707,0.3,84.3901064300537,1.45054054260254,85.8435130023956,1,left,1.44001293182373,85.8406469726562,604.467387189865,607.227387189865,1636052716.72769,1636052716.7304,1636052722.12971,1636052722.13283,1636052724.21382,1636052733.36723,1636052733.37068,1636052734.82064,1636052734.81777,1636053253.44451,1
81,4,2,3,6,1,2,c2_WhyHand,1,helping?,38,H_077.jpg,1636052646.21712,1636052646.21934,85.9073393249512,9.70758867263794,95.6276295089722,97.7284142875671,2.10078477859497,97.8784701728821,1.71730589866638,99.8179371261597,1,left,1.91890997886658,99.5957760715485,604.467387189865,607.227387189865,1636052734.88446,1636052734.88658,1636052744.60475,1636052744.60651,1636052746.70554,1636052746.85559,1636052746.8576,1636052748.79506,1636052748.5729,1636053253.44451,1
81,4,2,3,6,2,2,c2_WhyHand,1,helping?,36,H_349.jpg,1636052646.21712,1636052646.21934,85.9073393249512,9.70758867263794,95.6276295089722,97.7284142875671,0.3,99.9125616455078,0.0166723728179932,99.9310030841827,1,left,0.000246047973632812,99.9292340183258,604.467387189865,607.227387189865,1636052734.88446,1636052734.88658,1636052744.60475,1636052744.60651,1636052746.70554,1636052748.88969,1636052748.89128,1636052748.90813,1636052748.90636,1636053253.44451,1
81,4,2,3,6,3,2,c2_WhyHand,1,helping?,37,H_474.jpg,1636052646.21712,1636052646.21934,85.9073393249512,9.70758867263794,95.6276295089722,97.7284142875671,0.3,100.246018877029,1.63394331932068,101.88160490036,3,right,1.61990594863892,101.87996219635,604.467387189865,607.227387189865,1636052734.88446,1636052734.88658,1636052744.60475,1636052744.60651,1636052746.70554,1636052749.22314,1636052749.22532,1636052750.85873,1636052750.85709,1636053253.44451,0
81,4,2,3,6,4,2,c2_WhyHand,1,helping?,39,H_024.jpg,1636052646.21712,1636052646.21934,85.9073393249512,9.70758867263794,95.6276295089722,97.7284142875671,0.3,102.196746101379,1.26713967323303,103.464899053574,1,left,1.25180578231812,103.463885774612,604.467387189865,607.227387189865,1636052734.88446,1636052734.88658,1636052744.60475,1636052744.60651,1636052746.70554,1636052751.17387,1636052751.1759,1636052752.44202,1636052752.44101,1636053253.44451,1
81,4,2,3,6,5,2,c2_WhyHand,2,helping?,40,H_012.jpg,1636052646.21712,1636052646.21934,85.9073393249512,9.70758867263794,95.6276295089722,97.7284142875671,0.3,103.780670871735,1.71730756759644,NaN,0,NA,0,105.497978439331,604.467387189865,607.227387189865,1636052734.88446,1636052734.88658,1636052744.60475,1636052744.60651,1636052746.70554,1636052752.75779,1636052752.75934,NaN,1636052754.4751,1636053253.44451,0
81,4,2,3,6,6,2,c2_WhyHand,2,helping?,35,H_159.jpg,1636052646.21712,1636052646.21934,85.9073393249512,9.70758867263794,95.6276295089722,97.7284142875671,0.3,105.814762582779,1.66728806495667,107.483144989014,3,right,1.65245914459229,107.482050647736,604.467387189865,607.227387189865,1636052734.88446,1636052734.88658,1636052744.60475,1636052744.60651,1636052746.70554,1636052754.79189,1636052754.7937,1636052756.46027,1636052756.45917,1636053253.44451,0
81,4,2,3,6,7,2,c2_WhyHand,1,helping?,34,H_111.jpg,1636052646.21712,1636052646.21934,85.9073393249512,9.70758867263794,95.6276295089722,97.7284142875671,0.3,107.798836221695,1.08373689651489,108.883639087677,1,left,1.06311082839966,108.88257311821,604.467387189865,607.227387189865,1636052734.88446,1636052734.88658,1636052744.60475,1636052744.60651,1636052746.70554,1636052756.77596,1636052756.77782,1636052757.86076,1636052757.8597,1636053253.44451,1
81,4,2,3,6,8,2,c2_WhyHand,2,helping?,33,H_091.jpg,1636052646.21712,1636052646.21934,85.9073393249512,9.70758867263794,95.6276295089722,97.7284142875671,0.3,109.199357976913,0.933680772781372,110.142851104736,1,left,0.921170949935913,110.133038749695,604.467387189865,607.227387189865,1636052734.88446,1636052734.88658,1636052744.60475,1636052744.60651,1636052746.70554,1636052758.17648,1636052758.17823,1636052759.11998,1636052759.11016,1636053253.44451,0
81,4,2,3,7,1,1,c1_WhyFace,1,proud?,104,F_598.jpg,1636052646.21712,1636052646.21934,110.199731340408,3.29016661643982,113.500961532593,115.601746072769,2.10078454017639,115.751801958084,1.36717653274536,117.120666017532,1,left,1.33577585220337,117.118978490829,604.467387189865,607.227387189865,1636052759.17686,1636052759.18676,1636052762.47809,1636052762.48735,1636052764.57887,1636052764.72893,1636052764.73762,1636052766.09779,1636052766.0961,1636053253.44451,1
81,4,2,3,7,2,1,c1_WhyFace,2,proud?,102,F_760.jpg,1636052646.21712,1636052646.21934,110.199731340408,3.29016661643982,113.500961532593,115.601746072769,0.3,117.435763111114,0.833643674850464,118.270422925949,3,right,0.812994956970215,118.269406785965,604.467387189865,607.227387189865,1636052759.17686,1636052759.18676,1636052762.47809,1636052762.48735,1636052764.57887,1636052766.41289,1636052766.41494,1636052767.24755,1636052767.24653,1636053253.44451,0
81,4,2,3,7,3,1,c1_WhyFace,1,proud?,97,F_582.jpg,1636052646.21712,1636052646.21934,110.199731340408,3.29016661643982,113.500961532593,115.601746072769,0.3,118.586192359924,0.900335311889648,119.487587919235,1,left,0.877734184265137,119.486527671814,604.467387189865,607.227387189865,1636052759.17686,1636052759.18676,1636052762.47809,1636052762.48735,1636052764.57887,1636052767.56332,1636052767.56524,1636052768.46471,1636052768.46365,1636053253.44451,1
81,4,2,3,7,4,1,c1_WhyFace,2,proud?,98,F_412.jpg,1636052646.21712,1636052646.21934,110.199731340408,3.29016661643982,113.500961532593,115.601746072769,0.3,119.803311576843,0.816972017288208,120.626187076569,3,right,0.808615922927856,120.620283594131,604.467387189865,607.227387189865,1636052759.17686,1636052759.18676,1636052762.47809,1636052762.48735,1636052764.57887,1636052768.78044,1636052768.78205,1636052769.60331,1636052769.59741,1636053253.44451,0
81,4,2,3,7,5,1,c1_WhyFace,1,proud?,101,F_083.jpg,1636052646.21712,1636052646.21934,110.199731340408,3.29016661643982,113.500961532593,115.601746072769,0.3,120.937067737579,1.06706571578979,122.00951789856,1,left,1.05613994598389,122.004133453369,604.467387189865,607.227387189865,1636052759.17686,1636052759.18676,1636052762.47809,1636052762.48735,1636052764.57887,1636052769.91419,1636052769.91627,1636052770.98664,1636052770.98126,1636053253.44451,1
81,4,2,3,7,6,1,c1_WhyFace,2,proud?,100,F_776.jpg,1636052646.21712,1636052646.21934,110.199731340408,3.29016661643982,113.500961532593,115.601746072769,0.3,122.320917835236,1.56725096702576,123.893384923935,3,right,1.55971384048462,123.888168802261,604.467387189865,607.227387189865,1636052759.17686,1636052759.18676,1636052762.47809,1636052762.48735,1636052764.57887,1636052771.29804,1636052771.30002,1636052772.87051,1636052772.86529,1636053253.44451,0
81,4,2,3,7,7,1,c1_WhyFace,1,proud?,103,F_618.jpg,1636052646.21712,1636052646.21934,110.199731340408,3.29016661643982,113.500961532593,115.601746072769,0.3,124.204952707291,0.650240659713745,124.859440078735,1,left,0.642709016799927,124.855193367004,604.467387189865,607.227387189865,1636052759.17686,1636052759.18676,1636052762.47809,1636052762.48735,1636052764.57887,1636052773.18208,1636052773.18366,1636052773.83656,1636052773.83232,1636053253.44451,1
81,4,2,3,7,8,1,c1_WhyFace,1,proud?,99,F_695.jpg,1636052646.21712,1636052646.21934,110.199731340408,3.29016661643982,113.500961532593,115.601746072769,0.3,125.17198132515,1.71730661392212,127.03759311676,1,left,1.84241409301758,126.889287939072,604.467387189865,607.227387189865,1636052759.17686,1636052759.18676,1636052762.47809,1636052762.48735,1636052764.57887,1636052774.14911,1636052774.15355,1636052776.01472,1636052775.86641,1636053253.44451,1
81,4,2,3,8,1,3,c3_HowFace,1,looking to side?,72,F_590.jpg,1636052646.21712,1636052646.21934,127.106035938263,3.91400909423828,131.024163713455,133.12494682312,2.10078310966492,133.275003423691,1.31715750694275,134.594030132294,1,left,1.30748009681702,134.592160930634,604.467387189865,607.227387189865,1636052776.08316,1636052776.08722,1636052780.00129,1636052780.00395,1636052782.10207,1636052782.25213,1636052782.2541,1636052783.57115,1636052783.56928,1636053253.44451,1
81,4,2,3,8,2,3,c3_HowFace,1,looking to side?,71,F_433.jpg,1636052646.21712,1636052646.21934,127.106035938263,3.91400909423828,131.024163713455,133.12494682312,0.3,134.908945550919,0.716934680938721,135.626801958084,1,left,0.707492113113403,135.625880231857,604.467387189865,607.227387189865,1636052776.08316,1636052776.08722,1636052780.00129,1636052780.00395,1636052782.10207,1636052783.88607,1636052783.88783,1636052784.60393,1636052784.603,1636053253.44451,1
81,4,2,3,8,3,3,c3_HowFace,1,looking to side?,67,F_716.jpg,1636052646.21712,1636052646.21934,127.106035938263,3.91400909423828,131.024163713455,133.12494682312,0.3,135.942664613724,0.766952037811279,136.710640897751,1,left,0.753135919570923,136.709616651535,604.467387189865,607.227387189865,1636052776.08316,1636052776.08722,1636052780.00129,1636052780.00395,1636052782.10207,1636052784.91979,1636052784.92142,1636052785.68776,1636052785.68674,1636053253.44451,1
81,4,2,3,8,4,3,c3_HowFace,2,looking to side?,70,F_779.jpg,1636052646.21712,1636052646.21934,127.106035938263,3.91400909423828,131.024163713455,133.12494682312,0.3,137.026401748657,1.2504665851593,138.278667917252,3,right,1.23371005058289,138.276868333817,604.467387189865,607.227387189865,1636052776.08316,1636052776.08722,1636052780.00129,1636052780.00395,1636052782.10207,1636052786.00353,1636052786.00504,1636052787.25579,1636052787.25399,1636053253.44451,0
81,4,2,3,8,5,3,c3_HowFace,1,looking to side?,68,F_760.jpg,1636052646.21712,1636052646.21934,127.106035938263,3.91400909423828,131.024163713455,133.12494682312,0.3,138.593652954102,1.05039191246033,139.659526100159,3,right,1.04382109642029,139.644044866562,604.467387189865,607.227387189865,1636052776.08316,1636052776.08722,1636052780.00129,1636052780.00395,1636052782.10207,1636052787.57078,1636052787.57233,1636052788.63665,1636052788.62117,1636053253.44451,0
81,4,2,3,8,6,3,c3_HowFace,2,looking to side?,66,F_111.jpg,1636052646.21712,1636052646.21934,127.106035938263,3.91400909423828,131.024163713455,133.12494682312,0.3,139.960829963684,1.20044732093811,141.162342061996,3,right,1.18241596221924,141.161277284622,604.467387189865,607.227387189865,1636052776.08316,1636052776.08722,1636052780.00129,1636052780.00395,1636052782.10207,1636052788.93795,1636052788.93939,1636052790.13947,1636052790.1384,1636053253.44451,0
81,4,2,3,8,7,3,c3_HowFace,1,looking to side?,69,F_110.jpg,1636052646.21712,1636052646.21934,127.106035938263,3.91400909423828,131.024163713455,133.12494682312,0.3,141.478062143326,0.933682203292847,142.413579931259,1,left,0.910000085830688,142.411744346619,604.467387189865,607.227387189865,1636052776.08316,1636052776.08722,1636052780.00129,1636052780.00395,1636052782.10207,1636052790.45519,1636052790.45683,1636052791.3907,1636052791.38887,1636053253.44451,1
81,4,2,3,8,8,3,c3_HowFace,2,looking to side?,65,F_798.jpg,1636052646.21712,1636052646.21934,127.106035938263,3.91400909423828,131.024163713455,133.12494682312,0.3,142.728529443741,1.28381204605103,144.026823987961,3,right,1.27603507041931,144.012341489792,604.467387189865,607.227387189865,1636052776.08316,1636052776.08722,1636052780.00129,1636052780.00395,1636052782.10207,1636052791.70565,1636052791.70692,1636052793.00395,1636052792.98947,1636053253.44451,0
81,4,2,3,9,1,1,c1_WhyFace,1,argument?,43,F_716.jpg,1636052646.21712,1636052646.21934,144.095705022812,6.03226494789124,150.131288280487,152.232072820663,2.10078454017639,152.382127990723,1.7173068523407,154.319095125198,1,left,1.9071008682251,154.099434843063,604.467387189865,607.227387189865,1636052793.07283,1636052793.07391,1636052799.10841,1636052799.12085,1636052801.2092,1636052801.35925,1636052801.37099,1636052803.29622,1636052803.07656,1636053253.44451,1
81,4,2,3,9,2,1,c1_WhyFace,2,argument?,44,F_139.jpg,1636052646.21712,1636052646.21934,144.095705022812,6.03226494789124,150.131288280487,152.232072820663,0.3,154.416220417023,0.0166723728179932,154.434368124008,1,left,0.000274896621704102,154.432892789841,604.467387189865,607.227387189865,1636052793.07283,1636052793.07391,1636052799.10841,1636052799.12085,1636052801.2092,1636052803.39334,1636052803.39482,1636052803.41149,1636052803.41002,1636053253.44451,0
81,4,2,3,9,3,1,c1_WhyFace,1,argument?,41,F_712.jpg,1636052646.21712,1636052646.21934,144.095705022812,6.03226494789124,150.131288280487,152.232072820663,0.3,154.749677171707,1.06706547737122,155.818318119049,3,right,1.0494430065155,155.816742649078,604.467387189865,607.227387189865,1636052793.07283,1636052793.07391,1636052799.10841,1636052799.12085,1636052801.2092,1636052803.7268,1636052803.72843,1636052804.79544,1636052804.79387,1636053253.44451,0
81,4,2,3,9,4,1,c1_WhyFace,2,argument?,45,F_433.jpg,1636052646.21712,1636052646.21934,144.095705022812,6.03226494789124,150.131288280487,152.232072820663,0.3,156.133527030945,1.08373808860779,157.226994028091,3,right,1.07491493225098,157.217265119553,604.467387189865,607.227387189865,1636052793.07283,1636052793.07391,1636052799.10841,1636052799.12085,1636052801.2092,1636052805.11065,1636052805.11277,1636052806.20412,1636052806.19439,1636053253.44451,0
81,4,2,3,9,5,1,c1_WhyFace,1,argument?,42,F_403.jpg,1636052646.21712,1636052646.21934,144.095705022812,6.03226494789124,150.131288280487,152.232072820663,0.3,157.534050931931,0.883662700653076,158.418931951523,1,left,0.862418174743652,158.417713632584,604.467387189865,607.227387189865,1636052793.07283,1636052793.07391,1636052799.10841,1636052799.12085,1636052801.2092,1636052806.51117,1636052806.51313,1636052807.39606,1636052807.39484,1636053253.44451,1
81,4,2,3,9,6,1,c1_WhyFace,2,argument?,46,F_844.jpg,1636052646.21712,1636052646.21934,144.095705022812,6.03226494789124,150.131288280487,152.232072820663,0.3,158.734496583939,1.15042805671692,159.886583080292,3,right,1.12938404083252,159.884924640656,604.467387189865,607.227387189865,1636052793.07283,1636052793.07391,1636052799.10841,1636052799.12085,1636052801.2092,1636052807.71162,1636052807.71326,1636052808.86371,1636052808.86205,1636053253.44451,0
81,4,2,3,9,7,1,c1_WhyFace,1,argument?,47,F_743.jpg,1636052646.21712,1636052646.21934,144.095705022812,6.03226494789124,150.131288280487,152.232072820663,0.3,160.201710929871,1.00037312507629,161.210133066177,1,left,0.98664402961731,161.202084054947,604.467387189865,607.227387189865,1636052793.07283,1636052793.07391,1636052799.10841,1636052799.12085,1636052801.2092,1636052809.17883,1636052809.18041,1636052810.18726,1636052810.17921,1636053253.44451,1
81,4,2,3,9,8,1,c1_WhyFace,1,argument?,48,F_758.jpg,1636052646.21712,1636052646.21934,144.095705022812,6.03226494789124,150.131288280487,152.232072820663,0.3,161.518868675232,1.15042924880981,162.67622303009,1,left,1.13411784172058,162.669297924042,604.467387189865,607.227387189865,1636052793.07283,1636052793.07391,1636052799.10841,1636052799.12085,1636052801.2092,1636052810.49599,1636052810.49798,1636052811.65335,1636052811.64642,1636053253.44451,1
81,4,2,3,10,1,3,c3_HowFace,1,open mouth?,80,F_844.jpg,1636052646.21712,1636052646.21934,162.735988607407,5.23193430900574,167.971274604797,170.072058906555,2.10078430175781,170.222114315033,0.816971778869629,171.043369998932,1,left,0.793787002563477,171.039086093903,604.467387189865,607.227387189865,1636052811.71311,1636052811.72061,1636052816.9484,1636052816.95393,1636052819.04918,1636052819.19924,1636052819.20404,1636052820.02049,1636052820.01621,1636053253.44451,1
81,4,2,3,10,2,3,c3_HowFace,1,open mouth?,74,F_776.jpg,1636052646.21712,1636052646.21934,162.735988607407,5.23193430900574,167.971274604797,170.072058906555,0.3,171.355870714188,0.633569717407227,171.993336906433,1,left,0.615721940994263,171.989440431595,604.467387189865,607.227387189865,1636052811.71311,1636052811.72061,1636052816.9484,1636052816.95393,1636052819.04918,1636052820.33299,1636052820.33721,1636052820.97046,1636052820.96656,1636053253.44451,1
81,4,2,3,10,3,3,c3_HowFace,2,open mouth?,76,F_544.jpg,1636052646.21712,1636052646.21934,162.735988607407,5.23193430900574,167.971274604797,170.072058906555,0.3,172.306225290298,0.933681726455688,173.242805948257,3,right,0.923650026321411,173.239907016754,604.467387189865,607.227387189865,1636052811.71311,1636052811.72061,1636052816.9484,1636052816.95393,1636052819.04918,1636052821.28335,1636052821.28743,1636052822.21993,1636052822.21703,1636053253.44451,0
81,4,2,3,10,4,3,c3_HowFace,1,open mouth?,78,F_692.jpg,1636052646.21712,1636052646.21934,162.735988607407,5.23193430900574,167.971274604797,170.072058906555,0.3,173.556692113876,1.08373641967773,174.642858018875,1,left,1.06685400009155,174.640428533554,604.467387189865,607.227387189865,1636052811.71311,1636052811.72061,1636052816.9484,1636052816.95393,1636052819.04918,1636052822.53382,1636052822.5374,1636052823.61998,1636052823.61755,1636053253.44451,1
81,4,2,3,10,5,3,c3_HowFace,2,open mouth?,77,F_584.jpg,1636052646.21712,1636052646.21934,162.735988607407,5.23193430900574,167.971274604797,170.072058906555,0.3,174.957213392258,0.0166738033294678,174.976907958984,1,left,0.000261068344116211,174.973887195587,604.467387189865,607.227387189865,1636052811.71311,1636052811.72061,1636052816.9484,1636052816.95393,1636052819.04918,1636052823.93434,1636052823.93862,1636052823.95403,1636052823.95101,1636053253.44451,0
81,4,2,3,10,6,3,c3_HowFace,1,open mouth?,73,F_403.jpg,1636052646.21712,1636052646.21934,162.735988607407,5.23193430900574,167.971274604797,170.072058906555,0.3,175.290671577454,1.03371858596802,176.326699008942,1,left,1.02101516723633,176.324390163422,604.467387189865,607.227387189865,1636052811.71311,1636052811.72061,1636052816.9484,1636052816.95393,1636052819.04918,1636052824.2678,1636052824.27087,1636052825.30382,1636052825.30151,1636053253.44451,1
81,4,2,3,10,7,3,c3_HowFace,1,open mouth?,75,F_086.jpg,1636052646.21712,1636052646.21934,162.735988607407,5.23193430900574,167.971274604797,170.072058906555,0.3,176.641175260544,1.06706500053406,177.709429016113,1,left,1.05626702308655,177.708240261078,604.467387189865,607.227387189865,1636052811.71311,1636052811.72061,1636052816.9484,1636052816.95393,1636052819.04918,1636052825.6183,1636052825.62067,1636052826.68655,1636052826.68536,1636053253.44451,1
81,4,2,3,10,8,3,c3_HowFace,2,open mouth?,79,F_648.jpg,1636052646.21712,1636052646.21934,162.735988607407,5.23193430900574,167.971274604797,170.072058906555,0.3,178.025024881363,0.983700513839722,179.010493030548,3,right,0.968019008636475,179.008725395203,604.467387189865,607.227387189865,1636052811.71311,1636052811.72061,1636052816.9484,1636052816.95393,1636052819.04918,1636052827.00215,1636052827.00426,1636052827.98762,1636052827.98585,1636053253.44451,0
81,4,2,3,11,1,4,c4_HowHand,1,pressing button?,88,H_019.jpg,1636052646.21712,1636052646.21934,179.075416078568,6.78248000144958,185.861280193329,187.962064256668,2.10078406333923,188.112119188309,1.10041069984436,189.213681926727,1,left,1.06916308403015,189.212529888153,604.467387189865,607.227387189865,1636052828.05254,1636052828.05343,1636052834.8384,1636052834.85424,1636052836.93919,1636052837.08924,1636052837.10403,1636052838.19081,1636052838.18965,1636053253.44451,1
81,4,2,3,11,2,4,c4_HowHand,2,pressing button?,87,H_024.jpg,1636052646.21712,1636052646.21934,179.075416078568,6.78248000144958,185.861280193329,187.962064256668,0.3,189.529314985275,1.7173068523407,NaN,0,NA,0,191.246621837616,604.467387189865,607.227387189865,1636052828.05254,1636052828.05343,1636052834.8384,1636052834.85424,1636052836.93919,1636052838.50644,1636052838.50813,NaN,1636052840.22375,1636053253.44451,0
81,4,2,3,11,3,4,c4_HowHand,2,pressing button?,85,H_130.jpg,1636052646.21712,1636052646.21934,179.075416078568,6.78248000144958,185.861280193329,187.962064256668,0.3,191.563407173157,0.950353622436523,192.526619901657,3,right,0.938836097717285,192.513760795593,604.467387189865,607.227387189865,1636052828.05254,1636052828.05343,1636052834.8384,1636052834.85424,1636052836.93919,1636052840.54053,1636052840.54206,1636052841.50374,1636052841.49088,1636053253.44451,0
81,4,2,3,11,4,4,c4_HowHand,1,pressing button?,83,H_502.jpg,1636052646.21712,1636052646.21934,179.075416078568,6.78248000144958,185.861280193329,187.962064256668,0.3,192.830546131134,0.816970586776733,193.649357070923,1,left,0.797200918197632,193.647516717911,604.467387189865,607.227387189865,1636052828.05254,1636052828.05343,1636052834.8384,1636052834.85424,1636052836.93919,1636052841.80767,1636052841.80968,1636052842.62648,1636052842.62464,1636053253.44451,1
81,4,2,3,11,5,4,c4_HowHand,2,pressing button?,81,H_261.jpg,1636052646.21712,1636052646.21934,179.075416078568,6.78248000144958,185.861280193329,187.962064256668,0.3,193.964301815033,0.933681011199951,194.899130096436,3,right,0.91254186630249,194.897982826233,604.467387189865,607.227387189865,1636052828.05254,1636052828.05343,1636052834.8384,1636052834.85424,1636052836.93919,1636052842.94143,1636052842.94299,1636052843.87625,1636052843.87511,1636053253.44451,0
81,4,2,3,11,6,4,c4_HowHand,1,pressing button?,86,H_332.jpg,1636052646.21712,1636052646.21934,179.075416078568,6.78248000144958,185.861280193329,187.962064256668,0.3,195.214769115448,0.766952037811279,195.983847131729,1,left,0.744179010391235,195.981721153259,604.467387189865,607.227387189865,1636052828.05254,1636052828.05343,1636052834.8384,1636052834.85424,1636052836.93919,1636052844.19189,1636052844.19348,1636052844.96097,1636052844.95885,1636053253.44451,1
81,4,2,3,11,7,4,c4_HowHand,1,pressing button?,82,H_126.jpg,1636052646.21712,1636052646.21934,179.075416078568,6.78248000144958,185.861280193329,187.962064256668,0.3,196.298505773544,1.06706404685974,197.376193037033,1,left,1.05479383468628,197.365569820404,604.467387189865,607.227387189865,1636052828.05254,1636052828.05343,1636052834.8384,1636052834.85424,1636052836.93919,1636052845.27563,1636052845.27721,1636052846.35332,1636052846.34269,1636053253.44451,1
81,4,2,3,11,8,4,c4_HowHand,1,pressing button?,84,H_483.jpg,1636052646.21712,1636052646.21934,179.075416078568,6.78248000144958,185.861280193329,187.962064256668,0.3,197.682356348038,1.55057764053345,199.243593921661,3,right,1.5379810333252,199.232933988571,604.467387189865,607.227387189865,1636052828.05254,1636052828.05343,1636052834.8384,1636052834.85424,1636052836.93919,1636052846.65948,1636052846.66114,1636052848.22072,1636052848.21006,1636053253.44451,0
81,4,2,3,12,1,2,c2_WhyHand,1,competing?,9,H_261.jpg,1636052646.21712,1636052646.21934,199.332970848084,4.3149631023407,203.651247968674,205.752032270432,2.10078430175781,205.902087440491,1.30048441886902,207.204148998261,1,left,1.27212405204773,207.20257185936,604.467387189865,607.227387189865,1636052848.31009,1636052848.32072,1636052852.62837,1636052852.6377,1636052854.72916,1636052854.87921,1636052854.88739,1636052856.18127,1636052856.1797,1636053253.44451,1
81,4,2,3,12,2,2,c2_WhyHand,2,competing?,12,H_483.jpg,1636052646.21712,1636052646.21934,199.332970848084,4.3149631023407,203.651247968674,205.752032270432,0.3,207.519356718063,1.5339047908783,209.060120096207,3,right,1.51669716835022,209.053261508942,604.467387189865,607.227387189865,1636052848.31009,1636052848.32072,1636052852.62837,1636052852.6377,1636052854.72916,1636052856.49648,1636052856.49817,1636052858.03724,1636052858.03039,1636053253.44451,0
81,4,2,3,12,3,2,c2_WhyHand,1,competing?,14,H_132.jpg,1636052646.21712,1636052646.21934,199.332970848084,4.3149631023407,203.651247968674,205.752032270432,0.3,209.370047082901,0.783624887466431,210.160210123062,1,left,0.765299081802368,210.153671970367,604.467387189865,607.227387189865,1636052848.31009,1636052848.32072,1636052852.62837,1636052852.6377,1636052854.72916,1636052858.34717,1636052858.34881,1636052859.13733,1636052859.1308,1636053253.44451,1
81,4,2,3,12,4,2,c2_WhyHand,2,competing?,10,H_126.jpg,1636052646.21712,1636052646.21934,199.332970848084,4.3149631023407,203.651247968674,205.752032270432,0.3,210.470457782745,1.00037312507629,211.476804008484,3,right,0.984512090682983,211.470830907822,604.467387189865,607.227387189865,1636052848.31009,1636052848.32072,1636052852.62837,1636052852.6377,1636052854.72916,1636052859.44758,1636052859.44899,1636052860.45393,1636052860.44795,1636053253.44451,0
81,4,2,3,12,5,2,c2_WhyHand,1,competing?,16,H_136.jpg,1636052646.21712,1636052646.21934,199.332970848084,4.3149631023407,203.651247968674,205.752032270432,0.3,211.787616004944,0.950354099273682,212.742916097641,1,left,0.936553001403809,212.737970104218,604.467387189865,607.227387189865,1636052848.31009,1636052848.32072,1636052852.62837,1636052852.6377,1636052854.72916,1636052860.76474,1636052860.7664,1636052861.72004,1636052861.71509,1636053253.44451,1
81,4,2,3,12,6,2,c2_WhyHand,2,competing?,11,H_502.jpg,1636052646.21712,1636052646.21934,199.332970848084,4.3149631023407,203.651247968674,205.752032270432,0.3,213.054755439758,1.25046539306641,214.31016992569,3,right,1.23256897926331,214.305220832825,604.467387189865,607.227387189865,1636052848.31009,1636052848.32072,1636052852.62837,1636052852.6377,1636052854.72916,1636052862.03188,1636052862.03344,1636052863.28729,1636052863.28234,1636053253.44451,0
81,4,2,3,12,7,2,c2_WhyHand,1,competing?,13,H_003.jpg,1636052646.21712,1636052646.21934,199.332970848084,4.3149631023407,203.651247968674,205.752032270432,0.3,214.622006168365,0.716933488845825,215.342916955948,1,left,0.699866056442261,215.338939657211,604.467387189865,607.227387189865,1636052848.31009,1636052848.32072,1636052852.62837,1636052852.6377,1636052854.72916,1636052863.59913,1636052863.60092,1636052864.32004,1636052864.31606,1636053253.44451,1
81,4,2,3,12,8,2,c2_WhyHand,1,competing?,15,H_170.jpg,1636052646.21712,1636052646.21934,199.332970848084,4.3149631023407,203.651247968674,205.752032270432,0.3,215.655725231171,0.733606815338135,216.392802944183,1,left,0.723467111587524,216.389332046509,604.467387189865,607.227387189865,1636052848.31009,1636052848.32072,1636052852.62837,1636052852.6377,1636052854.72916,1636052864.63285,1636052864.63716,1636052865.36993,1636052865.36646,1636053253.44451,1
81,4,2,3,13,1,1,c1_WhyFace,1,self-doubt?,29,F_544.jpg,1636052646.21712,1636052646.21934,216.472696533203,5.24518656730652,221.724654903412,223.825438013077,2.10078310966492,223.975493898392,1.20044851303101,225.177604904175,1,left,1.18104195594788,225.175942411423,604.467387189865,607.227387189865,1636052865.44982,1636052865.45331,1636052870.70178,1636052870.70392,1636052872.80256,1636052872.95262,1636052872.95467,1636052874.15473,1636052874.15307,1636053253.44451,1
81,4,2,3,13,2,1,c1_WhyFace,2,self-doubt?,27,F_086.jpg,1636052646.21712,1636052646.21934,216.472696533203,5.24518656730652,221.724654903412,223.825438013077,0.3,225.492725601196,0.917009830474854,226.410861959457,3,right,0.898566007614136,226.409735431671,604.467387189865,607.227387189865,1636052865.44982,1636052865.45331,1636052870.70178,1636052870.70392,1636052872.80256,1636052874.46985,1636052874.4717,1636052875.38799,1636052875.38686,1636053253.44451,0
81,4,2,3,13,3,1,c1_WhyFace,1,self-doubt?,25,F_798.jpg,1636052646.21712,1636052646.21934,216.472696533203,5.24518656730652,221.724654903412,223.825438013077,0.3,226.726520290375,0.933680772781372,227.662012090683,1,left,0.91751503944397,227.660201063156,604.467387189865,607.227387189865,1636052865.44982,1636052865.45331,1636052870.70178,1636052870.70392,1636052872.80256,1636052875.70364,1636052875.70532,1636052876.63914,1636052876.63733,1636053253.44451,1
81,4,2,3,13,4,1,c1_WhyFace,1,self-doubt?,26,F_111.jpg,1636052646.21712,1636052646.21934,216.472696533203,5.24518656730652,221.724654903412,223.825438013077,0.3,227.976986398697,0.816970586776733,228.795823087692,1,left,0.801624059677124,228.793956985474,604.467387189865,607.227387189865,1636052865.44982,1636052865.45331,1636052870.70178,1636052870.70392,1636052872.80256,1636052876.95411,1636052876.95595,1636052877.77295,1636052877.77108,1636053253.44451,1
81,4,2,3,13,5,1,c1_WhyFace,2,self-doubt?,31,F_774.jpg,1636052646.21712,1636052646.21934,216.472696533203,5.24518656730652,221.724654903412,223.825438013077,0.3,229.110742559433,0.883662462234497,230.009583940506,3,right,0.876721858978271,229.994405021667,604.467387189865,607.227387189865,1636052865.44982,1636052865.45331,1636052870.70178,1636052870.70392,1636052872.80256,1636052878.08787,1636052878.0899,1636052878.98671,1636052878.97153,1636053253.44451,0
81,4,2,3,13,6,1,c1_WhyFace,1,self-doubt?,28,F_754.jpg,1636052646.21712,1636052646.21934,216.472696533203,5.24518656730652,221.724654903412,223.825438013077,0.3,230.311190357208,1.70063328742981,232.013433923721,3,right,1.68465995788574,232.011823644638,604.467387189865,607.227387189865,1636052865.44982,1636052865.45331,1636052870.70178,1636052870.70392,1636052872.80256,1636052879.28831,1636052879.28958,1636052880.99056,1636052880.98895,1636053253.44451,0
81,4,2,3,13,7,1,c1_WhyFace,2,self-doubt?,32,F_128.jpg,1636052646.21712,1636052646.21934,216.472696533203,5.24518656730652,221.724654903412,223.825438013077,0.3,232.32860874176,1.3338315486908,233.663861980438,3,right,1.32286906242371,233.662440290451,604.467387189865,607.227387189865,1636052865.44982,1636052865.45331,1636052870.70178,1636052870.70392,1636052872.80256,1636052881.30573,1636052881.30703,1636052882.64099,1636052882.63956,1636053253.44451,0
81,4,2,3,13,8,1,c1_WhyFace,1,self-doubt?,30,F_584.jpg,1636052646.21712,1636052646.21934,216.472696533203,5.24518656730652,221.724654903412,223.825438013077,0.3,233.979224910736,1.71730709075928,NaN,0,NA,0,235.696532001495,604.467387189865,607.227387189865,1636052865.44982,1636052865.45331,1636052870.70178,1636052870.70392,1636052872.80256,1636052882.95635,1636052882.95772,NaN,1636052884.67366,1636053253.44451,0
81,4,2,3,14,1,3,c3_HowFace,1,looking at camera?,64,F_128.jpg,1636052646.21712,1636052646.21934,236.046664705276,4.72557830810547,240.78176068306,242.882544984818,2.10078430175781,243.03260134697,1.25046563148499,244.284671058655,1,left,1.22844290733337,244.283066978455,604.467387189865,607.227387189865,1636052885.02379,1636052885.02495,1636052889.75888,1636052889.77183,1636052891.85967,1636052892.00973,1636052892.01184,1636052893.2618,1636052893.26019,1636053253.44451,1
81,4,2,3,14,2,3,c3_HowFace,1,looking at camera?,60,F_618.jpg,1636052646.21712,1636052646.21934,236.046664705276,4.72557830810547,240.78176068306,242.882544984818,0.3,244.599851837158,0.933682680130005,245.54291390419,1,left,0.924292087554932,245.533534517288,604.467387189865,607.227387189865,1636052885.02379,1636052885.02495,1636052889.75888,1636052889.77183,1636052891.85967,1636052893.57698,1636052893.57836,1636052894.52004,1636052894.51066,1636053253.44451,1
81,4,2,3,14,3,3,c3_HowFace,1,looking at camera?,62,F_598.jpg,1636052646.21712,1636052646.21934,236.046664705276,4.72557830810547,240.78176068306,242.882544984818,0.3,245.850318183899,0.866989850997925,246.718374958038,1,left,0.850563049316406,246.717308034897,604.467387189865,607.227387189865,1636052885.02379,1636052885.02495,1636052889.75888,1636052889.77183,1636052891.85967,1636052894.82744,1636052894.82924,1636052895.6955,1636052895.69443,1636053253.44451,1
81,4,2,3,14,4,3,c3_HowFace,2,looking at camera?,63,F_743.jpg,1636052646.21712,1636052646.21934,236.046664705276,4.72557830810547,240.78176068306,242.882544984818,0.3,247.0340928936,0.666914701461792,247.702789058685,3,right,0.649049997329712,247.701007595062,604.467387189865,607.227387189865,1636052885.02379,1636052885.02495,1636052889.75888,1636052889.77183,1636052891.85967,1636052896.01122,1636052896.0128,1636052896.67991,1636052896.67813,1636053253.44451,0
81,4,2,3,14,5,3,c3_HowFace,1,looking at camera?,61,F_774.jpg,1636052646.21712,1636052646.21934,236.046664705276,4.72557830810547,240.78176068306,242.882544984818,0.3,248.017792930603,0.70026159286499,248.719218006134,1,left,0.677864074707031,248.718054523468,604.467387189865,607.227387189865,1636052885.02379,1636052885.02495,1636052889.75888,1636052889.77183,1636052891.85967,1636052896.99492,1636052896.99684,1636052897.69634,1636052897.69518,1636053253.44451,1
81,4,2,3,14,6,3,c3_HowFace,2,looking at camera?,57,F_582.jpg,1636052646.21712,1636052646.21934,236.046664705276,4.72557830810547,240.78176068306,242.882544984818,0.3,249.034839143753,0.967026710510254,250.00363492012,3,right,0.94917893409729,250.001865854263,604.467387189865,607.227387189865,1636052885.02379,1636052885.02495,1636052889.75888,1636052889.77183,1636052891.85967,1636052898.01196,1636052898.01365,1636052898.98076,1636052898.97899,1636053253.44451,0
81,4,2,3,14,7,3,c3_HowFace,2,looking at camera?,58,F_754.jpg,1636052646.21712,1636052646.21934,236.046664705276,4.72557830810547,240.78176068306,242.882544984818,0.3,250.318650951386,0.783626556396484,251.104044904709,3,right,0.760791063308716,251.102277507782,604.467387189865,607.227387189865,1636052885.02379,1636052885.02495,1636052889.75888,1636052889.77183,1636052891.85967,1636052899.29577,1636052899.2977,1636052900.08117,1636052900.0794,1636053253.44451,0
81,4,2,3,14,8,3,c3_HowFace,1,looking at camera?,59,F_129.jpg,1636052646.21712,1636052646.21934,236.046664705276,4.72557830810547,240.78176068306,242.882544984818,0.3,251.419062604904,0.933680534362793,252.359731903076,1,left,0.920460939407349,252.352743139267,604.467387189865,607.227387189865,1636052885.02379,1636052885.02495,1636052889.75888,1636052889.77183,1636052891.85967,1636052900.39619,1636052900.39785,1636052901.33686,1636052901.32987,1636053253.44451,1
81,4,2,3,15,1,4,c4_HowHand,1,both hands?,123,H_167.jpg,1636052646.21712,1636052646.21934,252.43610786438,7.12579607963562,259.572102537155,261.672884454727,2.10078191757202,261.822942008972,1.7173068523407,NaN,0,NA,0,263.540248861313,604.467387189865,607.227387189865,1636052901.41323,1636052901.41494,1636052908.54923,1636052908.55417,1636052910.65001,1636052910.80007,1636052910.80386,NaN,1636052912.51737,1636053253.44451,0
81,4,2,3,15,2,4,c4_HowHand,2,both hands?,121,H_091.jpg,1636052646.21712,1636052646.21934,252.43610786438,7.12579607963562,259.572102537155,261.672884454727,0.3,263.857032527924,1.18377494812012,265.042763938904,3,right,1.17562294006348,265.040807476044,604.467387189865,607.227387189865,1636052901.41323,1636052901.41494,1636052908.54923,1636052908.55417,1636052910.65001,1636052912.83416,1636052912.8366,1636052914.01989,1636052914.01793,1636053253.44451,0
81,4,2,3,15,3,4,c4_HowHand,2,both hands?,125,H_627.jpg,1636052646.21712,1636052646.21934,252.43610786438,7.12579607963562,259.572102537155,261.672884454727,0.3,265.357592811584,1.2171196937561,266.576839914322,3,right,1.19961380958557,266.574712505341,604.467387189865,607.227387189865,1636052901.41323,1636052901.41494,1636052908.54923,1636052908.55417,1636052910.65001,1636052914.33472,1636052914.33715,1636052915.55396,1636052915.55184,1636053253.44451,0
81,4,2,3,15,4,4,c4_HowHand,1,both hands?,128,H_027.jpg,1636052646.21712,1636052646.21934,252.43610786438,7.12579607963562,259.572102537155,261.672884454727,0.3,266.8914980793,0.950355291366577,267.84368013382,1,left,0.928640842437744,267.841853370667,604.467387189865,607.227387189865,1636052901.41323,1636052901.41494,1636052908.54923,1636052908.55417,1636052910.65001,1636052915.86862,1636052915.87066,1636052916.8208,1636052916.81898,1636053253.44451,1
81,4,2,3,15,5,4,c4_HowHand,1,both hands?,122,H_111.jpg,1636052646.21712,1636052646.21934,252.43610786438,7.12579607963562,259.572102537155,261.672884454727,0.3,268.158636798859,1.00037455558777,269.160325040817,1,left,0.982558965682983,269.159011354446,604.467387189865,607.227387189865,1636052901.41323,1636052901.41494,1636052908.54923,1636052908.55417,1636052910.65001,1636052917.13576,1636052917.13775,1636052918.13745,1636052918.13614,1636053253.44451,1
81,4,2,3,15,6,4,c4_HowHand,2,both hands?,126,H_159.jpg,1636052646.21712,1636052646.21934,252.43610786438,7.12579607963562,259.572102537155,261.672884454727,0.3,269.475795497894,0.95035457611084,270.427768936157,3,right,0.928431034088135,270.426150074005,604.467387189865,607.227387189865,1636052901.41323,1636052901.41494,1636052908.54923,1636052908.55417,1636052910.65001,1636052918.45292,1636052918.45444,1636052919.40489,1636052919.40327,1636053253.44451,0
81,4,2,3,15,7,4,c4_HowHand,1,both hands?,124,H_581.jpg,1636052646.21712,1636052646.21934,252.43610786438,7.12579607963562,259.572102537155,261.672884454727,0.3,270.742935647964,1.38384795188904,272.128528108597,1,left,1.36070203781128,272.126783599854,604.467387189865,607.227387189865,1636052901.41323,1636052901.41494,1636052908.54923,1636052908.55417,1636052910.65001,1636052919.72006,1636052919.72185,1636052921.10565,1636052921.10391,1636053253.44451,1
81,4,2,3,15,8,4,c4_HowHand,1,both hands?,127,H_349.jpg,1636052646.21712,1636052646.21934,252.43610786438,7.12579607963562,259.572102537155,261.672884454727,0.3,272.443568458557,0.0166735649108887,272.461697092056,1,left,0.000206947326660156,272.460242023468,604.467387189865,607.227387189865,1636052901.41323,1636052901.41494,1636052908.54923,1636052908.55417,1636052910.65001,1636052921.42069,1636052921.42214,1636052921.43882,1636052921.43737,1636053253.44451,1
81,4,2,3,16,1,2,c2_WhyHand,1,self-protection?,89,H_443.jpg,1636052646.21712,1636052646.21934,272.543606748581,5.80837416648865,278.362442722321,280.463225355148,2.10078263282776,280.6132817173,0.950354814529419,281.564901103973,1,left,0.935861110687256,281.56363653183,604.467387189865,607.227387189865,1636052921.52073,1636052921.52235,1636052927.33957,1636052927.34166,1636052929.44035,1636052929.59041,1636052929.5924,1636052930.54203,1636052930.54076,1636053253.44451,1
81,4,2,3,16,2,2,c2_WhyHand,2,self-protection?,90,H_006.jpg,1636052646.21712,1636052646.21934,272.543606748581,5.80837416648865,278.362442722321,280.463225355148,0.3,281.880421867371,0.833643198013306,282.726858129501,3,right,0.823827981948853,282.714065065384,604.467387189865,607.227387189865,1636052921.52073,1636052921.52235,1636052927.33957,1636052927.34166,1636052929.44035,1636052930.85755,1636052930.8591,1636052931.70398,1636052931.69119,1636053253.44451,0
81,4,2,3,16,3,2,c2_WhyHand,1,self-protection?,91,H_581.jpg,1636052646.21712,1636052646.21934,272.543606748581,5.80837416648865,278.362442722321,280.463225355148,0.3,283.030850162506,1.1337559223175,284.166300048828,1,left,1.11318397521973,284.164606084824,604.467387189865,607.227387189865,1636052921.52073,1636052921.52235,1636052927.33957,1636052927.34166,1636052929.44035,1636052932.00797,1636052932.00934,1636052933.14342,1636052933.14173,1636053253.44451,1
81,4,2,3,16,4,2,c2_WhyHand,2,self-protection?,92,H_532.jpg,1636052646.21712,1636052646.21934,272.543606748581,5.80837416648865,278.362442722321,280.463225355148,0.3,284.48139046669,1.11708450317383,285.61033200264,3,right,1.10803580284119,285.598474969864,604.467387189865,607.227387189865,1636052921.52073,1636052921.52235,1636052927.33957,1636052927.34166,1636052929.44035,1636052933.45851,1636052933.46059,1636052934.58746,1636052934.5756,1636053253.44451,0
81,4,2,3,16,5,2,c2_WhyHand,1,self-protection?,96,H_027.jpg,1636052646.21712,1636052646.21934,272.543606748581,5.80837416648865,278.362442722321,280.463225355148,0.3,285.915259590149,1.00037217140198,286.916768064499,1,left,0.982946157455444,286.915631761551,604.467387189865,607.227387189865,1636052921.52073,1636052921.52235,1636052927.33957,1636052927.34166,1636052929.44035,1636052934.89238,1636052934.89402,1636052935.89389,1636052935.89276,1636053253.44451,1
81,4,2,3,16,6,2,c2_WhyHand,1,self-protection?,93,H_038.jpg,1636052646.21712,1636052646.21934,272.543606748581,5.80837416648865,278.362442722321,280.463225355148,0.3,287.232416381836,1.23379492759705,288.476239910126,1,left,1.22172403335571,288.466211309433,604.467387189865,607.227387189865,1636052921.52073,1636052921.52235,1636052927.33957,1636052927.34166,1636052929.44035,1636052936.20954,1636052936.21112,1636052937.45336,1636052937.44334,1636053253.44451,1
81,4,2,3,16,7,2,c2_WhyHand,2,self-protection?,95,H_332.jpg,1636052646.21712,1636052646.21934,272.543606748581,5.80837416648865,278.362442722321,280.463225355148,0.3,288.782996168137,1.26713895797729,290.060290088654,3,right,1.25314378738403,290.050135126114,604.467387189865,607.227387189865,1636052921.52073,1636052921.52235,1636052927.33957,1636052927.34166,1636052929.44035,1636052937.76012,1636052937.762,1636052939.03741,1636052939.02726,1636053253.44451,0
81,4,2,3,16,8,2,c2_WhyHand,1,self-protection?,94,H_189.jpg,1636052646.21712,1636052646.21934,272.543606748581,5.80837416648865,278.362442722321,280.463225355148,0.3,290.366919746399,0.967027425765991,291.334950914383,1,left,0.947214841842651,291.333947172165,604.467387189865,607.227387189865,1636052921.52073,1636052921.52235,1636052927.33957,1636052927.34166,1636052929.44035,1636052939.34404,1636052939.34592,1636052940.31207,1636052940.31107,1636053253.44451,1
81,4,2,3,17,1,3,c3_HowFace,1,smiling?,118,F_759.jpg,1636052646.21712,1636052646.21934,291.400638332367,8.43133878707886,299.83711766243,301.937901248932,2.10078358650208,302.087956180573,1.03372001647949,303.126599063873,1,left,1.02017307281494,303.121676197052,604.467387189865,607.227387189865,1636052940.37776,1636052940.38745,1636052948.81424,1636052948.82135,1636052950.91503,1636052951.06508,1636052951.07086,1636052952.10372,1636052952.0988,1636053253.44451,1
81,4,2,3,17,2,3,c3_HowFace,2,smiling?,114,F_412.jpg,1636052646.21712,1636052646.21934,291.400638332367,8.43133878707886,299.83711766243,301.937901248932,0.3,303.438460578918,0.0166721343994141,303.460658063889,1,left,0.000348091125488281,303.455132713318,604.467387189865,607.227387189865,1636052940.37776,1636052940.38745,1636052948.81424,1636052948.82135,1636052950.91503,1636052952.41558,1636052952.4174,1636052952.43778,1636052952.43226,1636053253.44451,0
81,4,2,3,17,3,3,c3_HowFace,1,smiling?,117,F_593.jpg,1636052646.21712,1636052646.21934,291.400638332367,8.43133878707886,299.83711766243,301.937901248932,0.3,303.77191781044,0.917009353637695,304.690675010681,1,left,0.890780925750732,304.688927164078,604.467387189865,607.227387189865,1636052940.37776,1636052940.38745,1636052948.81424,1636052948.82135,1636052950.91503,1636052952.74904,1636052952.75419,1636052953.6678,1636052953.66605,1636053253.44451,1
81,4,2,3,17,4,3,c3_HowFace,2,smiling?,113,F_712.jpg,1636052646.21712,1636052646.21934,291.400638332367,8.43133878707886,299.83711766243,301.937901248932,0.3,305.0057122612,0.700260639190674,305.709485044479,3,right,0.688072919845581,305.705972900391,604.467387189865,607.227387189865,1636052940.37776,1636052940.38745,1636052948.81424,1636052948.82135,1636052950.91503,1636052953.98284,1636052953.98731,1636052954.68661,1636052954.6831,1636053253.44451,0
81,4,2,3,17,5,3,c3_HowFace,1,smiling?,115,F_695.jpg,1636052646.21712,1636052646.21934,291.400638332367,8.43133878707886,299.83711766243,301.937901248932,0.3,306.02275847435,0.75027871131897,306.776366939545,1,left,0.736762046813965,306.773037185669,604.467387189865,607.227387189865,1636052940.37776,1636052940.38745,1636052948.81424,1636052948.82135,1636052950.91503,1636052954.99988,1636052955.00393,1636052955.75349,1636052955.75016,1636053253.44451,1
81,4,2,3,17,6,3,c3_HowFace,1,smiling?,119,F_139.jpg,1636052646.21712,1636052646.21934,291.400638332367,8.43133878707886,299.83711766243,301.937901248932,0.3,307.089821805954,1.35050415992737,308.443576087952,1,left,1.33811902999878,308.440325965881,604.467387189865,607.227387189865,1636052940.37776,1636052940.38745,1636052948.81424,1636052948.82135,1636052950.91503,1636052956.06695,1636052956.07025,1636052957.4207,1636052957.41745,1636053253.44451,1
81,4,2,3,17,7,3,c3_HowFace,1,smiling?,116,F_083.jpg,1636052646.21712,1636052646.21934,291.400638332367,8.43133878707886,299.83711766243,301.937901248932,0.3,308.757110109329,0.633569478988647,309.393768062592,1,left,0.612811088562012,309.390679588318,604.467387189865,607.227387189865,1636052940.37776,1636052940.38745,1636052948.81424,1636052948.82135,1636052950.91503,1636052957.73423,1636052957.73742,1636052958.37089,1636052958.3678,1636053253.44451,1
81,4,2,3,17,8,3,c3_HowFace,2,smiling?,120,F_758.jpg,1636052646.21712,1636052646.21934,291.400638332367,8.43133878707886,299.83711766243,301.937901248932,0.3,309.707465162277,0.800299167633057,310.510227909088,3,right,0.784953832626343,310.50776432991,604.467387189865,607.227387189865,1636052940.37776,1636052940.38745,1636052948.81424,1636052948.82135,1636052950.91503,1636052958.68459,1636052958.68722,1636052959.48735,1636052959.48489,1636053253.44451,0
81,4,2,3,18,1,1,c1_WhyFace,1,admiring?,1,F_593.jpg,1636052646.21712,1636052646.21934,310.574455490112,7.04744958877563,317.627085199356,319.727869024277,2.10078382492065,319.87792514801,1.7173068523407,NaN,0,NA,0,321.595232000351,604.467387189865,607.227387189865,1636052959.55158,1636052959.5533,1636052966.60421,1636052966.6213,1636052968.70499,1636052968.85505,1636052968.85667,NaN,1636052970.57236,1636053253.44451,0
81,4,2,3,18,2,1,c1_WhyFace,2,admiring?,2,F_129.jpg,1636052646.21712,1636052646.21934,310.574455490112,7.04744958877563,317.627085199356,319.727869024277,0.3,321.912015666962,1.05039262771606,322.976819982529,3,right,1.04453802108765,322.962408294678,604.467387189865,607.227387189865,1636052959.55158,1636052959.5533,1636052966.60421,1636052966.6213,1636052968.70499,1636052970.88914,1636052970.89006,1636052971.95394,1636052971.93953,1636053253.44451,0
81,4,2,3,18,3,1,c1_WhyFace,1,admiring?,5,F_759.jpg,1636052646.21712,1636052646.21934,310.574455490112,7.04744958877563,317.627085199356,319.727869024277,0.3,323.279193868637,1.06706428527832,324.348096122742,1,left,1.05069518089294,324.346258153915,604.467387189865,607.227387189865,1636052959.55158,1636052959.5533,1636052966.60421,1636052966.6213,1636052968.70499,1636052972.25632,1636052972.25825,1636052973.32522,1636052973.32338,1636053253.44451,1
81,4,2,3,18,4,1,c1_WhyFace,2,admiring?,6,F_692.jpg,1636052646.21712,1636052646.21934,310.574455490112,7.04744958877563,317.627085199356,319.727869024277,0.3,324.6630427742,1.23379278182983,325.898349990845,1,left,1.21295404434204,325.89683555603,604.467387189865,607.227387189865,1636052959.55158,1636052959.5533,1636052966.60421,1636052966.6213,1636052968.70499,1636052973.64017,1636052973.64224,1636052974.87547,1636052974.87396,1636053253.44451,0
81,4,2,3,18,5,1,c1_WhyFace,1,admiring?,4,F_779.jpg,1636052646.21712,1636052646.21934,310.574455490112,7.04744958877563,317.627085199356,319.727869024277,0.3,326.213620891571,1.48388743400574,327.699216117859,1,left,1.46042990684509,327.697508325577,604.467387189865,607.227387189865,1636052959.55158,1636052959.5533,1636052966.60421,1636052966.6213,1636052968.70499,1636052975.19074,1636052975.19274,1636052976.67634,1636052976.67463,1636053253.44451,1
81,4,2,3,18,6,1,c1_WhyFace,1,admiring?,8,F_590.jpg,1636052646.21712,1636052646.21934,310.574455490112,7.04744958877563,317.627085199356,319.727869024277,0.3,328.014292230606,0.833644866943359,328.849210968018,1,left,0.812412023544312,328.847937097549,604.467387189865,607.227387189865,1636052959.55158,1636052959.5533,1636052966.60421,1636052966.6213,1636052968.70499,1636052976.99142,1636052976.99342,1636052977.82633,1636052977.82506,1636053253.44451,1
81,4,2,3,18,7,1,c1_WhyFace,1,admiring?,7,F_648.jpg,1636052646.21712,1636052646.21934,310.574455490112,7.04744958877563,317.627085199356,319.727869024277,0.3,329.164721002579,0.783626079559326,329.960204114914,1,left,0.770704030990601,329.948347082138,604.467387189865,607.227387189865,1636052959.55158,1636052959.5533,1636052966.60421,1636052966.6213,1636052968.70499,1636052978.14184,1636052978.14335,1636052978.93733,1636052978.92547,1636053253.44451,1
81,4,2,3,18,8,1,c1_WhyFace,2,admiring?,3,F_110.jpg,1636052646.21712,1636052646.21934,310.574455490112,7.04744958877563,317.627085199356,319.727869024277,0.3,330.265130987167,0.866990804672241,331.133223047256,3,right,0.852828025817871,331.13212179184,604.467387189865,607.227387189865,1636052959.55158,1636052959.5533,1636052966.60421,1636052966.6213,1636052968.70499,1636052979.24225,1636052979.24394,1636052980.11035,1636052980.10925,1636053253.44451,0
81,4,2,3,19,1,2,c2_WhyHand,1,competing?,9,H_261.jpg,1636052646.21712,1636052646.21934,331.215485563278,4.29643440246582,335.51709031105,337.617873420715,2.10078310966492,337.76792930603,1.15042996406555,338.926724901199,1,left,1.13341403007507,338.918359270096,604.467387189865,607.227387189865,1636052980.19261,1636052980.19428,1636052984.49421,1636052984.50399,1636052986.595,1636052986.74505,1636052986.75417,1636052987.90385,1636052987.89548,1636053253.44451,1
81,4,2,3,19,2,2,c2_WhyHand,1,competing?,15,H_170.jpg,1636052646.21712,1636052646.21934,331.215485563278,4.29643440246582,335.51709031105,337.617873420715,0.3,339.235143890381,0.550204038619995,339.792954912186,1,left,0.538122177124023,339.785347929001,604.467387189865,607.227387189865,1636052980.19261,1636052980.19428,1636052984.49421,1636052984.50399,1636052986.595,1636052988.21227,1636052988.21385,1636052988.77008,1636052988.76247,1636053253.44451,1
81,4,2,3,19,3,2,c2_WhyHand,2,competing?,12,H_483.jpg,1636052646.21712,1636052646.21934,331.215485563278,4.29643440246582,335.51709031105,337.617873420715,0.3,340.102133741379,1.10041069984436,341.21007393837,3,right,1.09253096580505,341.202544441223,604.467387189865,607.227387189865,1636052980.19261,1636052980.19428,1636052984.49421,1636052984.50399,1636052986.595,1636052989.07926,1636052989.08101,1636052990.1872,1636052990.17967,1636053253.44451,0
81,4,2,3,19,4,2,c2_WhyHand,1,competing?,14,H_132.jpg,1636052646.21712,1636052646.21934,331.215485563278,4.29643440246582,335.51709031105,337.617873420715,0.3,341.519328584671,0.783625364303589,342.31017493248,1,left,0.776633977890015,342.302953948975,604.467387189865,607.227387189865,1636052980.19261,1636052980.19428,1636052984.49421,1636052984.50399,1636052986.595,1636052990.49645,1636052990.4981,1636052991.2873,1636052991.28008,1636053253.44451,1
81,4,2,3,19,5,2,c2_WhyHand,1,competing?,16,H_136.jpg,1636052646.21712,1636052646.21934,331.215485563278,4.29643440246582,335.51709031105,337.617873420715,0.3,342.619738807678,0.816970825195312,343.438406934738,1,left,0.797524929046631,343.436709632874,604.467387189865,607.227387189865,1636052980.19261,1636052980.19428,1636052984.49421,1636052984.50399,1636052986.595,1636052991.59686,1636052991.59842,1636052992.41553,1636052992.41383,1636053253.44451,1
81,4,2,3,19,6,2,c2_WhyHand,1,competing?,13,H_003.jpg,1636052646.21712,1636052646.21934,331.215485563278,4.29643440246582,335.51709031105,337.617873420715,0.3,343.753494968414,1.7173068523407,NaN,0,NA,0,345.470801820755,604.467387189865,607.227387189865,1636052980.19261,1636052980.19428,1636052984.49421,1636052984.50399,1636052986.595,1636052992.73062,1636052992.73239,NaN,1636052994.44793,1636053253.44451,0
81,4,2,3,19,7,2,c2_WhyHand,2,competing?,10,H_126.jpg,1636052646.21712,1636052646.21934,331.215485563278,4.29643440246582,335.51709031105,337.617873420715,0.3,345.787586679459,1.40052247047424,347.193375101089,3,right,1.38298988342285,347.188109149933,604.467387189865,607.227387189865,1636052980.19261,1636052980.19428,1636052984.49421,1636052984.50399,1636052986.595,1636052994.76471,1636052994.76653,1636052996.1705,1636052996.16523,1636053253.44451,0
81,4,2,3,19,8,2,c2_WhyHand,2,competing?,11,H_502.jpg,1636052646.21712,1636052646.21934,331.215485563278,4.29643440246582,335.51709031105,337.617873420715,0.3,347.504894247055,0.750279664993286,348.260117998123,3,right,0.729982137680054,348.255173912048,604.467387189865,607.227387189865,1636052980.19261,1636052980.19428,1636052984.49421,1636052984.50399,1636052986.595,1636052996.48202,1636052996.48409,1636052997.23724,1636052997.2323,1636053253.44451,0
81,4,2,3,20,1,4,c4_HowHand,1,reaching?,111,H_003.jpg,1636052646.21712,1636052646.21934,348.338537683487,8.65340042114258,357.008438339233,359.109221925735,2.10078358650208,359.259277095795,1.00037288665771,360.261368026733,1,left,0.984373092651367,360.259649982452,604.467387189865,607.227387189865,1636052997.31566,1636052997.3206,1636053005.98556,1636053005.98711,1636053008.08635,1636053008.2364,1636053008.23828,1636053009.23849,1636053009.23677,1636053253.44451,1
81,4,2,3,20,2,4,c4_HowHand,1,reaching?,110,H_364.jpg,1636052646.21712,1636052646.21934,348.338537683487,8.65340042114258,357.008438339233,359.109221925735,0.3,360.576434602737,1.03371930122375,361.611635913849,1,left,1.02292013168335,361.610153903961,604.467387189865,607.227387189865,1636052997.31566,1636052997.3206,1636053005.98556,1636053005.98711,1636053008.08635,1636053009.55356,1636053009.55507,1636053010.58876,1636053010.58728,1636053253.44451,1
81,4,2,3,20,3,4,c4_HowHand,2,reaching?,108,H_532.jpg,1636052646.21712,1636052646.21934,348.338537683487,8.65340042114258,357.008438339233,359.109221925735,0.3,361.926937332153,1.36717891693115,363.29584192276,3,right,1.35176515579224,363.294116249084,604.467387189865,607.227387189865,1636052997.31566,1636052997.3206,1636053005.98556,1636053005.98711,1636053008.08635,1636053010.90406,1636053010.90573,1636053012.27297,1636053012.27124,1636053253.44451,0
81,4,2,3,20,4,4,c4_HowHand,1,reaching?,106,H_006.jpg,1636052646.21712,1636052646.21934,348.338537683487,8.65340042114258,357.008438339233,359.109221925735,0.3,363.610900630951,1.01704525947571,364.643659105301,1,left,1.00785398483276,364.627945890427,604.467387189865,607.227387189865,1636052997.31566,1636052997.3206,1636053005.98556,1636053005.98711,1636053008.08635,1636053012.58802,1636053012.58985,1636053013.62078,1636053013.60507,1636053253.44451,1
81,4,2,3,20,5,4,c4_HowHand,2,reaching?,105,H_438.jpg,1636052646.21712,1636052646.21934,348.338537683487,8.65340042114258,357.008438339233,359.109221925735,0.3,364.944730510712,1.71730732917786,366.728861083984,3,right,1.76398987770081,366.66203783989,604.467387189865,607.227387189865,1636052997.31566,1636052997.3206,1636053005.98556,1636053005.98711,1636053008.08635,1636053013.92185,1636053013.92341,1636053015.70599,1636053015.63916,1636053253.44451,0
81,4,2,3,20,6,4,c4_HowHand,1,reaching?,107,H_007.jpg,1636052646.21712,1636052646.21934,348.338537683487,8.65340042114258,357.008438339233,359.109221925735,0.3,366.978822937012,0.750279903411865,367.73099111557,1,left,0.733568906784058,367.729102840424,604.467387189865,607.227387189865,1636052997.31566,1636052997.3206,1636053005.98556,1636053005.98711,1636053008.08635,1636053015.95595,1636053015.95763,1636053016.70812,1636053016.70623,1636053253.44451,1
81,4,2,3,20,7,4,c4_HowHand,1,reaching?,109,H_474.jpg,1636052646.21712,1636052646.21934,348.338537683487,8.65340042114258,357.008438339233,359.109221925735,0.3,368.045887937546,1.71730732917786,369.793350925446,3,right,1.7271201133728,369.763195266724,604.467387189865,607.227387189865,1636052997.31566,1636052997.3206,1636053005.98556,1636053005.98711,1636053008.08635,1636053017.02301,1636053017.02474,1636053018.77047,1636053018.74032,1636053253.44451,0
81,4,2,3,20,8,4,c4_HowHand,2,reaching?,112,H_132.jpg,1636052646.21712,1636052646.21934,348.338537683487,8.65340042114258,357.008438339233,359.109221925735,0.3,370.079980602264,1.20044684410095,371.281448116302,3,right,1.18465614318848,371.280427446365,604.467387189865,607.227387189865,1636052997.31566,1636052997.3206,1636053005.98556,1636053005.98711,1636053008.08635,1636053019.0571,1636053019.05885,1636053020.25857,1636053020.25755,1636053253.44451,0
81,4,2,3,21,1,3,c3_HowFace,1,open mouth?,73,F_403.jpg,1636052646.21712,1636052646.21934,371.363792171478,3.46817874908447,374.848424663544,376.949208011627,2.1007833480835,377.099263420105,1.71730732917786,NaN,0,NA,0,378.816570749283,604.467387189865,607.227387189865,1636053020.34092,1636053020.35334,1636053023.82555,1636053023.82742,1636053025.92633,1636053026.07639,1636053026.07869,NaN,1636053027.79369,1636053253.44451,0
81,4,2,3,21,2,3,c3_HowFace,2,open mouth?,79,F_648.jpg,1636052646.21712,1636052646.21934,371.363792171478,3.46817874908447,374.848424663544,376.949208011627,0.3,379.133356561661,1.21711921691895,380.359601964951,3,right,1.20514106750488,380.35047577858,604.467387189865,607.227387189865,1636053020.34092,1636053020.35334,1636053023.82555,1636053023.82742,1636053025.92633,1636053028.11048,1636053028.11148,1636053029.33673,1636053029.3276,1636053253.44451,0
81,4,2,3,21,3,3,c3_HowFace,1,open mouth?,74,F_776.jpg,1636052646.21712,1636052646.21934,371.363792171478,3.46817874908447,374.848424663544,376.949208011627,0.3,380.667261352539,0.600224256515503,381.276996126175,1,left,0.592295169830322,381.267485609055,604.467387189865,607.227387189865,1636053020.34092,1636053020.35334,1636053023.82555,1636053023.82742,1636053025.92633,1636053029.64439,1636053029.64608,1636053030.25412,1636053030.24461,1636053253.44451,1
81,4,2,3,21,4,3,c3_HowFace,2,open mouth?,77,F_584.jpg,1636052646.21712,1636052646.21934,371.363792171478,3.46817874908447,374.848424663544,376.949208011627,0.3,381.584269752502,0.850317478179932,382.435992946625,3,right,0.83354115486145,382.434587230682,604.467387189865,607.227387189865,1636053020.34092,1636053020.35334,1636053023.82555,1636053023.82742,1636053025.92633,1636053030.56139,1636053030.56317,1636053031.41312,1636053031.41171,1636053253.44451,0
81,4,2,3,21,5,3,c3_HowFace,1,open mouth?,80,F_844.jpg,1636052646.21712,1636052646.21934,371.363792171478,3.46817874908447,374.848424663544,376.949208011627,0.3,382.751371850967,0.633569002151489,383.386539926529,1,left,0.615113973617554,383.384940853119,604.467387189865,607.227387189865,1636053020.34092,1636053020.35334,1636053023.82555,1636053023.82742,1636053025.92633,1636053031.7285,1636053031.73035,1636053032.36366,1636053032.36206,1636053253.44451,1
81,4,2,3,21,6,3,c3_HowFace,1,open mouth?,78,F_692.jpg,1636052646.21712,1636052646.21934,371.363792171478,3.46817874908447,374.848424663544,376.949208011627,0.3,383.701726427078,0.733606815338135,384.436372032166,1,left,0.711822032928467,384.435333242416,604.467387189865,607.227387189865,1636053020.34092,1636053020.35334,1636053023.82555,1636053023.82742,1636053025.92633,1636053032.67885,1636053032.68091,1636053033.4135,1636053033.41246,1636053253.44451,1
81,4,2,3,21,7,3,c3_HowFace,1,open mouth?,75,F_086.jpg,1636052646.21712,1636052646.21934,371.363792171478,3.46817874908447,374.848424663544,376.949208011627,0.3,384.75211643219,0.816972732543945,385.570694913864,1,left,0.794986963272095,385.569089164734,604.467387189865,607.227387189865,1636053020.34092,1636053020.35334,1636053023.82555,1636053023.82742,1636053025.92633,1636053033.72924,1636053033.73097,1636053034.54782,1636053034.54621,1636053253.44451,1
81,4,2,3,21,8,3,c3_HowFace,2,open mouth?,76,F_544.jpg,1636052646.21712,1636052646.21934,371.363792171478,3.46817874908447,374.848424663544,376.949208011627,0.3,385.885874261856,1.61726999282837,387.51027797699,3,right,1.60156488418579,387.503144254684,604.467387189865,607.227387189865,1636053020.34092,1636053020.35334,1636053023.82555,1636053023.82742,1636053025.92633,1636053034.863,1636053034.86475,1636053036.4874,1636053036.48027,1636053253.44451,0
81,4,2,3,22,1,1,c1_WhyFace,1,argument?,42,F_403.jpg,1636052646.21712,1636052646.21934,387.586507787704,5.92140817642212,393.522055139542,395.622838249207,2.10078310966492,395.77289437294,1.33383083343506,397.109635105133,1,left,1.31157684326172,397.106725206375,604.467387189865,607.227387189865,1636053036.56363,1636053036.57071,1636053042.49918,1636053042.50429,1636053044.59996,1636053044.75002,1636053044.75423,1636053046.08676,1636053046.08385,1636053253.44451,1
81,4,2,3,22,2,1,c1_WhyFace,2,argument?,46,F_844.jpg,1636052646.21712,1636052646.21934,387.586507787704,5.92140817642212,393.522055139542,395.622838249207,0.3,397.423510541916,0.666913986206055,398.093147029877,3,right,0.655713081359863,398.090424528122,604.467387189865,607.227387189865,1636053036.56363,1636053036.57071,1636053042.49918,1636053042.50429,1636053044.59996,1636053046.40063,1636053046.40397,1636053047.07027,1636053047.06755,1636053253.44451,0
81,4,2,3,22,3,1,c1_WhyFace,1,argument?,41,F_712.jpg,1636052646.21712,1636052646.21934,387.586507787704,5.92140817642212,393.522055139542,395.622838249207,0.3,398.4072103405,1.46721363067627,399.876246919632,1,left,1.44529891014099,399.874423971176,604.467387189865,607.227387189865,1636053036.56363,1636053036.57071,1636053042.49918,1636053042.50429,1636053044.59996,1636053047.38433,1636053047.38723,1636053048.85337,1636053048.85155,1636053253.44451,1
81,4,2,3,22,4,1,c1_WhyFace,1,argument?,48,F_758.jpg,1636052646.21712,1636052646.21934,387.586507787704,5.92140817642212,393.522055139542,395.622838249207,0.3,400.191209068298,0.933680534362793,401.126897087097,1,left,0.910712003707886,401.124889602661,604.467387189865,607.227387189865,1636053036.56363,1636053036.57071,1636053042.49918,1636053042.50429,1636053044.59996,1636053049.16833,1636053049.1704,1636053050.10402,1636053050.10201,1636053253.44451,1
81,4,2,3,22,5,1,c1_WhyFace,2,argument?,45,F_433.jpg,1636052646.21712,1636052646.21934,387.586507787704,5.92140817642212,393.522055139542,395.622838249207,0.3,401.441675653458,0.650240659713745,402.093564977646,3,right,0.627969026565552,402.091916313171,604.467387189865,607.227387189865,1636053036.56363,1636053036.57071,1636053042.49918,1636053042.50429,1636053044.59996,1636053050.4188,1636053050.42089,1636053051.07069,1636053051.06904,1636053253.44451,0
81,4,2,3,22,6,1,c1_WhyFace,1,argument?,43,F_716.jpg,1636052646.21712,1636052646.21934,387.586507787704,5.92140817642212,393.522055139542,395.622838249207,0.3,402.408702363968,0.833642959594727,403.24342798233,1,left,0.814601898193359,403.242345323563,604.467387189865,607.227387189865,1636053036.56363,1636053036.57071,1636053042.49918,1636053042.50429,1636053044.59996,1636053051.38583,1636053051.38726,1636053052.22055,1636053052.21947,1636053253.44451,1
81,4,2,3,22,7,1,c1_WhyFace,2,argument?,44,F_139.jpg,1636052646.21712,1636052646.21934,387.586507787704,5.92140817642212,393.522055139542,395.622838249207,0.3,403.559131135941,0.816972017288208,404.377452125549,3,right,0.794023036956787,404.376103153229,604.467387189865,607.227387189865,1636053036.56363,1636053036.57071,1636053042.49918,1636053042.50429,1636053044.59996,1636053052.53626,1636053052.53784,1636053053.35458,1636053053.35323,1636053253.44451,0
81,4,2,3,22,8,1,c1_WhyFace,1,argument?,47,F_743.jpg,1636052646.21712,1636052646.21934,387.586507787704,5.92140817642212,393.522055139542,395.622838249207,0.3,404.692888250351,0.86698842048645,405.560930957794,1,left,0.846124887466431,405.559876670837,604.467387189865,607.227387189865,1636053036.56363,1636053036.57071,1636053042.49918,1636053042.50429,1636053044.59996,1636053053.67001,1636053053.67154,1636053054.53805,1636053054.537,1636053253.44451,1
81,4,2,3,23,1,2,c2_WhyHand,1,helping?,39,H_024.jpg,1636052646.21712,1636052646.21934,405.643242111206,6.08467483520508,411.745516052246,413.846300354004,2.10078430175781,413.996357192993,1.2171196937561,415.215181102753,1,left,1.19624209403992,415.213476886749,604.467387189865,607.227387189865,1636053054.62037,1636053054.62195,1636053060.72264,1636053060.72435,1636053062.82342,1636053062.97348,1636053062.97542,1636053064.19231,1636053064.1906,1636053253.44451,1
81,4,2,3,23,2,2,c2_WhyHand,1,helping?,36,H_349.jpg,1636052646.21712,1636052646.21934,405.643242111206,6.08467483520508,411.745516052246,413.846300354004,0.3,415.530261983871,0.833643674850464,416.365375986099,1,left,0.810954093933105,416.363905658722,604.467387189865,607.227387189865,1636053054.62037,1636053054.62195,1636053060.72264,1636053060.72435,1636053062.82342,1636053064.50739,1636053064.50993,1636053065.3425,1636053065.34103,1636053253.44451,1
81,4,2,3,23,3,2,c2_WhyHand,1,helping?,38,H_077.jpg,1636052646.21712,1636052646.21934,405.643242111206,6.08467483520508,411.745516052246,413.846300354004,0.3,416.680691232681,0.0166728496551514,416.69907998085,1,left,0.000383853912353516,416.697364082336,604.467387189865,607.227387189865,1636053054.62037,1636053054.62195,1636053060.72264,1636053060.72435,1636053062.82342,1636053065.65782,1636053065.65946,1636053065.6762,1636053065.67449,1636053253.44451,1
81,4,2,3,23,4,2,c2_WhyHand,1,helping?,37,H_474.jpg,1636052646.21712,1636052646.21934,405.643242111206,6.08467483520508,411.745516052246,413.846300354004,0.3,417.014149179459,1.4838855266571,418.499253978729,3,right,1.46274495124817,418.498034706116,604.467387189865,607.227387189865,1636053054.62037,1636053054.62195,1636053060.72264,1636053060.72435,1636053062.82342,1636053065.99127,1636053065.99332,1636053067.47638,1636053067.47516,1636053253.44451,0
81,4,2,3,23,5,2,c2_WhyHand,2,helping?,33,H_091.jpg,1636052646.21712,1636052646.21934,405.643242111206,6.08467483520508,411.745516052246,413.846300354004,0.3,418.814820041657,1.68396234512329,420.500658979416,3,right,1.66049289703369,420.49878238678,604.467387189865,607.227387189865,1636053054.62037,1636053054.62195,1636053060.72264,1636053060.72435,1636053062.82342,1636053067.79194,1636053067.79387,1636053069.47778,1636053069.47591,1636053253.44451,0
81,4,2,3,23,6,2,c2_WhyHand,2,helping?,35,H_159.jpg,1636052646.21712,1636052646.21934,405.643242111206,6.08467483520508,411.745516052246,413.846300354004,0.3,420.815565814972,1.18377494812012,422.00104593277,3,right,1.16315889358521,421.999340763092,604.467387189865,607.227387189865,1636053054.62037,1636053054.62195,1636053060.72264,1636053060.72435,1636053062.82342,1636053069.79269,1636053069.79421,1636053070.97817,1636053070.97646,1636053253.44451,0
81,4,2,3,23,7,2,c2_WhyHand,1,helping?,34,H_111.jpg,1636052646.21712,1636052646.21934,405.643242111206,6.08467483520508,411.745516052246,413.846300354004,0.3,422.316125860214,1.30048513412476,423.626883974075,1,left,1.28592610359192,423.616610994339,604.467387189865,607.227387189865,1636053054.62037,1636053054.62195,1636053060.72264,1636053060.72435,1636053062.82342,1636053071.29325,1636053071.29507,1636053072.60401,1636053072.59373,1636053253.44451,1
81,4,2,3,23,8,2,c2_WhyHand,2,helping?,40,H_012.jpg,1636052646.21712,1636052646.21934,405.643242111206,6.08467483520508,411.745516052246,413.846300354004,0.3,423.933395853043,0.0166730880737305,423.960405101776,1,left,0.000317096710205078,423.950068941116,604.467387189865,607.227387189865,1636053054.62037,1636053054.62195,1636053060.72264,1636053060.72435,1636053062.82342,1636053072.91052,1636053072.9122,1636053072.93753,1636053072.92719,1636053253.44451,0
81,4,2,3,24,1,4,c4_HowHand,1,both hands?,122,H_111.jpg,1636052646.21712,1636052646.21934,424.033432712555,5.76446437835693,429.802250852585,431.903034915924,2.10078406333923,432.053090324402,1.71730780601501,NaN,0,NA,0,433.770398130417,604.467387189865,607.227387189865,1636053073.01056,1636053073.02126,1636053078.77937,1636053078.78761,1636053080.88016,1636053081.03021,1636053081.03745,NaN,1636053082.74752,1636053253.44451,0
81,4,2,3,24,2,4,c4_HowHand,1,both hands?,128,H_027.jpg,1636052646.21712,1636052646.21934,424.033432712555,5.76446437835693,429.802250852585,431.903034915924,0.3,434.087182750702,0.700259923934937,434.789381971359,1,left,0.680356979370117,434.787442674637,604.467387189865,607.227387189865,1636053073.01056,1636053073.02126,1636053078.77937,1636053078.78761,1636053080.88016,1636053083.06431,1636053083.06601,1636053083.76651,1636053083.76457,1636053253.44451,1
81,4,2,3,24,3,4,c4_HowHand,2,both hands?,121,H_091.jpg,1636052646.21712,1636052646.21934,424.033432712555,5.76446437835693,429.802250852585,431.903034915924,0.3,435.104228725433,0.900335073471069,436.005957117081,3,right,0.878889083862305,436.004563798904,604.467387189865,607.227387189865,1636053073.01056,1636053073.02126,1636053078.77937,1636053078.78761,1636053080.88016,1636053084.08135,1636053084.08313,1636053084.98308,1636053084.98169,1636053253.44451,0
81,4,2,3,24,4,4,c4_HowHand,1,both hands?,123,H_167.jpg,1636052646.21712,1636052646.21934,424.033432712555,5.76446437835693,429.802250852585,431.903034915924,0.3,436.321349372864,1.38384866714478,437.706243028641,1,left,1.36329483985901,437.705198040009,604.467387189865,607.227387189865,1636053073.01056,1636053073.02126,1636053078.77937,1636053078.78761,1636053080.88016,1636053085.29847,1636053085.29985,1636053086.68337,1636053086.68232,1636053253.44451,1
81,4,2,3,24,5,4,c4_HowHand,1,both hands?,124,H_581.jpg,1636052646.21712,1636052646.21934,424.033432712555,5.76446437835693,429.802250852585,431.903034915924,0.3,438.021983137131,1.01704621315002,439.040710916519,1,left,0.992389917373657,439.039029350281,604.467387189865,607.227387189865,1636053073.01056,1636053073.02126,1636053078.77937,1636053078.78761,1636053080.88016,1636053086.99911,1636053087.00403,1636053088.01783,1636053088.01615,1636053253.44451,1
81,4,2,3,24,6,4,c4_HowHand,2,both hands?,126,H_159.jpg,1636052646.21712,1636052646.21934,424.033432712555,5.76446437835693,429.802250852585,431.903034915924,0.3,439.355813732147,1.20044755935669,440.560359945297,3,right,1.18357014656067,440.556261291504,604.467387189865,607.227387189865,1636053073.01056,1636053073.02126,1636053078.77937,1636053078.78761,1636053080.88016,1636053088.33294,1636053088.33741,1636053089.53748,1636053089.53339,1636053253.44451,0
81,4,2,3,24,7,4,c4_HowHand,1,both hands?,127,H_349.jpg,1636052646.21712,1636052646.21934,424.033432712555,5.76446437835693,429.802250852585,431.903034915924,0.3,440.873046388626,0.850317716598511,441.726618995667,1,left,0.839034795761108,441.723364105225,604.467387189865,607.227387189865,1636053073.01056,1636053073.02126,1636053078.77937,1636053078.78761,1636053080.88016,1636053089.85017,1636053089.85386,1636053090.70374,1636053090.70049,1636053253.44451,1
81,4,2,3,24,8,4,c4_HowHand,2,both hands?,125,H_627.jpg,1636052646.21712,1636052646.21934,424.033432712555,5.76446437835693,429.802250852585,431.903034915924,0.3,442.040147771835,1.35050415992737,443.393001070023,3,right,1.33155918121338,443.390651931763,604.467387189865,607.227387189865,1636053073.01056,1636053073.02126,1636053078.77937,1636053078.78761,1636053080.88016,1636053091.01727,1636053091.02061,1636053092.37013,1636053092.36778,1636053253.44451,0
81,4,2,3,25,1,2,c2_WhyHand,1,healthy?,18,H_438.jpg,1636052646.21712,1636052646.21934,443.50736164093,3.80753040313721,447.325452795029,449.426235427856,2.10078263282776,449.576291790009,1.06706428527832,450.644323101044,1,left,1.05842590332031,450.643356075287,604.467387189865,607.227387189865,1636053092.48449,1636053092.48709,1636053096.30258,1636053096.30448,1636053098.40336,1636053098.55342,1636053098.55522,1636053099.62145,1636053099.62048,1636053253.44451,1
81,4,2,3,25,2,2,c2_WhyHand,1,healthy?,23,H_364.jpg,1636052646.21712,1636052646.21934,443.50736164093,3.80753040313721,447.325452795029,449.426235427856,0.3,450.960141887665,1.71730732917786,NaN,0,NA,0,452.677449216843,604.467387189865,607.227387189865,1636053092.48449,1636053092.48709,1636053096.30258,1636053096.30448,1636053098.40336,1636053099.93727,1636053099.93886,NaN,1636053101.65457,1636053253.44451,0
81,4,2,3,25,3,2,c2_WhyHand,1,healthy?,17,H_362.jpg,1636052646.21712,1636052646.21934,443.50736164093,3.80753040313721,447.325452795029,449.426235427856,0.3,452.994234313965,1.7173056602478,NaN,0,NA,0,454.711539974213,604.467387189865,607.227387189865,1636053092.48449,1636053092.48709,1636053096.30258,1636053096.30448,1636053098.40336,1636053101.97136,1636053101.97307,NaN,1636053103.68866,1636053253.44451,0
81,4,2,3,25,4,2,c2_WhyHand,2,healthy?,24,H_019.jpg,1636052646.21712,1636052646.21934,443.50736164093,3.80753040313721,447.325452795029,449.426235427856,0.3,455.028325071335,1.71730661392212,NaN,0,NA,0,456.745631685257,604.467387189865,607.227387189865,1636053092.48449,1636053092.48709,1636053096.30258,1636053096.30448,1636053098.40336,1636053104.00545,1636053104.00683,NaN,1636053105.72276,1636053253.44451,0
81,4,2,3,25,5,2,c2_WhyHand,1,healthy?,19,H_167.jpg,1636052646.21712,1636052646.21934,443.50736164093,3.80753040313721,447.325452795029,449.426235427856,0.3,457.062416782379,1.71730709075928,NaN,0,NA,0,458.779723873138,604.467387189865,607.227387189865,1636053092.48449,1636053092.48709,1636053096.30258,1636053096.30448,1636053098.40336,1636053106.03954,1636053106.04096,NaN,1636053107.75685,1636053253.44451,0
81,4,2,3,25,6,2,c2_WhyHand,2,healthy?,20,H_007.jpg,1636052646.21712,1636052646.21934,443.50736164093,3.80753040313721,447.325452795029,449.426235427856,0.3,459.096508493423,0.983700037002563,460.093037118912,1,left,0.976765155792236,460.080208530426,604.467387189865,607.227387189865,1636053092.48449,1636053092.48709,1636053096.30258,1636053096.30448,1636053098.40336,1636053108.07363,1636053108.07527,1636053109.07016,1636053109.05733,1636053253.44451,0
81,4,2,3,25,7,2,c2_WhyHand,1,healthy?,21,H_627.jpg,1636052646.21712,1636052646.21934,443.50736164093,3.80753040313721,447.325452795029,449.426235427856,0.3,460.396993865967,1.71730756759644,462.116043081284,1,left,1.6954939365387,462.114301433563,604.467387189865,607.227387189865,1636053092.48449,1636053092.48709,1636053096.30258,1636053096.30448,1636053098.40336,1636053109.37412,1636053109.37572,1636053111.09317,1636053111.09143,1636053253.44451,1
81,4,2,3,25,8,2,c2_WhyHand,2,healthy?,22,H_130.jpg,1636052646.21712,1636052646.21934,443.50736164093,3.80753040313721,447.325452795029,449.426235427856,0.3,462.43108581543,0.917009353637695,463.359611978531,3,right,0.90959095954895,463.348095169067,604.467387189865,607.227387189865,1636053092.48449,1636053092.48709,1636053096.30258,1636053096.30448,1636053098.40336,1636053111.40821,1636053111.41008,1636053112.33674,1636053112.32522,1636053253.44451,0
81,4,2,3,26,1,4,c4_HowHand,1,pressing button?,82,H_126.jpg,1636052646.21712,1636052646.21934,463.448132266998,2.9207878112793,466.382559528351,468.483343114853,2.10078358650208,468.633398523331,1.1837751865387,469.826246013641,1,left,1.17462396621704,469.817173709869,604.467387189865,607.227387189865,1636053112.42526,1636053112.427,1636053115.35968,1636053115.36187,1636053117.46047,1636053117.61052,1636053117.61247,1636053118.80337,1636053118.7943,1636053253.44451,1
81,4,2,3,26,2,4,c4_HowHand,2,pressing button?,85,H_130.jpg,1636052646.21712,1636052646.21934,463.448132266998,2.9207878112793,466.382559528351,468.483343114853,0.3,470.133958330154,0.833644151687622,470.976258983612,3,right,0.818011045455933,470.967602481842,604.467387189865,607.227387189865,1636053112.42526,1636053112.427,1636053115.35968,1636053115.36187,1636053117.46047,1636053119.11108,1636053119.11362,1636053119.95338,1636053119.94473,1636053253.44451,0
81,4,2,3,26,3,4,c4_HowHand,1,pressing button?,84,H_483.jpg,1636052646.21712,1636052646.21934,463.448132266998,2.9207878112793,466.382559528351,468.483343114853,0.3,471.284388055801,1.35050296783447,472.636614074707,1,left,1.3287398815155,472.634891023636,604.467387189865,607.227387189865,1636053112.42526,1636053112.427,1636053115.35968,1636053115.36187,1636053117.46047,1636053120.26151,1636053120.26302,1636053121.61374,1636053121.61202,1636053253.44451,1
81,4,2,3,26,4,4,c4_HowHand,2,pressing button?,87,H_024.jpg,1636052646.21712,1636052646.21934,463.448132266998,2.9207878112793,466.382559528351,468.483343114853,0.3,472.951675405502,0.850317478179932,473.809658994675,3,right,0.837949991226196,473.801992883682,604.467387189865,607.227387189865,1636053112.42526,1636053112.427,1636053115.35968,1636053115.36187,1636053117.46047,1636053121.9288,1636053121.93054,1636053122.78678,1636053122.77912,1636053253.44451,0
81,4,2,3,26,5,4,c4_HowHand,1,pressing button?,86,H_332.jpg,1636052646.21712,1636052646.21934,463.448132266998,2.9207878112793,466.382559528351,468.483343114853,0.3,474.118778457642,0.766951560974121,474.893669118881,1,left,0.755541801452637,474.885730018616,604.467387189865,607.227387189865,1636053112.42526,1636053112.427,1636053115.35968,1636053115.36187,1636053117.46047,1636053123.0959,1636053123.09762,1636053123.87079,1636053123.86285,1636053253.44451,1
81,4,2,3,26,6,4,c4_HowHand,1,pressing button?,88,H_019.jpg,1636052646.21712,1636052646.21934,463.448132266998,2.9207878112793,466.382559528351,468.483343114853,0.3,475.202515354157,0.80029821395874,476.009627094269,1,left,0.782533168792725,476.002813568115,604.467387189865,607.227387189865,1636053112.42526,1636053112.427,1636053115.35968,1636053115.36187,1636053117.46047,1636053124.17964,1636053124.18175,1636053124.98675,1636053124.97994,1636053253.44451,1
81,4,2,3,26,7,4,c4_HowHand,2,pressing button?,81,H_261.jpg,1636052646.21712,1636052646.21934,463.448132266998,2.9207878112793,466.382559528351,468.483343114853,0.3,476.319598426819,0.750279664993286,477.07119392395,3,right,0.726741075515747,477.069878091812,604.467387189865,607.227387189865,1636053112.42526,1636053112.427,1636053115.35968,1636053115.36187,1636053117.46047,1636053125.29672,1636053125.29839,1636053126.04832,1636053126.047,1636053253.44451,0
81,4,2,3,26,8,4,c4_HowHand,1,pressing button?,83,H_502.jpg,1636052646.21712,1636052646.21934,463.448132266998,2.9207878112793,466.382559528351,468.483343114853,0.3,477.386662950516,1.71730661392212,NaN,0,NA,0,479.103969564438,604.467387189865,607.227387189865,1636053112.42526,1636053112.427,1636053115.35968,1636053115.36187,1636053117.46047,1636053126.36379,1636053126.36571,NaN,1636053128.08109,1636053253.44451,0
81,4,2,3,27,1,3,c3_HowFace,1,looking at camera?,60,F_618.jpg,1636052646.21712,1636052646.21934,479.454101076126,4.44477581977844,483.905760755539,486.00654458046,2.10078382492065,486.15660118103,1.05039048194885,487.209967126846,1,left,1.03961992263794,487.206991662979,604.467387189865,607.227387189865,1636053128.43123,1636053128.43735,1636053132.88288,1636053132.88716,1636053134.98367,1636053135.13373,1636053135.13789,1636053136.18709,1636053136.18412,1636053253.44451,1
81,4,2,3,27,2,3,c3_HowFace,2,looking at camera?,58,F_754.jpg,1636052646.21712,1636052646.21934,479.454101076126,4.44477581977844,483.905760755539,486.00654458046,0.3,487.523776521683,1.01704621315002,488.542916049957,3,right,0.999874114990234,488.540822734833,604.467387189865,607.227387189865,1636053128.43123,1636053128.43735,1636053132.88288,1636053132.88716,1636053134.98367,1636053136.5009,1636053136.504,1636053137.52004,1636053137.51795,1636053253.44451,0
81,4,2,3,27,3,3,c3_HowFace,1,looking at camera?,59,F_129.jpg,1636052646.21712,1636052646.21934,479.454101076126,4.44477581977844,483.905760755539,486.00654458046,0.3,488.857607593536,0.683588027954102,489.543359985352,1,left,0.676064968109131,489.54119562149,604.467387189865,607.227387189865,1636053128.43123,1636053128.43735,1636053132.88288,1636053132.88716,1636053134.98367,1636053137.83473,1636053137.83722,1636053138.52048,1636053138.51832,1636053253.44451,1
81,4,2,3,27,4,3,c3_HowFace,1,looking at camera?,62,F_598.jpg,1636052646.21712,1636052646.21934,479.454101076126,4.44477581977844,483.905760755539,486.00654458046,0.3,489.857980957031,0.9170081615448,490.776175966263,1,left,0.906130075454712,490.774989118576,604.467387189865,607.227387189865,1636053128.43123,1636053128.43735,1636053132.88288,1636053132.88716,1636053134.98367,1636053138.8351,1636053138.83738,1636053139.7533,1636053139.75211,1636053253.44451,1
81,4,2,3,27,5,3,c3_HowFace,1,looking at camera?,64,F_128.jpg,1636052646.21712,1636052646.21934,479.454101076126,4.44477581977844,483.905760755539,486.00654458046,0.3,491.091774454117,0.700261116027832,491.793332090378,1,left,0.686553001403809,491.792035570145,604.467387189865,607.227387189865,1636053128.43123,1636053128.43735,1636053132.88288,1636053132.88716,1636053134.98367,1636053140.0689,1636053140.07066,1636053140.77046,1636053140.76916,1636053253.44451,1
81,4,2,3,27,6,3,c3_HowFace,2,looking at camera?,57,F_582.jpg,1636052646.21712,1636052646.21934,479.454101076126,4.44477581977844,483.905760755539,486.00654458046,0.3,492.108820428848,0.816970586776733,492.926847925186,3,right,0.803783893585205,492.925791015625,604.467387189865,607.227387189865,1636053128.43123,1636053128.43735,1636053132.88288,1636053132.88716,1636053134.98367,1636053141.08594,1636053141.08773,1636053141.90397,1636053141.90292,1636053253.44451,0
81,4,2,3,27,7,3,c3_HowFace,1,looking at camera?,61,F_774.jpg,1636052646.21712,1636052646.21934,479.454101076126,4.44477581977844,483.905760755539,486.00654458046,0.3,493.242574920654,0.716935396194458,493.961190929413,1,left,0.704463958740234,493.959510316849,604.467387189865,607.227387189865,1636053128.43123,1636053128.43735,1636053132.88288,1636053132.88716,1636053134.98367,1636053142.2197,1636053142.22136,1636053142.93831,1636053142.93663,1636053253.44451,1
81,4,2,3,27,8,3,c3_HowFace,2,looking at camera?,63,F_743.jpg,1636052646.21712,1636052646.21934,479.454101076126,4.44477581977844,483.905760755539,486.00654458046,0.3,494.276294698715,1.01704692840576,495.309660902023,3,right,1.01017689704895,495.293341627121,604.467387189865,607.227387189865,1636053128.43123,1636053128.43735,1636053132.88288,1636053132.88716,1636053134.98367,1636053143.25342,1636053143.25495,1636053144.28678,1636053144.27047,1636053253.44451,0
81,4,2,3,28,1,1,c1_WhyFace,1,self-doubt?,25,F_798.jpg,1636052646.21712,1636052646.21934,495.426723470688,7.43616247177124,502.879503002167,504.980287303925,2.10078430175781,505.130342950821,0.967026710510254,506.099066963196,1,left,0.95150899887085,506.097369661331,604.467387189865,607.227387189865,1636053144.40385,1636053144.40536,1636053151.85663,1636053151.85828,1636053153.95741,1636053154.10747,1636053154.10912,1636053155.07619,1636053155.07449,1636053253.44451,1
