src_subject_id,session_id,run_id,param_counterbalance_ver,param_block_num,param_trial_num,param_cond_type_num,param_cond_type_string,param_normative_response,param_ques_type_string,param_image_num,param_image_filename,param_trigger_onset,param_start_biopac,event01_fixation,event01_fixation_dur,event01_blockquestion_onset,event01_block_isi_blacksreen,event01_blockquestion_dur,event02_image_onset,event02_image_dur,event03_response_onset,event03_response_key,event03_response_keyname,event03_RT,event04_shortquestion_onset,param_end_instruct_onset,param_experiment_duration,RAW_e1_fixation,RAW_e1_fixation_biopac,RAW_e1_blockquestion_onset,RAW_e1_blockquestion_onset_biopac,RAW_e1_block_isi_blacksreen,RAW_e2_image_onset,RAW_e2_image_onset_biopac,RAW_e3_response_onset,RAW_e4_shortquestion_onset,RAW_param_end_instruct_onset,accuracy
24,4,2,3,1,1,4,c4_HowHand,1,reaching?,107,H_007.jpg,1621882453.48942,1621882453.49211,0.0203738117218015,0.0421702861785889,0.0703925991058347,2.12115644454956,2.05076384544373,2.25453971862793,0.783625602722168,3.04161905288696,1,left,0.737201929092407,3.0381653213501,604.479122152329,607.239122152328,1621882456.26979,1621882456.27515,1621882456.31981,1621882456.3223,1621882458.37058,1621882458.50396,1621882458.51817,1621882459.29104,1621882459.28759,1621883060.72854,1
24,4,2,3,1,2,4,c4_HowHand,2,reaching?,108,H_532.jpg,1621882453.48942,1621882453.49211,0.0203738117218015,0.0421702861785889,0.0703925991058347,2.12115644454956,0.3,3.35495018005371,0.9170081615448,4.27501009941101,3,right,0.893754959106445,4.27195834159851,604.479122152329,607.239122152328,1621882456.26979,1621882456.27515,1621882456.31981,1621882456.3223,1621882458.37058,1621882459.60437,1621882459.60661,1621882460.52443,1621882460.52138,1621883060.72854,0
24,4,2,3,1,3,4,c4_HowHand,1,reaching?,109,H_474.jpg,1621882453.48942,1621882453.49211,0.0203738117218015,0.0421702861785889,0.0703925991058347,2.12115644454956,0.3,4.58874367713928,0.766952991485596,5.35817312240601,1,left,0.747119903564453,5.35569666862488,604.479122152329,607.239122152328,1621882456.26979,1621882456.27515,1621882456.31981,1621882456.3223,1621882458.37058,1621882460.83816,1621882460.8405,1621882461.60759,1621882461.60512,1621883060.72854,1
24,4,2,3,1,4,4,c4_HowHand,2,reaching?,105,H_438.jpg,1621882453.48942,1621882453.49211,0.0203738117218015,0.0421702861785889,0.0703925991058347,2.12115644454956,0.3,5.67248200416565,1.13375449180603,6.80884908676147,1,left,1.11287498474121,6.80623649597168,604.479122152329,607.239122152328,1621882456.26979,1621882456.27515,1621882456.31981,1621882456.3223,1621882458.37058,1621882461.9219,1621882461.92456,1621882463.05827,1621882463.05566,1621883060.72854,0
24,4,2,3,1,5,4,c4_HowHand,1,reaching?,110,H_364.jpg,1621882453.48942,1621882453.49211,0.0203738117218015,0.0421702861785889,0.0703925991058347,2.12115644454956,0.3,7.12302135467529,0.733607769012451,7.86084317207336,1,left,0.711191892623901,7.85662912368774,604.479122152329,607.239122152328,1621882456.26979,1621882456.27515,1621882456.31981,1621882456.3223,1621882458.37058,1621882463.37244,1621882463.37587,1621882464.11026,1621882464.10605,1621883060.72854,1
24,4,2,3,1,6,4,c4_HowHand,1,reaching?,106,H_006.jpg,1621882453.48942,1621882453.49211,0.0203738117218015,0.0421702861785889,0.0703925991058347,2.12115644454956,0.3,8.17341445922852,0.816971063613892,9.00254010200501,1,left,0.802819013595581,8.99038552284241,604.479122152329,607.239122152328,1621882456.26979,1621882456.27515,1621882456.31981,1621882456.3223,1621882458.37058,1621882464.42284,1621882464.4252,1621882465.25196,1621882465.23981,1621883060.72854,1
24,4,2,3,1,7,4,c4_HowHand,1,reaching?,111,H_003.jpg,1621882453.48942,1621882453.49211,0.0203738117218015,0.0421702861785889,0.0703925991058347,2.12115644454956,0.3,9.3071706199646,0.78362512588501,10.0929851436615,1,left,0.764518976211548,10.0907957458496,604.479122152329,607.239122152328,1621882456.26979,1621882456.27515,1621882456.31981,1621882456.3223,1621882458.37058,1621882465.55659,1621882465.559,1621882466.34241,1621882466.34022,1621883060.72854,1
24,4,2,3,1,8,4,c4_HowHand,2,reaching?,112,H_132.jpg,1621882453.48942,1621882453.49211,0.0203738117218015,0.0421702861785889,0.0703925991058347,2.12115644454956,0.3,10.4075801277161,1.1337559223175,11.5520501041412,3,right,1.12427091598511,11.5413360500336,604.479122152329,607.239122152328,1621882456.26979,1621882456.27515,1621882456.31981,1621882456.3223,1621882458.37058,1621882466.657,1621882466.65912,1621882467.80147,1621882467.79076,1621883060.72854,0
24,4,2,3,2,1,2,c2_WhyHand,1,healthy?,21,H_627.jpg,1621882453.48942,1621882453.49211,11.7580830955505,5.77310299873352,17.5435755157471,19.6443581485748,2.10078263282776,19.7944145107269,0.816971063613892,20.6189000511169,1,left,0.795552015304565,20.6113855743408,604.479122152329,607.239122152328,1621882468.0075,1621882468.01834,1621882473.793,1621882473.80146,1621882475.89378,1621882476.04384,1621882476.05128,1621882476.86832,1621882476.86081,1621883060.72854,1
24,4,2,3,2,2,2,c2_WhyHand,1,healthy?,18,H_438.jpg,1621882453.48942,1621882453.49211,11.7580830955505,5.77310299873352,17.5435755157471,19.6443581485748,0.3,20.928170671463,0.950353860855103,21.8853740596771,1,left,0.938963890075684,21.8785245323181,604.479122152329,607.239122152328,1621882468.0075,1621882468.01834,1621882473.793,1621882473.80146,1621882475.89378,1621882477.17759,1621882477.18021,1621882478.13479,1621882478.12795,1621883060.72854,1
24,4,2,3,2,3,2,c2_WhyHand,1,healthy?,23,H_364.jpg,1621882453.48942,1621882453.49211,11.7580830955505,5.77310299873352,17.5435755157471,19.6443581485748,0.3,22.1953093910217,1.03371977806091,23.2354061508179,1,left,1.02133512496948,23.2290291690826,604.479122152329,607.239122152328,1621882468.0075,1621882468.01834,1621882473.793,1621882473.80146,1621882475.89378,1621882478.44473,1621882478.44677,1621882479.48483,1621882479.47845,1621883060.72854,1
24,4,2,3,2,4,2,c2_WhyHand,2,healthy?,22,H_130.jpg,1621882453.48942,1621882453.49211,11.7580830955505,5.77310299873352,17.5435755157471,19.6443581485748,0.3,23.5458128356934,1.21712112426758,24.7650890254974,3,right,1.19126605987549,24.7629339599609,604.479122152329,607.239122152328,1621882468.0075,1621882468.01834,1621882473.793,1621882473.80146,1621882475.89378,1621882479.79523,1621882479.79727,1621882481.01451,1621882481.01235,1621883060.72854,0
24,4,2,3,2,5,2,c2_WhyHand,1,healthy?,17,H_362.jpg,1621882453.48942,1621882453.49211,11.7580830955505,5.77310299873352,17.5435755157471,19.6443581485748,0.3,25.0797183418274,0.883663415908813,25.9688022041321,1,left,0.862980127334595,25.9633817577362,604.479122152329,607.239122152328,1621882468.0075,1621882468.01834,1621882473.793,1621882473.80146,1621882475.89378,1621882481.32914,1621882481.3346,1621882482.21822,1621882482.2128,1621883060.72854,1
24,4,2,3,2,6,2,c2_WhyHand,2,healthy?,20,H_007.jpg,1621882453.48942,1621882453.49211,11.7580830955505,5.77310299873352,17.5435755157471,19.6443581485748,0.3,26.2801666164398,1.05039072036743,27.3357581996918,3,right,1.02956104278564,27.3305573368072,604.479122152329,607.239122152328,1621882468.0075,1621882468.01834,1621882473.793,1621882473.80146,1621882475.89378,1621882482.52959,1621882482.53476,1621882483.58518,1621882483.57998,1621883060.72854,0
24,4,2,3,2,7,2,c2_WhyHand,1,healthy?,19,H_167.jpg,1621882453.48942,1621882453.49211,11.7580830955505,5.77310299873352,17.5435755157471,19.6443581485748,0.3,27.6473424339294,0.85031795501709,28.5000622177124,1,left,0.821516036987305,28.4976603889465,604.479122152329,607.239122152328,1621882468.0075,1621882468.01834,1621882473.793,1621882473.80146,1621882475.89378,1621882483.89676,1621882483.9018,1621882484.74948,1621882484.74708,1621883060.72854,1
24,4,2,3,2,8,2,c2_WhyHand,2,healthy?,24,H_019.jpg,1621882453.48942,1621882453.49211,11.7580830955505,5.77310299873352,17.5435755157471,19.6443581485748,0.3,28.8144445323944,1.01704621315002,29.835495223999,3,right,1.00227117538452,29.8314907455444,604.479122152329,607.239122152328,1621882468.0075,1621882468.01834,1621882473.793,1621882473.80146,1621882475.89378,1621882485.06387,1621882485.06832,1621882486.08492,1621882486.08091,1621883060.72854,0
24,4,2,3,3,1,1,c1_WhyFace,1,admiring?,4,F_779.jpg,1621882453.48942,1621882453.49211,29.9648735427856,6.67432045936584,36.6507005596161,38.751483669281,2.10078310966492,38.9015395545959,0.733607292175293,39.6372561359406,1,left,0.711661100387573,39.6351468467712,604.479122152329,607.239122152328,1621882486.21429,1621882486.21816,1621882492.90012,1621882492.90221,1621882495.0009,1621882495.15096,1621882495.15313,1621882495.88668,1621882495.88457,1621883060.72854,1
24,4,2,3,3,2,1,c1_WhyFace,1,admiring?,1,F_593.jpg,1621882453.48942,1621882453.49211,29.9648735427856,6.67432045936584,36.6507005596161,38.751483669281,0.3,39.9519314670563,0.816971063613892,40.7711419963837,1,left,0.800173997879028,40.7689025306702,604.479122152329,607.239122152328,1621882486.21429,1621882486.21816,1621882492.90012,1621882492.90221,1621882495.0009,1621882496.20135,1621882496.20351,1621882497.02056,1621882497.01832,1621883060.72854,1
24,4,2,3,3,3,1,c1_WhyFace,2,admiring?,3,F_110.jpg,1621882453.48942,1621882453.49211,29.9648735427856,6.67432045936584,36.6507005596161,38.751483669281,0.3,41.0856873893738,0.933682203292847,42.0216190719605,3,right,0.917033910751343,42.0193695926666,604.479122152329,607.239122152328,1621882486.21429,1621882486.21816,1621882492.90012,1621882492.90221,1621882495.0009,1621882497.33511,1621882497.33713,1621882498.27104,1621882498.26879,1621883060.72854,0
24,4,2,3,3,4,1,c1_WhyFace,1,admiring?,8,F_590.jpg,1621882453.48942,1621882453.49211,29.9648735427856,6.67432045936584,36.6507005596161,38.751483669281,0.3,42.3361537361145,0.733606576919556,43.0719730758667,1,left,0.712013959884644,43.0697603130341,604.479122152329,607.239122152328,1621882486.21429,1621882486.21816,1621882492.90012,1621882492.90221,1621882495.0009,1621882498.58557,1621882498.58766,1621882499.32139,1621882499.31918,1621883060.72854,1
24,4,2,3,3,5,1,c1_WhyFace,2,admiring?,6,F_692.jpg,1621882453.48942,1621882453.49211,29.9648735427856,6.67432045936584,36.6507005596161,38.751483669281,0.3,43.3865456485748,1.33383083343506,44.7225081825256,3,right,1.31012797355652,44.7203764820099,604.479122152329,607.239122152328,1621882486.21429,1621882486.21816,1621882492.90012,1621882492.90221,1621882495.0009,1621882499.63597,1621882499.63787,1621882500.97193,1621882500.9698,1621883060.72854,0
24,4,2,3,3,6,1,c1_WhyFace,1,admiring?,5,F_759.jpg,1621882453.48942,1621882453.49211,29.9648735427856,6.67432045936584,36.6507005596161,38.751483669281,0.3,45.0371606254578,0.850317716598511,45.8897941017151,1,left,0.825607061386108,45.8874783420563,604.479122152329,607.239122152328,1621882486.21429,1621882486.21816,1621882492.90012,1621882492.90221,1621882495.0009,1621882501.28658,1621882501.2886,1621882502.13921,1621882502.1369,1621883060.72854,1
24,4,2,3,3,7,1,c1_WhyFace,1,admiring?,7,F_648.jpg,1621882453.48942,1621882453.49211,29.9648735427856,6.67432045936584,36.6507005596161,38.751483669281,0.3,46.204263677597,0.816971302032471,47.0359830760956,1,left,0.80363392829895,47.0212349796295,604.479122152329,607.239122152328,1621882486.21429,1621882486.21816,1621882492.90012,1621882492.90221,1621882495.0009,1621882502.45368,1621882502.45617,1621882503.2854,1621882503.27066,1621883060.72854,1
24,4,2,3,3,8,1,c1_WhyFace,2,admiring?,2,F_129.jpg,1621882453.48942,1621882453.49211,29.9648735427856,6.67432045936584,36.6507005596161,38.751483669281,0.3,47.3380195999146,1.06706380844116,48.4070200824738,3,right,1.04730105400085,48.4050834083557,604.479122152329,607.239122152328,1621882486.21429,1621882486.21816,1621882492.90012,1621882492.90221,1621882495.0009,1621882503.58744,1621882503.58945,1621882504.65644,1621882504.6545,1621883060.72854,0
24,4,2,3,4,1,3,c3_HowFace,1,smiling?,119,F_139.jpg,1621882453.48942,1621882453.49211,48.5051216983795,7.09820342063904,55.607769241333,57.7085530662537,2.10078382492065,57.8586096668243,0.833643198013306,58.6948361301422,1,left,0.805447816848755,58.6922528648376,604.479122152329,607.239122152328,1621882504.75454,1621882504.76976,1621882511.85719,1621882511.86836,1621882513.95797,1621882514.10803,1621882514.11784,1621882514.94426,1621882514.94167,1621883060.72854,1
24,4,2,3,4,2,3,c3_HowFace,2,smiling?,113,F_712.jpg,1621882453.48942,1621882453.49211,48.5051216983795,7.09820342063904,55.607769241333,57.7085530662537,0.3,59.009038438797,0.766952276229858,59.7851331138611,3,right,0.749356031417847,59.7759907150269,604.479122152329,607.239122152328,1621882504.75454,1621882504.76976,1621882511.85719,1621882511.86836,1621882513.95797,1621882515.25846,1621882515.26078,1621882516.03455,1621882516.02541,1621883060.72854,0
24,4,2,3,4,3,3,c3_HowFace,1,smiling?,115,F_695.jpg,1621882453.48942,1621882453.49211,48.5051216983795,7.09820342063904,55.607769241333,57.7085530662537,0.3,60.0927753353119,0.650243043899536,60.7522430324554,1,left,0.637326002120972,60.7430183792114,604.479122152329,607.239122152328,1621882504.75454,1621882504.76976,1621882511.85719,1621882511.86836,1621882513.95797,1621882516.3422,1621882516.34434,1621882517.00166,1621882516.99244,1621883060.72854,1
24,4,2,3,4,4,3,c3_HowFace,2,smiling?,120,F_758.jpg,1621882453.48942,1621882453.49211,48.5051216983795,7.09820342063904,55.607769241333,57.7085530662537,0.3,61.0598025226593,0.750280141830444,61.8189442062378,3,right,0.739560127258301,61.8100826644897,604.479122152329,607.239122152328,1621882504.75454,1621882504.76976,1621882511.85719,1621882511.86836,1621882513.95797,1621882517.30922,1621882517.31161,1621882518.06837,1621882518.0595,1621883060.72854,0
24,4,2,3,4,5,3,c3_HowFace,1,smiling?,116,F_083.jpg,1621882453.48942,1621882453.49211,48.5051216983795,7.09820342063904,55.607769241333,57.7085530662537,0.3,62.1268672847748,0.55020546913147,62.6797330284119,1,left,0.528004169464111,62.6770727539063,604.479122152329,607.239122152328,1621882504.75454,1621882504.76976,1621882511.85719,1621882511.86836,1621882513.95797,1621882518.37629,1621882518.37804,1621882518.92915,1621882518.92649,1621883060.72854,1
24,4,2,3,4,6,3,c3_HowFace,1,smiling?,118,F_759.jpg,1621882453.48942,1621882453.49211,48.5051216983795,7.09820342063904,55.607769241333,57.7085530662537,0.3,62.9938576126099,0.550204992294312,63.5520331764221,1,left,0.54090404510498,63.5440626049042,604.479122152329,607.239122152328,1621882504.75454,1621882504.76976,1621882511.85719,1621882511.86836,1621882513.95797,1621882519.24328,1621882519.24575,1621882519.80145,1621882519.79348,1621883060.72854,1
24,4,2,3,4,7,3,c3_HowFace,2,smiling?,114,F_412.jpg,1621882453.48942,1621882453.49211,48.5051216983795,7.09820342063904,55.607769241333,57.7085530662537,0.3,63.8608474636078,0.683588027954102,64.5520691776276,3,right,0.670729160308838,64.5444354915619,604.479122152329,607.239122152328,1621882504.75454,1621882504.76976,1621882511.85719,1621882511.86836,1621882513.95797,1621882520.11027,1621882520.11243,1621882520.80149,1621882520.79386,1621883060.72854,0
24,4,2,3,4,8,3,c3_HowFace,1,smiling?,117,F_593.jpg,1621882453.48942,1621882453.49211,48.5051216983795,7.09820342063904,55.607769241333,57.7085530662537,0.3,64.8612205886841,0.633570194244385,65.5017909908295,1,left,0.613261938095093,65.4947907829285,604.479122152329,607.239122152328,1621882504.75454,1621882504.76976,1621882511.85719,1621882511.86836,1621882513.95797,1621882521.11064,1621882521.11277,1621882521.75121,1621882521.74421,1621883060.72854,1
24,4,2,3,5,1,4,c4_HowHand,1,lifting?,56,H_136.jpg,1621882453.48942,1621882453.49211,65.5948276424408,7.53933048248291,73.1476442718506,75.2484271430969,2.10078287124634,75.3984830284119,0.983700513839722,76.3853621387482,1,left,0.95757794380188,76.3821835422516,604.479122152329,607.239122152328,1621882521.84425,1621882521.84826,1621882529.39707,1621882529.40259,1621882531.49785,1621882531.6479,1621882531.65111,1621882532.63478,1621882532.6316,1621883060.72854,1
24,4,2,3,5,2,4,c4_HowHand,2,lifting?,51,H_038.jpg,1621882453.48942,1621882453.49211,65.5948276424408,7.53933048248291,73.1476442718506,75.2484271430969,0.3,76.6989681625366,0.900336503982544,77.602035036087,3,right,0.886046886444092,77.5993046665192,604.479122152329,607.239122152328,1621882521.84425,1621882521.84826,1621882529.39707,1621882529.40259,1621882531.49785,1621882532.94839,1621882532.95117,1621882533.85146,1621882533.84873,1621883060.72854,0
24,4,2,3,5,3,4,c4_HowHand,1,lifting?,52,H_189.jpg,1621882453.48942,1621882453.49211,65.5948276424408,7.53933048248291,73.1476442718506,75.2484271430969,0.3,77.9160892868042,1.00037264823914,78.9189400577545,1,left,0.977051019668579,78.9164619350433,604.479122152329,607.239122152328,1621882521.84425,1621882521.84826,1621882529.39707,1621882529.40259,1621882531.49785,1621882534.16551,1621882534.1682,1621882535.16836,1621882535.16588,1621883060.72854,1
24,4,2,3,5,4,4,c4_HowHand,2,lifting?,53,H_077.jpg,1621882453.48942,1621882453.49211,65.5948276424408,7.53933048248291,73.1476442718506,75.2484271430969,0.3,79.2332465553284,1.20044732093811,80.4356930160522,3,right,1.18791699409485,80.4336938762665,604.479122152329,607.239122152328,1621882521.84425,1621882521.84826,1621882529.39707,1621882529.40259,1621882531.49785,1621882535.48267,1621882535.48536,1621882536.68511,1621882536.68311,1621883060.72854,0
24,4,2,3,5,5,4,c4_HowHand,1,lifting?,50,H_443.jpg,1621882453.48942,1621882453.49211,65.5948276424408,7.53933048248291,73.1476442718506,75.2484271430969,0.3,80.750479927063,1.45053935050964,82.2031791114807,3,right,1.42597389221191,82.2010192775726,604.479122152329,607.239122152328,1621882521.84425,1621882521.84826,1621882529.39707,1621882529.40259,1621882531.49785,1621882536.9999,1621882537.00187,1621882538.4526,1621882538.45044,1621883060.72854,0
24,4,2,3,5,6,4,c4_HowHand,2,lifting?,55,H_012.jpg,1621882453.48942,1621882453.49211,65.5948276424408,7.53933048248291,73.1476442718506,75.2484271430969,0.3,82.5178043746948,1.20044803619385,83.7200961017609,3,right,1.18474316596985,83.7182524108887,604.479122152329,607.239122152328,1621882521.84425,1621882521.84826,1621882529.39707,1621882529.40259,1621882531.49785,1621882538.76723,1621882538.76929,1621882539.96952,1621882539.96767,1621883060.72854,0
24,4,2,3,5,7,4,c4_HowHand,1,lifting?,49,H_362.jpg,1621882453.48942,1621882453.49211,65.5948276424408,7.53933048248291,73.1476442718506,75.2484271430969,0.3,84.0350375080109,1.10041046142578,85.1375801467895,1,left,1.08842802047729,85.1354479694366,604.479122152329,607.239122152328,1621882521.84425,1621882521.84826,1621882529.39707,1621882529.40259,1621882531.49785,1621882540.28446,1621882540.28663,1621882541.387,1621882541.38487,1621883060.72854,1
24,4,2,3,5,8,4,c4_HowHand,1,lifting?,54,H_170.jpg,1621882453.48942,1621882453.49211,65.5948276424408,7.53933048248291,73.1476442718506,75.2484271430969,0.3,85.4522318744659,1.03371977806091,86.5022880935669,1,left,1.02218508720398,86.4859516525269,604.479122152329,607.239122152328,1621882521.84425,1621882521.84826,1621882529.39707,1621882529.40259,1621882531.49785,1621882541.70165,1621882541.70376,1621882542.75171,1621882542.73537,1621883060.72854,1
24,4,2,3,6,1,2,c2_WhyHand,1,helping?,38,H_077.jpg,1621882453.48942,1621882453.49211,86.6026616001129,9.01235151290894,95.622691860199,97.7234759235382,2.10078406333923,97.8735318088531,0.833643913269043,98.7093582057953,1,left,0.799698114395142,98.7071757221222,604.479122152329,607.239122152328,1621882542.85208,1621882542.85396,1621882551.87211,1621882551.88504,1621882553.9729,1621882554.12295,1621882554.13476,1621882554.95878,1621882554.9566,1621883060.72854,1
24,4,2,3,6,2,2,c2_WhyHand,1,helping?,36,H_349.jpg,1621882453.48942,1621882453.49211,86.6026616001129,9.01235151290894,95.622691860199,97.7234759235382,0.3,99.0239605808258,0.733606576919556,99.7597842121124,1,left,0.712314128875732,99.7575671577454,604.479122152329,607.239122152328,1621882542.85208,1621882542.85396,1621882551.87211,1621882551.88504,1621882553.9729,1621882555.27338,1621882555.2756,1621882556.00921,1621882556.00699,1621883060.72854,1
24,4,2,3,6,3,2,c2_WhyHand,1,helping?,37,H_474.jpg,1621882453.48942,1621882453.49211,86.6026616001129,9.01235151290894,95.622691860199,97.7234759235382,0.3,100.074352493286,0.816970586776733,100.89346622467,1,left,0.797372102737427,100.891323080063,604.479122152329,607.239122152328,1621882542.85208,1621882542.85396,1621882551.87211,1621882551.88504,1621882553.9729,1621882556.32377,1621882556.32586,1621882557.14289,1621882557.14074,1621883060.72854,1
24,4,2,3,6,4,2,c2_WhyHand,1,helping?,39,H_024.jpg,1621882453.48942,1621882453.49211,86.6026616001129,9.01235151290894,95.622691860199,97.7234759235382,0.3,101.208107938766,0.933681964874268,102.144358148575,1,left,0.911751985549927,102.141789903641,604.479122152329,607.239122152328,1621882542.85208,1621882542.85396,1621882551.87211,1621882551.88504,1621882553.9729,1621882557.45753,1621882557.45972,1621882558.39378,1621882558.39121,1621883060.72854,1
24,4,2,3,6,5,2,c2_WhyHand,2,helping?,40,H_012.jpg,1621882453.48942,1621882453.49211,86.6026616001129,9.01235151290894,95.622691860199,97.7234759235382,0.3,102.458575239182,1.18377447128296,103.644452085495,1,left,1.16048192977905,103.642349710464,604.479122152329,607.239122152328,1621882542.85208,1621882542.85396,1621882551.87211,1621882551.88504,1621882553.9729,1621882558.708,1621882558.70985,1621882559.89387,1621882559.89177,1621883060.72854,0
24,4,2,3,6,6,2,c2_WhyHand,2,helping?,35,H_159.jpg,1621882453.48942,1621882453.49211,86.6026616001129,9.01235151290894,95.622691860199,97.7234759235382,0.3,103.959134092331,1.217120885849,105.178593149185,3,right,1.19751501083374,105.17625497818,604.479122152329,607.239122152328,1621882542.85208,1621882542.85396,1621882551.87211,1621882551.88504,1621882553.9729,1621882560.20855,1621882560.21076,1621882561.42801,1621882561.42568,1621883060.72854,0
24,4,2,3,6,7,2,c2_WhyHand,1,helping?,34,H_111.jpg,1621882453.48942,1621882453.49211,86.6026616001129,9.01235151290894,95.622691860199,97.7234759235382,0.3,105.493040075302,1.03371834754944,106.53598402977,1,left,1.0201690196991,106.526758422852,604.479122152329,607.239122152328,1621882542.85208,1621882542.85396,1621882551.87211,1621882551.88504,1621882553.9729,1621882561.74246,1621882561.74475,1621882562.7854,1621882562.77618,1621883060.72854,1
24,4,2,3,6,8,2,c2_WhyHand,2,helping?,33,H_091.jpg,1621882453.48942,1621882453.49211,86.6026616001129,9.01235151290894,95.622691860199,97.7234759235382,0.3,106.843543758392,1.66728758811951,108.518521060944,3,right,1.64781618118286,108.510831346512,604.479122152329,607.239122152328,1621882542.85208,1621882542.85396,1621882551.87211,1621882551.88504,1621882553.9729,1621882563.09296,1621882563.0949,1621882564.76794,1621882564.76025,1621883060.72854,0
24,4,2,3,7,1,1,c1_WhyFace,1,proud?,104,F_598.jpg,1621882453.48942,1621882453.49211,108.610869636536,4.87921142578125,113.496024599075,115.596807470322,2.10078287124634,115.746863355637,1.23379325866699,116.982601156235,1,left,1.20584297180176,116.980656614304,604.479122152329,607.239122152328,1621882564.86029,1621882564.86822,1621882569.74545,1621882569.75135,1621882571.84623,1621882571.99628,1621882572.00132,1621882573.23202,1621882573.23008,1621883060.72854,1
24,4,2,3,7,2,1,c1_WhyFace,2,proud?,102,F_760.jpg,1621882453.48942,1621882453.49211,108.610869636536,4.87921142578125,113.496024599075,115.596807470322,0.3,117.297442188263,1.1004102230072,118.402286996841,3,right,1.07932305335999,118.39785241127,604.479122152329,607.239122152328,1621882564.86029,1621882564.86822,1621882569.74545,1621882569.75135,1621882571.84623,1621882573.54686,1621882573.55146,1621882574.65171,1621882574.64727,1621883060.72854,0
24,4,2,3,7,3,1,c1_WhyFace,1,proud?,97,F_582.jpg,1621882453.48942,1621882453.49211,108.610869636536,4.87921142578125,113.496024599075,115.596807470322,0.3,118.714636316299,0.816972017288208,119.535279026031,1,left,0.790908098220825,119.531608333588,604.479122152329,607.239122152328,1621882564.86029,1621882564.86822,1621882569.74545,1621882569.75135,1621882571.84623,1621882574.96406,1621882574.96819,1621882575.7847,1621882575.78103,1621883060.72854,1
24,4,2,3,7,4,1,c1_WhyFace,2,proud?,98,F_412.jpg,1621882453.48942,1621882453.49211,108.610869636536,4.87921142578125,113.496024599075,115.596807470322,0.3,119.84839343071,0.850317001342773,120.702050199509,3,right,0.831821918487549,120.698710432053,604.479122152329,607.239122152328,1621882564.86029,1621882564.86822,1621882569.74545,1621882569.75135,1621882571.84623,1621882576.09781,1621882576.10146,1621882576.95147,1621882576.94813,1621883060.72854,0
24,4,2,3,7,5,1,c1_WhyFace,1,proud?,101,F_083.jpg,1621882453.48942,1621882453.49211,108.610869636536,4.87921142578125,113.496024599075,115.596807470322,0.3,121.015493860245,1.30048656463623,122.318642129898,1,left,1.27874708175659,122.315980424881,604.479122152329,607.239122152328,1621882564.86029,1621882564.86822,1621882569.74545,1621882569.75135,1621882571.84623,1621882577.26491,1621882577.26841,1621882578.56806,1621882578.5654,1621883060.72854,1
24,4,2,3,7,6,1,c1_WhyFace,2,proud?,100,F_776.jpg,1621882453.48942,1621882453.49211,108.610869636536,4.87921142578125,113.496024599075,115.596807470322,0.3,122.632764091492,1.45054149627686,124.085473051071,3,right,1.43071413040161,124.083305587769,604.479122152329,607.239122152328,1621882564.86029,1621882564.86822,1621882569.74545,1621882569.75135,1621882571.84623,1621882578.88218,1621882578.88468,1621882580.33489,1621882580.33273,1621883060.72854,0
24,4,2,3,7,7,1,c1_WhyFace,1,proud?,103,F_618.jpg,1621882453.48942,1621882453.49211,108.610869636536,4.87921142578125,113.496024599075,115.596807470322,0.3,124.400090923309,1.10041046142578,125.502727022171,1,left,1.08841013908386,125.500501384735,604.479122152329,607.239122152328,1621882564.86029,1621882564.86822,1621882569.74545,1621882569.75135,1621882571.84623,1621882580.64951,1621882580.65152,1621882581.75215,1621882581.74992,1621883060.72854,1
24,4,2,3,7,8,1,c1_WhyFace,1,proud?,99,F_695.jpg,1621882453.48942,1621882453.49211,108.610869636536,4.87921142578125,113.496024599075,115.596807470322,0.3,125.817285528183,1.71730780601501,127.667810192108,1,left,1.82563586235046,127.534593334198,604.479122152329,607.239122152328,1621882564.86029,1621882564.86822,1621882569.74545,1621882569.75135,1621882571.84623,1621882582.06671,1621882582.06849,1621882583.91723,1621882583.78401,1621883060.72854,1
24,4,2,3,8,1,3,c3_HowFace,1,looking to side?,72,F_590.jpg,1621882453.48942,1621882453.49211,127.751340618134,3.26869940757751,131.035898675919,133.136681547165,2.10078287124634,133.286738147736,0.900336027145386,134.201921215057,1,left,0.888330936431885,134.187074174881,604.479122152329,607.239122152328,1621882584.00076,1621882584.00246,1621882587.28532,1621882587.28763,1621882589.3861,1621882589.53616,1621882589.53832,1621882590.45134,1621882590.4365,1621883060.72854,1
24,4,2,3,8,2,3,c3_HowFace,1,looking to side?,71,F_433.jpg,1621882453.48942,1621882453.49211,127.751340618134,3.26869940757751,131.035898675919,133.136681547165,0.3,134.503858318329,0.733606815338135,135.239731063843,1,left,0.713624000549316,135.237465133667,604.479122152329,607.239122152328,1621882584.00076,1621882584.00246,1621882587.28532,1621882587.28763,1621882589.3861,1621882590.75328,1621882590.75549,1621882591.48915,1621882591.48689,1621883060.72854,1
24,4,2,3,8,3,3,c3_HowFace,1,looking to side?,67,F_716.jpg,1621882453.48942,1621882453.49211,127.751340618134,3.26869940757751,131.035898675919,133.136681547165,0.3,135.554251184464,0.716933965682983,136.273551216125,1,left,0.696106910705566,136.271185150146,604.479122152329,607.239122152328,1621882584.00076,1621882584.00246,1621882587.28532,1621882587.28763,1621882589.3861,1621882591.80367,1621882591.80537,1621882592.52297,1621882592.52061,1621883060.72854,1
24,4,2,3,8,4,3,c3_HowFace,2,looking to side?,70,F_779.jpg,1621882453.48942,1621882453.49211,127.751340618134,3.26869940757751,131.035898675919,133.136681547165,0.3,136.587968101501,1.71730875968933,NaN,0,NA,0,138.305276861191,604.479122152329,607.239122152328,1621882584.00076,1621882584.00246,1621882587.28532,1621882587.28763,1621882589.3861,1621882592.83739,1621882592.84011,NaN,1621882594.5547,1621883060.72854,0
24,4,2,3,8,5,3,c3_HowFace,1,looking to side?,68,F_760.jpg,1621882453.48942,1621882453.49211,127.751340618134,3.26869940757751,131.035898675919,133.136681547165,0.3,138.622061719894,1.20044684410095,139.824539175034,1,left,1.17774677276611,139.822508563995,604.479122152329,607.239122152328,1621882584.00076,1621882584.00246,1621882587.28532,1621882587.28763,1621882589.3861,1621882594.87148,1621882594.87392,1621882596.07396,1621882596.07193,1621883060.72854,1
24,4,2,3,8,6,3,c3_HowFace,2,looking to side?,66,F_111.jpg,1621882453.48942,1621882453.49211,127.751340618134,3.26869940757751,131.035898675919,133.136681547165,0.3,140.139293422699,0.983700275421143,141.125079145432,3,right,0.963451862335205,141.12299369812,604.479122152329,607.239122152328,1621882584.00076,1621882584.00246,1621882587.28532,1621882587.28763,1621882589.3861,1621882596.38871,1621882596.39056,1621882597.3745,1621882597.37241,1621883060.72854,0
24,4,2,3,8,7,3,c3_HowFace,1,looking to side?,69,F_110.jpg,1621882453.48942,1621882453.49211,127.751340618134,3.26869940757751,131.035898675919,133.136681547165,0.3,141.439778556824,1.16710138320923,142.60927819252,1,left,1.14571189880371,142.606879940033,604.479122152329,607.239122152328,1621882584.00076,1621882584.00246,1621882587.28532,1621882587.28763,1621882589.3861,1621882597.6892,1621882597.69166,1621882598.8587,1621882598.8563,1621883060.72854,1
24,4,2,3,8,8,3,c3_HowFace,2,looking to side?,65,F_798.jpg,1621882453.48942,1621882453.49211,127.751340618134,3.26869940757751,131.035898675919,133.136681547165,0.3,142.923664083481,1.0170476436615,143.942572107315,3,right,0.994041919708252,143.940711727142,604.479122152329,607.239122152328,1621882584.00076,1621882584.00246,1621882587.28532,1621882587.28763,1621882589.3861,1621882599.17308,1621882599.1752,1621882600.19199,1621882600.19013,1621883060.72854,0
24,4,2,3,9,1,1,c1_WhyFace,1,argument?,43,F_716.jpg,1621882453.48942,1621882453.49211,144.040748586655,6.08730745315552,150.143024673462,152.243807067871,2.10078239440918,152.393863668442,0.983699798583984,153.380440225601,1,left,0.959723949432373,153.377563467026,604.479122152329,607.239122152328,1621882600.29017,1621882600.29214,1621882606.39245,1621882606.39429,1621882608.49323,1621882608.64328,1621882608.64551,1621882609.62986,1621882609.62698,1621883060.72854,1
24,4,2,3,9,2,1,c1_WhyFace,2,argument?,44,F_139.jpg,1621882453.48942,1621882453.49211,144.040748586655,6.08730745315552,150.143024673462,152.243807067871,0.3,153.694348802567,1.1504282951355,154.852198114395,3,right,1.13043093681335,154.844777097702,604.479122152329,607.239122152328,1621882600.29017,1621882600.29214,1621882606.39245,1621882606.39429,1621882608.49323,1621882609.94377,1621882609.94591,1621882611.10162,1621882611.0942,1621883060.72854,0
24,4,2,3,9,3,1,c1_WhyFace,1,argument?,41,F_712.jpg,1621882453.48942,1621882453.49211,144.040748586655,6.08730745315552,150.143024673462,152.243807067871,0.3,155.161562433243,1.01704597473145,156.185607185364,1,left,0.998930931091309,156.178608407974,604.479122152329,607.239122152328,1621882600.29017,1621882600.29214,1621882606.39245,1621882606.39429,1621882608.49323,1621882611.41098,1621882611.41307,1621882612.43503,1621882612.42803,1621883060.72854,1
24,4,2,3,9,4,1,c1_WhyFace,2,argument?,45,F_433.jpg,1621882453.48942,1621882453.49211,144.040748586655,6.08730745315552,150.143024673462,152.243807067871,0.3,156.495392313004,1.28381299972534,157.781561126709,3,right,1.26132917404175,157.779205312729,604.479122152329,607.239122152328,1621882600.29017,1621882600.29214,1621882606.39245,1621882606.39429,1621882608.49323,1621882612.74481,1621882612.74719,1621882614.03098,1621882614.02863,1621883060.72854,0
24,4,2,3,9,5,1,c1_WhyFace,1,argument?,42,F_403.jpg,1621882453.48942,1621882453.49211,144.040748586655,6.08730745315552,150.143024673462,152.243807067871,0.3,158.095989933014,0.833643674850464,158.935261001587,1,left,0.819950103759766,158.929633607864,604.479122152329,607.239122152328,1621882600.29017,1621882600.29214,1621882606.39245,1621882606.39429,1621882608.49323,1621882614.34541,1621882614.34808,1621882615.18468,1621882615.17905,1621883060.72854,1
24,4,2,3,9,6,1,c1_WhyFace,2,argument?,46,F_844.jpg,1621882453.48942,1621882453.49211,144.040748586655,6.08730745315552,150.143024673462,152.243807067871,0.3,159.246419658661,1.1504282951355,160.401997079849,3,right,1.13627791404724,160.396847953796,604.479122152329,607.239122152328,1621882600.29017,1621882600.29214,1621882606.39245,1621882606.39429,1621882608.49323,1621882615.49584,1621882615.5015,1621882616.65142,1621882616.64627,1621883060.72854,0
24,4,2,3,9,7,1,c1_WhyFace,1,argument?,47,F_743.jpg,1621882453.48942,1621882453.49211,144.040748586655,6.08730745315552,150.143024673462,152.243807067871,0.3,160.713631381989,0.850318193435669,161.568608036041,1,left,0.837877988815308,161.563949575424,604.479122152329,607.239122152328,1621882600.29017,1621882600.29214,1621882606.39245,1621882606.39429,1621882608.49323,1621882616.96305,1621882616.96842,1621882617.81803,1621882617.81337,1621883060.72854,1
24,4,2,3,9,8,1,c1_WhyFace,1,argument?,48,F_758.jpg,1621882453.48942,1621882453.49211,144.040748586655,6.08730745315552,150.143024673462,152.243807067871,0.3,161.880734434128,0.983701467514038,162.866457214355,1,left,0.956554174423218,162.864435901642,604.479122152329,607.239122152328,1621882600.29017,1621882600.29214,1621882606.39245,1621882606.39429,1621882608.49323,1621882618.13016,1621882618.13454,1621882619.11588,1621882619.11386,1621883060.72854,1
24,4,2,3,10,1,3,c3_HowFace,1,open mouth?,80,F_844.jpg,1621882453.48942,1621882453.49211,162.964472522736,5.00359559059143,167.983010520935,170.083793869019,2.1007833480835,170.233849515915,0.750280141830444,170.986164083481,1,left,0.730066061019897,170.984129657745,604.479122152329,607.239122152328,1621882619.21389,1621882619.21611,1621882624.23243,1621882624.23448,1621882626.33321,1621882626.48327,1621882626.48528,1621882627.23558,1621882627.23355,1621883060.72854,1
24,4,2,3,10,2,3,c3_HowFace,1,open mouth?,74,F_776.jpg,1621882453.48942,1621882453.49211,162.964472522736,5.00359559059143,167.983010520935,170.083793869019,0.3,171.300914039612,0.600224256515503,171.918878068924,1,left,0.589723110198975,171.901138296127,604.479122152329,607.239122152328,1621882619.21389,1621882619.21611,1621882624.23243,1621882624.23448,1621882626.33321,1621882627.55033,1621882627.55256,1621882628.1683,1621882628.15056,1621883060.72854,1
24,4,2,3,10,3,3,c3_HowFace,2,open mouth?,76,F_544.jpg,1621882453.48942,1621882453.49211,162.964472522736,5.00359559059143,167.983010520935,170.083793869019,0.3,172.217922439575,0.950355768203735,173.185407152176,3,right,0.939740180969238,173.168278207779,604.479122152329,607.239122152328,1621882619.21389,1621882619.21611,1621882624.23243,1621882624.23448,1621882626.33321,1621882628.46734,1621882628.46925,1621882629.43483,1621882629.4177,1621883060.72854,0
24,4,2,3,10,4,3,c3_HowFace,1,open mouth?,78,F_692.jpg,1621882453.48942,1621882453.49211,162.964472522736,5.00359559059143,167.983010520935,170.083793869019,0.3,173.485062589645,0.65024209022522,174.152476062775,1,left,0.640342950820923,174.135304679871,604.479122152329,607.239122152328,1621882619.21389,1621882619.21611,1621882624.23243,1621882624.23448,1621882626.33321,1621882629.73448,1621882629.73665,1621882630.4019,1621882630.38473,1621883060.72854,1
24,4,2,3,10,5,3,c3_HowFace,2,open mouth?,77,F_584.jpg,1621882453.48942,1621882453.49211,162.964472522736,5.00359559059143,167.983010520935,170.083793869019,0.3,174.452089776993,0.816971063613892,175.271343221664,3,right,0.793426990509033,175.269060840607,604.479122152329,607.239122152328,1621882619.21389,1621882619.21611,1621882624.23243,1621882624.23448,1621882626.33321,1621882630.70151,1621882630.70392,1621882631.52076,1621882631.51848,1621883060.72854,0
24,4,2,3,10,6,3,c3_HowFace,1,open mouth?,73,F_403.jpg,1621882453.48942,1621882453.49211,162.964472522736,5.00359559059143,167.983010520935,170.083793869019,0.3,175.58584569931,0.666914701461792,176.254780044556,1,left,0.643154144287109,176.252760400772,604.479122152329,607.239122152328,1621882619.21389,1621882619.21611,1621882624.23243,1621882624.23448,1621882626.33321,1621882631.83527,1621882631.83741,1621882632.5042,1621882632.50218,1621883060.72854,1
24,4,2,3,10,7,3,c3_HowFace,1,open mouth?,75,F_086.jpg,1621882453.48942,1621882453.49211,162.964472522736,5.00359559059143,167.983010520935,170.083793869019,0.3,176.569545974731,0.683587789535522,177.255303134918,1,left,0.660454034805298,177.253133764267,604.479122152329,607.239122152328,1621882619.21389,1621882619.21611,1621882624.23243,1621882624.23448,1621882626.33321,1621882632.81897,1621882632.82108,1621882633.50472,1621882633.50255,1621883060.72854,1
24,4,2,3,10,8,3,c3_HowFace,2,open mouth?,79,F_648.jpg,1621882453.48942,1621882453.49211,162.964472522736,5.00359559059143,167.983010520935,170.083793869019,0.3,177.569919338226,0.866989135742188,178.451970090866,3,right,0.856174945831299,178.436908473969,604.479122152329,607.239122152328,1621882619.21389,1621882619.21611,1621882624.23243,1621882624.23448,1621882626.33321,1621882633.81934,1621882633.82157,1621882634.70139,1621882634.68633,1621883060.72854,0
24,4,2,3,11,1,4,c4_HowHand,1,pressing button?,88,H_019.jpg,1621882453.48942,1621882453.49211,178.553618659973,7.30446743965149,185.873015632629,187.973798980713,2.1007833480835,188.123853912354,0.616897821426392,188.743029108047,1,left,0.597584009170532,188.74075173378,604.479122152329,607.239122152328,1621882634.80304,1621882634.80543,1621882642.12244,1621882642.12457,1621882644.22322,1621882644.37327,1621882644.37533,1621882644.99245,1621882644.99017,1621883060.72854,1
24,4,2,3,11,2,4,c4_HowHand,2,pressing button?,87,H_024.jpg,1621882453.48942,1621882453.49211,178.553618659973,7.30446743965149,185.873015632629,187.973798980713,0.3,189.057535400391,0.783625602722168,189.843689193726,3,right,0.758542060852051,189.841161003113,604.479122152329,607.239122152328,1621882634.80304,1621882634.80543,1621882642.12244,1621882642.12457,1621882644.22322,1621882645.30696,1621882645.30875,1621882646.09311,1621882646.09058,1621883060.72854,0
24,4,2,3,11,3,4,c4_HowHand,2,pressing button?,85,H_130.jpg,1621882453.48942,1621882453.49211,178.553618659973,7.30446743965149,185.873015632629,187.973798980713,0.3,190.157946577072,0.850316762924194,191.019048204422,3,right,0.836826086044312,191.008263339996,604.479122152329,607.239122152328,1621882634.80304,1621882634.80543,1621882642.12244,1621882642.12457,1621882644.22322,1621882646.40737,1621882646.40963,1621882647.26847,1621882647.25768,1621883060.72854,0
24,4,2,3,11,4,4,c4_HowHand,1,pressing button?,83,H_502.jpg,1621882453.48942,1621882453.49211,178.553618659973,7.30446743965149,185.873015632629,187.973798980713,0.3,191.325047245026,0.750281095504761,192.077943077087,1,left,0.730679035186768,192.07532834053,604.479122152329,607.239122152328,1621882634.80304,1621882634.80543,1621882642.12244,1621882642.12457,1621882644.22322,1621882647.57447,1621882647.57694,1621882648.32736,1621882648.32475,1621883060.72854,1
24,4,2,3,11,5,4,c4_HowHand,2,pressing button?,81,H_261.jpg,1621882453.48942,1621882453.49211,178.553618659973,7.30446743965149,185.873015632629,187.973798980713,0.3,192.392113437653,0.833644390106201,193.235535135269,3,right,0.820230960845947,193.225757827759,604.479122152329,607.239122152328,1621882634.80304,1621882634.80543,1621882642.12244,1621882642.12457,1621882644.22322,1621882648.64153,1621882648.64324,1621882649.48496,1621882649.47518,1621883060.72854,0
24,4,2,3,11,6,4,c4_HowHand,1,pressing button?,86,H_332.jpg,1621882453.48942,1621882453.49211,178.553618659973,7.30446743965149,185.873015632629,187.973798980713,0.3,193.542541971207,0.716934442520142,194.26899312973,1,left,0.696091890335083,194.259476413727,604.479122152329,607.239122152328,1621882634.80304,1621882634.80543,1621882642.12244,1621882642.12457,1621882644.22322,1621882649.79196,1621882649.79443,1621882650.51841,1621882650.5089,1621883060.72854,1
24,4,2,3,11,7,4,c4_HowHand,1,pressing button?,82,H_126.jpg,1621882453.48942,1621882453.49211,178.553618659973,7.30446743965149,185.873015632629,187.973798980713,0.3,194.576260080338,0.666916608810425,195.245295038223,1,left,0.645637989044189,195.243176689148,604.479122152329,607.239122152328,1621882634.80304,1621882634.80543,1621882642.12244,1621882642.12457,1621882644.22322,1621882650.82568,1621882650.82766,1621882651.49472,1621882651.4926,1621883060.72854,1
24,4,2,3,11,8,4,c4_HowHand,1,pressing button?,84,H_483.jpg,1621882453.48942,1621882453.49211,178.553618659973,7.30446743965149,185.873015632629,187.973798980713,0.3,195.559961547852,1.11708283424377,196.679344167709,1,left,1.09529280662537,196.677044382095,604.479122152329,607.239122152328,1621882634.80304,1621882634.80543,1621882642.12244,1621882642.12457,1621882644.22322,1621882651.80938,1621882651.81131,1621882652.92877,1621882652.92647,1621883060.72854,1
24,4,2,3,12,1,2,c2_WhyHand,1,competing?,9,H_261.jpg,1621882453.48942,1621882453.49211,196.777081956863,6.871089220047,203.662982931137,205.763766517639,2.10078358650208,205.913822641373,0.716933965682983,206.635494222641,1,left,0.691892147064209,206.630756607056,604.479122152329,607.239122152328,1621882653.0265,1621882653.03511,1621882659.9124,1621882659.91814,1621882662.01319,1621882662.16324,1621882662.16824,1621882662.88492,1621882662.88018,1621883060.72854,1
24,4,2,3,12,2,2,c2_WhyHand,2,competing?,12,H_483.jpg,1621882453.48942,1621882453.49211,196.777081956863,6.871089220047,203.662982931137,205.763766517639,0.3,206.947541227341,0.80029821395874,207.75192522049,3,right,0.785222053527832,207.747839441299,604.479122152329,607.239122152328,1621882653.0265,1621882653.03511,1621882659.9124,1621882659.91814,1621882662.01319,1621882663.19696,1621882663.20122,1621882664.00135,1621882663.99726,1621883060.72854,0
24,4,2,3,12,3,2,c2_WhyHand,1,competing?,14,H_132.jpg,1621882453.48942,1621882453.49211,196.777081956863,6.871089220047,203.662982931137,205.763766517639,0.3,208.064624538422,0.66691517829895,208.735553016663,1,left,0.651609897613525,208.731539716721,604.479122152329,607.239122152328,1621882653.0265,1621882653.03511,1621882659.9124,1621882659.91814,1621882662.01319,1621882664.31405,1621882664.31818,1621882664.98497,1621882664.98096,1621883060.72854,1
24,4,2,3,12,4,2,c2_WhyHand,2,competing?,10,H_126.jpg,1621882453.48942,1621882453.49211,196.777081956863,6.871089220047,203.662982931137,205.763766517639,0.3,209.048324813843,0.816970825195312,209.868409147263,3,right,0.798837900161743,209.865295639038,604.479122152329,607.239122152328,1621882653.0265,1621882653.03511,1621882659.9124,1621882659.91814,1621882662.01319,1621882665.29775,1621882665.3013,1621882666.11783,1621882666.11472,1621883060.72854,0
24,4,2,3,12,5,2,c2_WhyHand,1,competing?,16,H_136.jpg,1621882453.48942,1621882453.49211,196.777081956863,6.871089220047,203.662982931137,205.763766517639,0.3,210.18208073616,0.80029821395874,210.9857280159,1,left,0.784173965454102,210.982378950119,604.479122152329,607.239122152328,1621882653.0265,1621882653.03511,1621882659.9124,1621882659.91814,1621882662.01319,1621882666.4315,1621882666.43477,1621882667.23515,1621882667.2318,1621883060.72854,1
24,4,2,3,12,6,2,c2_WhyHand,2,competing?,11,H_502.jpg,1621882453.48942,1621882453.49211,196.777081956863,6.871089220047,203.662982931137,205.763766517639,0.3,211.299163331985,1.11708450317383,212.418595066071,3,right,1.09945106506348,212.416247835159,604.479122152329,607.239122152328,1621882653.0265,1621882653.03511,1621882659.9124,1621882659.91814,1621882662.01319,1621882667.54858,1621882667.55132,1621882668.66802,1621882668.66567,1621883060.72854,0
24,4,2,3,12,7,2,c2_WhyHand,1,competing?,13,H_003.jpg,1621882453.48942,1621882453.49211,196.777081956863,6.871089220047,203.662982931137,205.763766517639,0.3,212.733032217026,0.633569717407227,213.368781080246,1,left,0.61351490020752,213.366601934433,604.479122152329,607.239122152328,1621882653.0265,1621882653.03511,1621882659.9124,1621882659.91814,1621882662.01319,1621882668.98245,1621882668.98461,1621882669.6182,1621882669.61602,1621883060.72854,1
24,4,2,3,12,8,2,c2_WhyHand,1,competing?,15,H_170.jpg,1621882453.48942,1621882453.49211,196.777081956863,6.871089220047,203.662982931137,205.763766517639,0.3,213.683386316299,0.65024209022522,214.335431089401,1,left,0.640304088592529,214.333628406525,604.479122152329,607.239122152328,1621882653.0265,1621882653.03511,1621882659.9124,1621882659.91814,1621882662.01319,1621882669.93281,1621882669.93495,1621882670.58485,1621882670.58305,1621883060.72854,1
24,4,2,3,13,1,1,c1_WhyFace,1,self-doubt?,29,F_544.jpg,1621882453.48942,1621882453.49211,214.433665742874,7.2844123840332,221.736389865875,223.820500602722,2.08411073684692,223.987228622437,1.01704597473145,225.006463041306,1,left,0.993775129318237,225.004274597168,604.479122152329,607.239122152328,1621882670.68309,1621882670.68541,1621882677.98581,1621882677.98784,1621882680.06992,1621882680.23665,1621882680.23854,1621882681.25588,1621882681.2537,1621883060.72854,1
24,4,2,3,13,2,1,c1_WhyFace,2,self-doubt?,27,F_086.jpg,1621882453.48942,1621882453.49211,214.433665742874,7.2844123840332,221.736389865875,223.820500602722,0.3,225.321059932709,0.850316762924194,226.185294141769,3,right,0.837141990661621,226.171376695633,604.479122152329,607.239122152328,1621882670.68309,1621882670.68541,1621882677.98581,1621882677.98784,1621882680.06992,1621882681.57048,1621882681.57287,1621882682.43472,1621882682.4208,1621883060.72854,0
24,4,2,3,13,3,1,c1_WhyFace,1,self-doubt?,25,F_798.jpg,1621882453.48942,1621882453.49211,214.433665742874,7.2844123840332,221.736389865875,223.820500602722,0.3,226.488160839081,1.03372025489807,227.523982038498,1,left,1.01838421821594,227.521881093979,604.479122152329,607.239122152328,1621882670.68309,1621882670.68541,1621882677.98581,1621882677.98784,1621882680.06992,1621882682.73758,1621882682.74019,1621882683.7734,1621882683.7713,1621883060.72854,1
24,4,2,3,13,4,1,c1_WhyFace,1,self-doubt?,26,F_111.jpg,1621882453.48942,1621882453.49211,214.433665742874,7.2844123840332,221.736389865875,223.820500602722,0.3,227.838665237427,1.06706476211548,228.907981147766,1,left,1.04793906211853,228.905729999542,604.479122152329,607.239122152328,1621882670.68309,1621882670.68541,1621882677.98581,1621882677.98784,1621882680.06992,1621882684.08809,1621882684.09014,1621882685.1574,1621882685.15515,1621883060.72854,1
24,4,2,3,13,5,1,c1_WhyFace,2,self-doubt?,31,F_774.jpg,1621882453.48942,1621882453.49211,214.433665742874,7.2844123840332,221.736389865875,223.820500602722,0.3,229.222514381409,1.03371906280518,230.258396139145,3,right,1.01443600654602,230.256233444214,604.479122152329,607.239122152328,1621882670.68309,1621882670.68541,1621882677.98581,1621882677.98784,1621882680.06992,1621882685.47194,1621882685.47403,1621882686.50782,1621882686.50565,1621883060.72854,0
24,4,2,3,13,6,1,c1_WhyFace,1,self-doubt?,28,F_754.jpg,1621882453.48942,1621882453.49211,214.433665742874,7.2844123840332,221.736389865875,223.820500602722,0.3,230.573018302917,1.05039095878601,231.635775079727,1,left,1.03746485710144,231.623409261704,604.479122152329,607.239122152328,1621882670.68309,1621882670.68541,1621882677.98581,1621882677.98784,1621882680.06992,1621882686.82244,1621882686.82491,1621882687.8852,1621882687.87283,1621883060.72854,1
24,4,2,3,13,7,1,c1_WhyFace,2,self-doubt?,32,F_128.jpg,1621882453.48942,1621882453.49211,214.433665742874,7.2844123840332,221.736389865875,223.820500602722,0.3,231.940194597244,1.06706476211548,233.01893614769,3,right,1.05372500419617,233.00725935936,604.479122152329,607.239122152328,1621882670.68309,1621882670.68541,1621882677.98581,1621882677.98784,1621882680.06992,1621882688.18962,1621882688.19153,1621882689.26836,1621882689.25668,1621883060.72854,0
24,4,2,3,13,8,1,c1_WhyFace,1,self-doubt?,30,F_584.jpg,1621882453.48942,1621882453.49211,214.433665742874,7.2844123840332,221.736389865875,223.820500602722,0.3,233.324044933319,1.63394117355347,234.960087051392,3,right,1.6162691116333,234.957986106873,604.479122152329,607.239122152328,1621882670.68309,1621882670.68541,1621882677.98581,1621882677.98784,1621882680.06992,1621882689.57347,1621882689.5755,1621882691.20951,1621882691.20741,1621883060.72854,0
24,4,2,3,14,1,3,c3_HowFace,1,looking at camera?,64,F_128.jpg,1621882453.48942,1621882453.49211,235.091370573044,5.68059849739075,240.776823511124,242.87760638237,2.10078287124634,243.027662744522,0.666916131973267,243.696786155701,1,left,0.640072822570801,243.694578876495,604.479122152329,607.239122152328,1621882691.34079,1621882691.34299,1621882697.02624,1621882697.03455,1621882699.12703,1621882699.27708,1621882699.28516,1621882699.94621,1621882699.944,1621883060.72854,1
24,4,2,3,14,2,3,c3_HowFace,1,looking at camera?,60,F_618.jpg,1621882453.48942,1621882453.49211,235.091370573044,5.68059849739075,240.776823511124,242.87760638237,0.3,244.01136182785,0.616897821426392,244.6356990242,1,left,0.597243070602417,244.628259649277,604.479122152329,607.239122152328,1621882691.34079,1621882691.34299,1621882697.02624,1621882697.03455,1621882699.12703,1621882700.26078,1621882700.26272,1621882700.88512,1621882700.87768,1621883060.72854,1
24,4,2,3,14,3,3,c3_HowFace,1,looking at camera?,62,F_598.jpg,1621882453.48942,1621882453.49211,235.091370573044,5.68059849739075,240.776823511124,242.87760638237,0.3,244.94504450798,0.666915893554688,245.614268054962,1,left,0.643883943557739,245.611960401535,604.479122152329,607.239122152328,1621882691.34079,1621882691.34299,1621882697.02624,1621882697.03455,1621882699.12703,1621882701.19447,1621882701.19658,1621882701.86369,1621882701.86138,1621883060.72854,1
24,4,2,3,14,4,3,c3_HowFace,2,looking at camera?,63,F_743.jpg,1621882453.48942,1621882453.49211,235.091370573044,5.68059849739075,240.776823511124,242.87760638237,0.3,245.92874502182,0.700260877609253,246.631198158264,3,right,0.676119089126587,246.629005899429,604.479122152329,607.239122152328,1621882691.34079,1621882691.34299,1621882697.02624,1621882697.03455,1621882699.12703,1621882702.17817,1621882702.18066,1621882702.88062,1621882702.87843,1621883060.72854,0
24,4,2,3,14,5,3,c3_HowFace,1,looking at camera?,61,F_774.jpg,1621882453.48942,1621882453.49211,235.091370573044,5.68059849739075,240.776823511124,242.87760638237,0.3,246.945790281296,0.616897344589233,247.568813076019,1,left,0.606001138687134,247.562687625885,604.479122152329,607.239122152328,1621882691.34079,1621882691.34299,1621882697.02624,1621882697.03455,1621882699.12703,1621882703.19521,1621882703.19725,1621882703.81823,1621882703.81211,1621883060.72854,1
24,4,2,3,14,6,3,c3_HowFace,2,looking at camera?,57,F_582.jpg,1621882453.48942,1621882453.49211,235.091370573044,5.68059849739075,240.776823511124,242.87760638237,0.3,247.879472007751,0.816970586776733,248.702232112885,3,right,0.803323984146118,248.696442594528,604.479122152329,607.239122152328,1621882691.34079,1621882691.34299,1621882697.02624,1621882697.03455,1621882699.12703,1621882704.12889,1621882704.13123,1621882704.95165,1621882704.94586,1621883060.72854,0
24,4,2,3,14,7,3,c3_HowFace,2,looking at camera?,58,F_754.jpg,1621882453.48942,1621882453.49211,235.091370573044,5.68059849739075,240.776823511124,242.87760638237,0.3,249.013229122162,0.666914701461792,249.685369005203,3,right,0.643696069717407,249.680143823624,604.479122152329,607.239122152328,1621882691.34079,1621882691.34299,1621882697.02624,1621882697.03455,1621882699.12703,1621882705.26265,1621882705.26816,1621882705.93479,1621882705.92956,1621883060.72854,0
24,4,2,3,14,8,3,c3_HowFace,1,looking at camera?,59,F_129.jpg,1621882453.48942,1621882453.49211,235.091370573044,5.68059849739075,240.776823511124,242.87760638237,0.3,249.996927251816,0.750280857086182,250.751952161789,1,left,0.729432821273804,250.747208108902,604.479122152329,607.239122152328,1621882691.34079,1621882691.34299,1621882697.02624,1621882697.03455,1621882699.12703,1621882706.24635,1621882706.2514,1621882707.00137,1621882706.99663,1621883060.72854,1
24,4,2,3,15,1,4,c4_HowHand,1,both hands?,123,H_167.jpg,1621882453.48942,1621882453.49211,250.847245445251,8.71477460861206,259.567164649963,261.66794752121,2.10078287124634,261.818003168106,0.917009115219116,262.752048006058,1,left,0.907311916351318,262.735012283325,604.479122152329,607.239122152328,1621882707.09667,1621882707.10119,1621882715.81659,1621882715.81863,1621882717.91737,1621882718.06742,1621882718.06959,1621882719.00147,1621882718.98443,1621883060.72854,1
24,4,2,3,15,2,4,c4_HowHand,2,both hands?,121,H_091.jpg,1621882453.48942,1621882453.49211,250.847245445251,8.71477460861206,259.567164649963,261.66794752121,0.3,263.05179690361,0.983700752258301,264.03766201973,3,right,0.958405017852783,264.035497655869,604.479122152329,607.239122152328,1621882707.09667,1621882707.10119,1621882715.81659,1621882715.81863,1621882717.91737,1621882719.30122,1621882719.30345,1621882720.28708,1621882720.28492,1621883060.72854,0
24,4,2,3,15,3,4,c4_HowHand,2,both hands?,125,H_627.jpg,1621882453.48942,1621882453.49211,250.847245445251,8.71477460861206,259.567164649963,261.66794752121,0.3,264.352280607224,1.1337571144104,265.488375177383,3,right,1.11803889274597,265.486037721634,604.479122152329,607.239122152328,1621882707.09667,1621882707.10119,1621882715.81659,1621882715.81863,1621882717.91737,1621882720.6017,1621882720.60426,1621882721.7378,1621882721.73546,1621883060.72854,0
24,4,2,3,15,4,4,c4_HowHand,1,both hands?,128,H_027.jpg,1621882453.48942,1621882453.49211,250.847245445251,8.71477460861206,259.567164649963,261.66794752121,0.3,265.802822580338,0.800298929214478,266.605319013596,1,left,0.778121948242188,266.603121509552,604.479122152329,607.239122152328,1621882707.09667,1621882707.10119,1621882715.81659,1621882715.81863,1621882717.91737,1621882722.05224,1621882722.05444,1621882722.85474,1621882722.85254,1621883060.72854,1
24,4,2,3,15,5,4,c4_HowHand,1,both hands?,122,H_111.jpg,1621882453.48942,1621882453.49211,250.847245445251,8.71477460861206,259.567164649963,261.66794752121,0.3,266.919905414581,0.666916131973267,267.602146139145,1,left,0.656672954559326,267.586821546555,604.479122152329,607.239122152328,1621882707.09667,1621882707.10119,1621882715.81659,1621882715.81863,1621882717.91737,1621882723.16933,1621882723.17152,1621882723.85157,1621882723.83624,1621883060.72854,1
24,4,2,3,15,6,4,c4_HowHand,2,both hands?,126,H_159.jpg,1621882453.48942,1621882453.49211,250.847245445251,8.71477460861206,259.567164649963,261.66794752121,0.3,267.903606405258,0.9170081615448,268.822467079163,3,right,0.897149801254272,268.820614566803,604.479122152329,607.239122152328,1621882707.09667,1621882707.10119,1621882715.81659,1621882715.81863,1621882717.91737,1621882724.15303,1621882724.15527,1621882725.07189,1621882725.07004,1621883060.72854,0
24,4,2,3,15,7,4,c4_HowHand,1,both hands?,124,H_581.jpg,1621882453.48942,1621882453.49211,250.847245445251,8.71477460861206,259.567164649963,261.66794752121,0.3,269.137399187088,1.51723313331604,270.657216062546,1,left,1.49112200737,270.654632320404,604.479122152329,607.239122152328,1621882707.09667,1621882707.10119,1621882715.81659,1621882715.81863,1621882717.91737,1621882725.38682,1621882725.38919,1621882726.90664,1621882726.90405,1621883060.72854,1
24,4,2,3,15,8,4,c4_HowHand,1,both hands?,127,H_349.jpg,1621882453.48942,1621882453.49211,250.847245445251,8.71477460861206,259.567164649963,261.66794752121,0.3,270.971417417526,0.950353860855103,271.923842182159,1,left,0.930493116378784,271.921771278381,604.479122152329,607.239122152328,1621882707.09667,1621882707.10119,1621882715.81659,1621882715.81863,1621882717.91737,1621882727.22084,1621882727.22305,1621882728.17326,1621882728.17119,1621883060.72854,1
24,4,2,3,16,1,2,c2_WhyHand,1,self-protection?,89,H_443.jpg,1621882453.48942,1621882453.49211,272.021808137894,6.33021593093872,278.357504358292,280.458288660049,2.10078430175781,280.60834359169,1.41719603538513,282.035732021332,3,right,1.39273190498352,282.025539627075,604.479122152329,607.239122152328,1621882728.27123,1621882728.28544,1621882734.60693,1621882734.61804,1621882736.70771,1621882736.85776,1621882736.86864,1621882738.28515,1621882738.27496,1621883060.72854,0
24,4,2,3,16,2,2,c2_WhyHand,2,self-protection?,90,H_006.jpg,1621882453.48942,1621882453.49211,272.021808137894,6.33021593093872,278.357504358292,280.458288660049,0.3,282.342323293686,0.917009830474854,283.261443128586,3,right,0.896265029907227,283.259333124161,604.479122152329,607.239122152328,1621882728.27123,1621882728.28544,1621882734.60693,1621882734.61804,1621882736.70771,1621882738.59174,1621882738.59379,1621882739.51086,1621882739.50875,1621883060.72854,0
24,4,2,3,16,3,2,c2_WhyHand,1,self-protection?,91,H_581.jpg,1621882453.48942,1621882453.49211,272.021808137894,6.33021593093872,278.357504358292,280.458288660049,0.3,283.576117744446,1.13375568389893,284.71881603241,3,right,1.11920404434204,284.709873428345,604.479122152329,607.239122152328,1621882728.27123,1621882728.28544,1621882734.60693,1621882734.61804,1621882736.70771,1621882739.82554,1621882739.82777,1621882740.96824,1621882740.95929,1621883060.72854,0
24,4,2,3,16,4,2,c2_WhyHand,2,self-protection?,92,H_532.jpg,1621882453.48942,1621882453.49211,272.021808137894,6.33021593093872,278.357504358292,280.458288660049,0.3,285.026658287048,1.66728901863098,286.696132173538,3,right,1.64536690711975,286.693947305679,604.479122152329,607.239122152328,1621882728.27123,1621882728.28544,1621882734.60693,1621882734.61804,1621882736.70771,1621882741.27608,1621882741.27815,1621882742.94555,1621882742.94337,1621883060.72854,0
24,4,2,3,16,5,2,c2_WhyHand,1,self-protection?,96,H_027.jpg,1621882453.48942,1621882453.49211,272.021808137894,6.33021593093872,278.357504358292,280.458288660049,0.3,287.010731687546,0.866989850997925,287.885611047745,1,left,0.855371952056885,287.877721538544,604.479122152329,607.239122152328,1621882728.27123,1621882728.28544,1621882734.60693,1621882734.61804,1621882736.70771,1621882743.26015,1621882743.26277,1621882744.13503,1621882744.12714,1621883060.72854,1
24,4,2,3,16,6,2,c2_WhyHand,1,self-protection?,93,H_038.jpg,1621882453.48942,1621882453.49211,272.021808137894,6.33021593093872,278.357504358292,280.458288660049,0.3,288.194506635666,1.03371906280518,289.235812177658,1,left,1.02269005775452,289.228225698471,604.479122152329,607.239122152328,1621882728.27123,1621882728.28544,1621882734.60693,1621882734.61804,1621882736.70771,1621882744.44393,1621882744.44599,1621882745.48523,1621882745.47765,1621883060.72854,1
24,4,2,3,16,7,2,c2_WhyHand,2,self-protection?,95,H_332.jpg,1621882453.48942,1621882453.49211,272.021808137894,6.33021593093872,278.357504358292,280.458288660049,0.3,289.545010080338,1.03371953964233,290.585655202866,3,right,1.02332615852356,290.57872961998,604.479122152329,607.239122152328,1621882728.27123,1621882728.28544,1621882734.60693,1621882734.61804,1621882736.70771,1621882745.79443,1621882745.79692,1621882746.83508,1621882746.82815,1621883060.72854,0
24,4,2,3,16,8,2,c2_WhyHand,1,self-protection?,94,H_189.jpg,1621882453.48942,1621882453.49211,272.021808137894,6.33021593093872,278.357504358292,280.458288660049,0.3,290.895513525009,1.00037264823914,291.902039041519,1,left,0.982877016067505,291.895886173248,604.479122152329,607.239122152328,1621882728.27123,1621882728.28544,1621882734.60693,1621882734.61804,1621882736.70771,1621882747.14493,1621882747.14702,1621882748.15146,1621882748.14531,1621883060.72854,1
24,4,2,3,17,1,3,c3_HowFace,1,smiling?,118,F_759.jpg,1621882453.48942,1621882453.49211,292.012596359253,7.81944179534912,299.848852624893,301.949635257721,2.10078263282776,302.099692573547,0.866989850997925,302.96868514061,1,left,0.847026824951172,302.966682424545,604.479122152329,607.239122152328,1621882748.26202,1621882748.26504,1621882756.09827,1621882756.10146,1621882758.19906,1621882758.34911,1621882758.35194,1621882759.21811,1621882759.2161,1621883060.72854,1
24,4,2,3,17,2,3,c3_HowFace,2,smiling?,114,F_412.jpg,1621882453.48942,1621882453.49211,292.012596359253,7.81944179534912,299.848852624893,301.949635257721,0.3,303.283466806412,0.733607053756714,304.019271125793,3,right,0.720299005508423,304.017073860168,604.479122152329,607.239122152328,1621882748.26202,1621882748.26504,1621882756.09827,1621882756.10146,1621882758.19906,1621882759.53289,1621882759.53503,1621882760.26869,1621882760.26649,1621883060.72854,0
24,4,2,3,17,3,3,c3_HowFace,1,smiling?,117,F_593.jpg,1621882453.48942,1621882453.49211,292.012596359253,7.81944179534912,299.848852624893,301.949635257721,0.3,304.333858718872,0.733606576919556,305.069385042191,1,left,0.722868204116821,305.067465295792,604.479122152329,607.239122152328,1621882748.26202,1621882748.26504,1621882756.09827,1621882756.10146,1621882758.19906,1621882760.58328,1621882760.58543,1621882761.31881,1621882761.31689,1621883060.72854,1
24,4,2,3,17,4,3,c3_HowFace,2,smiling?,113,F_712.jpg,1621882453.48942,1621882453.49211,292.012596359253,7.81944179534912,299.848852624893,301.949635257721,0.3,305.384250154495,0.78362512588501,306.169776191711,3,right,0.766597986221313,306.16787528038,604.479122152329,607.239122152328,1621882748.26202,1621882748.26504,1621882756.09827,1621882756.10146,1621882758.19906,1621882761.63367,1621882761.6358,1621882762.4192,1621882762.4173,1621883060.72854,0
24,4,2,3,17,5,3,c3_HowFace,1,smiling?,115,F_695.jpg,1621882453.48942,1621882453.49211,292.012596359253,7.81944179534912,299.848852624893,301.949635257721,0.3,306.484660615921,1.03371858596802,307.521347036362,1,left,1.00791096687317,307.518379201889,604.479122152329,607.239122152328,1621882748.26202,1621882748.26504,1621882756.09827,1621882756.10146,1621882758.19906,1621882762.73408,1621882762.73634,1621882763.77077,1621882763.7678,1621883060.72854,1
24,4,2,3,17,6,3,c3_HowFace,1,smiling?,119,F_139.jpg,1621882453.48942,1621882453.49211,292.012596359253,7.81944179534912,299.848852624893,301.949635257721,0.3,307.835163345337,0.766953468322754,308.603816022873,1,left,0.748678922653198,308.60211681366,604.479122152329,607.239122152328,1621882748.26202,1621882748.26504,1621882756.09827,1621882756.10146,1621882758.19906,1621882764.08458,1621882764.08704,1621882764.85324,1621882764.85154,1621883060.72854,1
24,4,2,3,17,7,3,c3_HowFace,1,smiling?,116,F_083.jpg,1621882453.48942,1621882453.49211,292.012596359253,7.81944179534912,299.848852624893,301.949635257721,0.3,308.918901433945,0.716934204101562,309.63812707901,1,left,0.693120002746582,309.635835638046,604.479122152329,607.239122152328,1621882748.26202,1621882748.26504,1621882756.09827,1621882756.10146,1621882758.19906,1621882765.16832,1621882765.17034,1621882765.88755,1621882765.88526,1621883060.72854,1
24,4,2,3,17,8,3,c3_HowFace,2,smiling?,120,F_758.jpg,1621882453.48942,1621882453.49211,292.012596359253,7.81944179534912,299.848852624893,301.949635257721,0.3,309.95262049675,0.766953229904175,310.7217070961,3,right,0.75378680229187,310.719573726654,604.479122152329,607.239122152328,1621882748.26202,1621882748.26504,1621882756.09827,1621882756.10146,1621882758.19906,1621882766.20204,1621882766.20411,1621882766.97113,1621882766.96899,1621883060.72854,0
24,4,2,3,18,1,1,c1_WhyFace,1,admiring?,1,F_593.jpg,1621882453.48942,1621882453.49211,310.819610347748,6.80271077156067,317.638820400238,319.739603748322,2.1007833480835,319.889659156799,0.700261831283569,320.602383127213,1,left,0.691519021987915,320.589920988083,604.479122152329,607.239122152328,1621882767.06903,1621882767.07118,1621882773.88824,1621882773.89054,1621882775.98902,1621882776.13908,1621882776.14109,1621882776.8518,1621882776.83934,1621883060.72854,1
24,4,2,3,18,2,1,c1_WhyFace,2,admiring?,2,F_129.jpg,1621882453.48942,1621882453.49211,310.819610347748,6.80271077156067,317.638820400238,319.739603748322,0.3,320.906705369949,1.00037336349487,321.909181108475,3,right,0.977034091949463,321.907078733444,604.479122152329,607.239122152328,1621882767.06903,1621882767.07118,1621882773.88824,1621882773.89054,1621882775.98902,1621882777.15613,1621882777.15845,1621882778.1586,1621882778.1565,1621883060.72854,0
24,4,2,3,18,3,1,c1_WhyFace,1,admiring?,5,F_759.jpg,1621882453.48942,1621882453.49211,310.819610347748,6.80271077156067,317.638820400238,319.739603748322,0.3,322.223863353729,0.866990327835083,323.093432178497,1,left,0.846680879592896,323.090853681564,604.479122152329,607.239122152328,1621882767.06903,1621882767.07118,1621882773.88824,1621882773.89054,1621882775.98902,1621882778.47328,1621882778.47577,1621882779.34285,1621882779.34027,1621883060.72854,1
24,4,2,3,18,4,1,c1_WhyFace,2,admiring?,6,F_692.jpg,1621882453.48942,1621882453.49211,310.819610347748,6.80271077156067,317.638820400238,319.739603748322,0.3,323.407638301849,1.33383011817932,324.75261806488,3,right,1.31763505935669,324.741468420029,604.479122152329,607.239122152328,1621882767.06903,1621882767.07118,1621882773.88824,1621882773.89054,1621882775.98902,1621882779.65706,1621882779.65919,1621882781.00204,1621882780.99089,1621883060.72854,0
24,4,2,3,18,5,1,c1_WhyFace,1,admiring?,4,F_779.jpg,1621882453.48942,1621882453.49211,310.819610347748,6.80271077156067,317.638820400238,319.739603748322,0.3,325.058253517151,0.783625364303589,325.852146139145,1,left,0.77184796333313,325.841878881454,604.479122152329,607.239122152328,1621882767.06903,1621882767.07118,1621882773.88824,1621882773.89054,1621882775.98902,1621882781.30767,1621882781.30978,1621882782.10157,1621882782.0913,1621883060.72854,1
24,4,2,3,18,6,1,c1_WhyFace,1,admiring?,8,F_590.jpg,1621882453.48942,1621882453.49211,310.819610347748,6.80271077156067,317.638820400238,319.739603748322,0.3,326.158663978577,0.666915655136108,326.835366001129,1,left,0.657183170318604,326.825579633713,604.479122152329,607.239122152328,1621882767.06903,1621882767.07118,1621882773.88824,1621882773.89054,1621882775.98902,1621882782.40808,1621882782.41007,1621882783.08479,1621882783.075,1621883060.72854,1
24,4,2,3,18,7,1,c1_WhyFace,1,admiring?,7,F_648.jpg,1621882453.48942,1621882453.49211,310.819610347748,6.80271077156067,317.638820400238,319.739603748322,0.3,327.142364492416,0.75027871131897,327.902416219711,1,left,0.736830949783325,327.892643203735,604.479122152329,607.239122152328,1621882767.06903,1621882767.07118,1621882773.88824,1621882773.89054,1621882775.98902,1621882783.39179,1621882783.39387,1621882784.15184,1621882784.14206,1621883060.72854,1
24,4,2,3,18,8,1,c1_WhyFace,2,admiring?,3,F_110.jpg,1621882453.48942,1621882453.49211,310.819610347748,6.80271077156067,317.638820400238,319.739603748322,0.3,328.209428300858,0.833645105361938,329.045209159851,3,right,0.811364889144897,329.043073406219,604.479122152329,607.239122152328,1621882767.06903,1621882767.07118,1621882773.88824,1621882773.89054,1621882775.98902,1621882784.45885,1621882784.46103,1621882785.29463,1621882785.29249,1621883060.72854,0
24,4,2,3,19,1,2,c2_WhyHand,1,competing?,9,H_261.jpg,1621882453.48942,1621882453.49211,329.159783353806,6.35222268104553,335.528825750351,337.629608621597,2.10078287124634,337.779664506912,0.716933727264404,338.498766174316,1,left,0.690816879272461,338.496598234177,604.479122152329,607.239122152328,1621882785.4092,1621882785.41145,1621882791.77825,1621882791.78029,1621882793.87903,1621882794.02909,1621882794.03116,1621882794.74819,1621882794.74602,1621883060.72854,1
24,4,2,3,19,2,2,c2_WhyHand,1,competing?,15,H_170.jpg,1621882453.48942,1621882453.49211,329.159783353806,6.35222268104553,335.528825750351,337.629608621597,0.3,338.813383331299,0.583551168441772,339.402378072739,1,left,0.570509910583496,339.396934499741,604.479122152329,607.239122152328,1621882785.4092,1621882785.41145,1621882791.77825,1621882791.78029,1621882793.87903,1621882795.0628,1621882795.06822,1621882795.6518,1621882795.64636,1621883060.72854,1
24,4,2,3,19,3,2,c2_WhyHand,2,competing?,12,H_483.jpg,1621882453.48942,1621882453.49211,329.159783353806,6.35222268104553,335.528825750351,337.629608621597,0.3,339.713719358444,0.917007923126221,340.636002054214,3,right,0.900599002838135,340.63072728157,604.479122152329,607.239122152328,1621882785.4092,1621882785.41145,1621882791.77825,1621882791.78029,1621882793.87903,1621882795.96314,1621882795.96809,1621882796.88542,1621882796.88015,1621883060.72854,0
24,4,2,3,19,4,2,c2_WhyHand,1,competing?,14,H_132.jpg,1621882453.48942,1621882453.49211,329.159783353806,6.35222268104553,335.528825750351,337.629608621597,0.3,340.947513093948,0.516859769821167,341.468560209274,1,left,0.505143165588379,341.46437286377,604.479122152329,607.239122152328,1621882785.4092,1621882785.41145,1621882791.77825,1621882791.78029,1621882793.87903,1621882797.19693,1621882797.2014,1621882797.71798,1621882797.71379,1621883060.72854,1
24,4,2,3,19,5,2,c2_WhyHand,1,competing?,16,H_136.jpg,1621882453.48942,1621882453.49211,329.159783353806,6.35222268104553,335.528825750351,337.629608621597,0.3,341.781157722473,0.65024209022522,342.435363998413,1,left,0.629772901535034,342.431399812698,604.479122152329,607.239122152328,1621882785.4092,1621882785.41145,1621882791.77825,1621882791.78029,1621882793.87903,1621882798.03058,1621882798.03463,1621882798.68478,1621882798.68082,1621883060.72854,1
24,4,2,3,19,6,2,c2_WhyHand,1,competing?,13,H_003.jpg,1621882453.48942,1621882453.49211,329.159783353806,6.35222268104553,335.528825750351,337.629608621597,0.3,342.748184432983,0.583549976348877,343.335389127731,1,left,0.564890146255493,343.331734409332,604.479122152329,607.239122152328,1621882785.4092,1621882785.41145,1621882791.77825,1621882791.78029,1621882793.87903,1621882798.99761,1621882799.00139,1621882799.58481,1621882799.58116,1621883060.72854,1
24,4,2,3,19,7,2,c2_WhyHand,2,competing?,10,H_126.jpg,1621882453.48942,1621882453.49211,329.159783353806,6.35222268104553,335.528825750351,337.629608621597,0.3,343.648520460129,0.90033483505249,344.552350034714,3,right,0.886527061462402,344.548855295181,604.479122152329,607.239122152328,1621882785.4092,1621882785.41145,1621882791.77825,1621882791.78029,1621882793.87903,1621882799.89794,1621882799.90137,1621882800.80177,1621882800.79828,1621883060.72854,0
24,4,2,3,19,8,2,c2_WhyHand,2,competing?,11,H_502.jpg,1621882453.48942,1621882453.49211,329.159783353806,6.35222268104553,335.528825750351,337.629608621597,0.3,344.865640630722,1.01704597473145,345.885219087601,3,right,1.00578188896179,345.882686605454,604.479122152329,607.239122152328,1621882785.4092,1621882785.41145,1621882791.77825,1621882791.78029,1621882793.87903,1621882801.11506,1621882801.11801,1621882802.13464,1621882802.13211,1621883060.72854,0
24,4,2,3,20,1,4,c4_HowHand,1,reaching?,111,H_003.jpg,1621882453.48942,1621882453.49211,345.999396314621,10.9925818443298,357.003500928879,359.104281892776,2.10078096389771,359.25433968544,0.733606815338135,360.002214183807,1,left,0.724696159362793,359.987946500778,604.479122152329,607.239122152328,1621882802.24882,1621882802.25136,1621882813.25292,1621882813.25532,1621882815.3537,1621882815.50376,1621882815.50583,1621882816.25164,1621882816.23737,1621883060.72854,1
24,4,2,3,20,2,4,c4_HowHand,1,reaching?,110,H_364.jpg,1621882453.48942,1621882453.49211,345.999396314621,10.9925818443298,357.003500928879,359.104281892776,0.3,360.304731121063,0.733607292175293,361.040317049026,1,left,0.711206912994385,361.038338413239,604.479122152329,607.239122152328,1621882802.24882,1621882802.25136,1621882813.25292,1621882813.25532,1621882815.3537,1621882816.55415,1621882816.55627,1621882817.28974,1621882817.28776,1621883060.72854,1
24,4,2,3,20,3,4,c4_HowHand,2,reaching?,108,H_532.jpg,1621882453.48942,1621882453.49211,345.999396314621,10.9925818443298,357.003500928879,359.104281892776,0.3,361.355122318268,1.26714015007019,362.624337186813,3,right,1.25029397010803,362.622262468338,604.479122152329,607.239122152328,1621882802.24882,1621882802.25136,1621882813.25292,1621882813.25532,1621882815.3537,1621882817.60454,1621882817.60663,1621882818.87376,1621882818.87168,1621883060.72854,0
24,4,2,3,20,4,4,c4_HowHand,1,reaching?,106,H_006.jpg,1621882453.48942,1621882453.49211,345.999396314621,10.9925818443298,357.003500928879,359.104281892776,0.3,362.939046611786,0.800298929214478,363.741301050186,1,left,0.780297040939331,363.739345541,604.479122152329,607.239122152328,1621882802.24882,1621882802.25136,1621882813.25292,1621882813.25532,1621882815.3537,1621882819.18847,1621882819.19036,1621882819.99072,1621882819.98877,1621883060.72854,1
24,4,2,3,20,5,4,c4_HowHand,2,reaching?,105,H_438.jpg,1621882453.48942,1621882453.49211,345.999396314621,10.9925818443298,357.003500928879,359.104281892776,0.3,364.056130399704,1.30048489570618,365.359222164154,3,right,1.28099703788757,365.35661529541,604.479122152329,607.239122152328,1621882802.24882,1621882802.25136,1621882813.25292,1621882813.25532,1621882815.3537,1621882820.30555,1621882820.30738,1621882821.60864,1621882821.60604,1621883060.72854,0
24,4,2,3,20,6,4,c4_HowHand,1,reaching?,107,H_007.jpg,1621882453.48942,1621882453.49211,345.999396314621,10.9925818443298,357.003500928879,359.104281892776,0.3,365.673400630951,0.800296783447266,366.485462179184,1,left,0.790252923965454,366.473697414398,604.479122152329,607.239122152328,1621882802.24882,1621882802.25136,1621882813.25292,1621882813.25532,1621882815.3537,1621882821.92282,1621882821.92504,1621882822.73488,1621882822.72312,1621883060.72854,1
24,4,2,3,20,7,4,c4_HowHand,1,reaching?,109,H_474.jpg,1621882453.48942,1621882453.49211,345.999396314621,10.9925818443298,357.003500928879,359.104281892776,0.3,366.790482988358,1.28381252288818,368.08526014328,1,left,1.26912689208984,368.074295511246,604.479122152329,607.239122152328,1621882802.24882,1621882802.25136,1621882813.25292,1621882813.25532,1621882815.3537,1621882823.0399,1621882823.04193,1621882824.33468,1621882824.32372,1621883060.72854,1
24,4,2,3,20,8,4,c4_HowHand,2,reaching?,112,H_132.jpg,1621882453.48942,1621882453.49211,345.999396314621,10.9925818443298,357.003500928879,359.104281892776,0.3,368.391080846787,0.78362512588501,369.176808109283,1,left,0.764571905136108,369.174705972672,604.479122152329,607.239122152328,1621882802.24882,1621882802.25136,1621882813.25292,1621882813.25532,1621882815.3537,1621882824.6405,1621882824.6425,1621882825.42623,1621882825.42413,1621883060.72854,0
24,4,2,3,21,1,3,c3_HowFace,1,open mouth?,73,F_403.jpg,1621882453.48942,1621882453.49211,369.291416873932,5.54063415527344,374.843486299515,376.94426940918,2.10078310966492,377.09432600975,0.733607292175293,377.835496177673,1,left,0.713329792022705,377.827933301926,604.479122152329,607.239122152328,1621882825.54084,1621882825.54327,1621882831.09291,1621882831.10135,1621882833.19369,1621882833.34375,1621882833.3516,1621882834.08492,1621882834.07735,1621883060.72854,1
24,4,2,3,21,2,3,c3_HowFace,2,open mouth?,79,F_648.jpg,1621882453.48942,1621882453.49211,369.291416873932,5.54063415527344,374.843486299515,376.94426940918,0.3,378.144717206955,0.683588981628418,378.835320224762,3,right,0.66482400894165,378.828306188583,604.479122152329,607.239122152328,1621882825.54084,1621882825.54327,1621882831.09291,1621882831.10135,1621882833.19369,1621882834.39414,1621882834.39626,1621882835.08474,1621882835.07773,1621883060.72854,0
24,4,2,3,21,3,3,c3_HowFace,1,open mouth?,74,F_776.jpg,1621882453.48942,1621882453.49211,369.291416873932,5.54063415527344,374.843486299515,376.94426940918,0.3,379.145090332031,0.633570671081543,379.785468091965,1,left,0.614457130432129,379.778661003113,604.479122152329,607.239122152328,1621882825.54084,1621882825.54327,1621882831.09291,1621882831.10135,1621882833.19369,1621882835.39451,1621882835.39665,1621882836.03489,1621882836.02808,1621883060.72854,1
24,4,2,3,21,4,3,c3_HowFace,2,open mouth?,77,F_584.jpg,1621882453.48942,1621882453.49211,369.291416873932,5.54063415527344,374.843486299515,376.94426940918,0.3,380.095446100235,0.716933250427246,380.814645042419,3,right,0.692567825317383,380.812379350662,604.479122152329,607.239122152328,1621882825.54084,1621882825.54327,1621882831.09291,1621882831.10135,1621882833.19369,1621882836.34487,1621882836.34701,1621882837.06407,1621882837.0618,1621883060.72854,0
24,4,2,3,21,5,3,c3_HowFace,1,open mouth?,80,F_844.jpg,1621882453.48942,1621882453.49211,369.291416873932,5.54063415527344,374.843486299515,376.94426940918,0.3,381.129164447784,0.550204753875732,381.685368051529,1,left,0.532862901687622,381.67936920166,604.479122152329,607.239122152328,1621882825.54084,1621882825.54327,1621882831.09291,1621882831.10135,1621882833.19369,1621882837.37859,1621882837.38097,1621882837.93479,1621882837.92879,1621883060.72854,1
24,4,2,3,21,6,3,c3_HowFace,1,open mouth?,78,F_692.jpg,1621882453.48942,1621882453.49211,369.291416873932,5.54063415527344,374.843486299515,376.94426940918,0.3,381.996154060364,0.633569002151489,382.635389080048,1,left,0.61263108253479,382.629723062515,604.479122152329,607.239122152328,1621882825.54084,1621882825.54327,1621882831.09291,1621882831.10135,1621882833.19369,1621882838.24557,1621882838.25157,1621882838.88481,1621882838.87914,1621883060.72854,1
24,4,2,3,21,7,3,c3_HowFace,1,open mouth?,75,F_086.jpg,1621882453.48942,1621882453.49211,369.291416873932,5.54063415527344,374.843486299515,376.94426940918,0.3,382.946508874893,0.600223541259766,383.548888196945,1,left,0.572896003723145,383.546732416153,604.479122152329,607.239122152328,1621882825.54084,1621882825.54327,1621882831.09291,1621882831.10135,1621882833.19369,1621882839.19593,1621882839.20155,1621882839.79831,1621882839.79615,1621883060.72854,1
24,4,2,3,21,8,3,c3_HowFace,2,open mouth?,76,F_544.jpg,1621882453.48942,1621882453.49211,369.291416873932,5.54063415527344,374.843486299515,376.94426940918,0.3,383.863517036438,0.883662939071655,384.752184143066,3,right,0.863764047622681,384.74717997551,604.479122152329,607.239122152328,1621882825.54084,1621882825.54327,1621882831.09291,1621882831.10135,1621882833.19369,1621882840.11294,1621882840.11817,1621882841.00161,1621882840.9966,1621883060.72854,0
24,4,2,3,22,1,1,c1_WhyFace,1,argument?,42,F_403.jpg,1621882453.48942,1621882453.49211,384.863890399933,8.6441216468811,393.51711725235,395.617899885178,2.10078263282776,395.767956962585,0.700260639190674,396.470156183243,1,left,0.68530797958374,396.468217601776,604.479122152329,607.239122152328,1621882841.11331,1621882841.11775,1621882849.76654,1621882849.76905,1621882851.86732,1621882852.01738,1621882852.01951,1621882852.71958,1621882852.71764,1621883060.72854,1
24,4,2,3,22,2,1,c1_WhyFace,2,argument?,46,F_844.jpg,1621882453.48942,1621882453.49211,384.863890399933,8.6441216468811,393.51711725235,395.617899885178,0.3,396.785002698898,0.733607053756714,397.520777215958,3,right,0.709549903869629,397.518609752655,604.479122152329,607.239122152328,1621882841.11331,1621882841.11775,1621882849.76654,1621882849.76905,1621882851.86732,1621882853.03442,1621882853.03657,1621882853.7702,1621882853.76803,1621883060.72854,0
24,4,2,3,22,3,1,c1_WhyFace,1,argument?,41,F_712.jpg,1621882453.48942,1621882453.49211,384.863890399933,8.6441216468811,393.51711725235,395.617899885178,0.3,397.835394849777,0.933680295944214,398.771346082687,1,left,0.920255899429321,398.769075145721,604.479122152329,607.239122152328,1621882841.11331,1621882841.11775,1621882849.76654,1621882849.76905,1621882851.86732,1621882854.08482,1621882854.08746,1621882855.02077,1621882855.0185,1621883060.72854,1
24,4,2,3,22,4,1,c1_WhyFace,1,argument?,48,F_758.jpg,1621882453.48942,1621882453.49211,384.863890399933,8.6441216468811,393.51711725235,395.617899885178,0.3,399.085860719681,1.05039095878601,400.138577213287,1,left,1.03664994239807,400.136251678467,604.479122152329,607.239122152328,1621882841.11331,1621882841.11775,1621882849.76654,1621882849.76905,1621882851.86732,1621882855.33528,1621882855.33729,1621882856.388,1621882856.38567,1621883060.72854,1
24,4,2,3,22,5,1,c1_WhyFace,2,argument?,45,F_433.jpg,1621882453.48942,1621882453.49211,384.863890399933,8.6441216468811,393.51711725235,395.617899885178,0.3,400.453037252426,0.950354099273682,401.418861141205,3,right,0.939514875411987,401.4033913517,604.479122152329,607.239122152328,1621882841.11331,1621882841.11775,1621882849.76654,1621882849.76905,1621882851.86732,1621882856.70246,1621882856.7048,1621882857.66828,1621882857.65281,1621883060.72854,0
24,4,2,3,22,6,1,c1_WhyFace,1,argument?,43,F_716.jpg,1621882453.48942,1621882453.49211,384.863890399933,8.6441216468811,393.51711725235,395.617899885178,0.3,401.720176448822,0.900335788726807,402.622671117783,1,left,0.87897801399231,402.620512237549,604.479122152329,607.239122152328,1621882841.11331,1621882841.11775,1621882849.76654,1621882849.76905,1621882851.86732,1621882857.9696,1621882857.97177,1621882858.87209,1621882858.86993,1621883060.72854,1
24,4,2,3,22,7,1,c1_WhyFace,2,argument?,44,F_139.jpg,1621882453.48942,1621882453.49211,384.863890399933,8.6441216468811,393.51711725235,395.617899885178,0.3,402.937296380997,0.967026948928833,403.906892051697,3,right,0.945400953292847,403.904323329926,604.479122152329,607.239122152328,1621882841.11331,1621882841.11775,1621882849.76654,1621882849.76905,1621882851.86732,1621882859.18672,1621882859.18922,1621882860.15631,1621882860.15374,1621883060.72854,0
24,4,2,3,22,8,1,c1_WhyFace,1,argument?,47,F_743.jpg,1621882453.48942,1621882453.49211,384.863890399933,8.6441216468811,393.51711725235,395.617899885178,0.3,404.221108427048,0.933681964874268,405.156903018951,1,left,0.914875030517578,405.154790391922,604.479122152329,607.239122152328,1621882841.11331,1621882841.11775,1621882849.76654,1621882849.76905,1621882851.86732,1621882860.47053,1621882860.47254,1621882861.40632,1621882861.40421,1621883060.72854,1
24,4,2,3,23,1,2,c2_WhyHand,1,helping?,39,H_024.jpg,1621882453.48942,1621882453.49211,405.271499385834,6.45639872550964,411.740579118729,413.841362943649,2.10078382492065,413.991419305801,1.0670645236969,415.060557117462,1,left,1.0473940372467,415.058483829498,604.479122152329,607.239122152328,1621882861.52092,1621882861.52277,1621882867.99,1621882867.99197,1621882870.09078,1621882870.24084,1621882870.24279,1621882871.30998,1621882871.3079,1621883060.72854,1
24,4,2,3,23,2,2,c2_WhyHand,1,helping?,36,H_349.jpg,1621882453.48942,1621882453.49211,405.271499385834,6.45639872550964,411.740579118729,413.841362943649,0.3,415.37526892662,0.750279664993286,416.135387172699,1,left,0.737375020980835,416.125548591614,604.479122152329,607.239122152328,1621882861.52092,1621882861.52277,1621882867.99,1621882867.99197,1621882870.09078,1621882871.62469,1621882871.62647,1621882872.38481,1621882872.37497,1621883060.72854,1
24,4,2,3,23,3,2,c2_WhyHand,1,helping?,38,H_077.jpg,1621882453.48942,1621882453.49211,405.271499385834,6.45639872550964,411.740579118729,413.841362943649,0.3,416.442333211899,0.850317001342773,417.294875135422,1,left,0.826641082763672,417.292650213242,604.479122152329,607.239122152328,1621882861.52092,1621882861.52277,1621882867.99,1621882867.99197,1621882870.09078,1621882872.69175,1621882872.69387,1621882873.5443,1621882873.54207,1621883060.72854,1
24,4,2,3,23,4,2,c2_WhyHand,1,helping?,37,H_474.jpg,1621882453.48942,1621882453.49211,405.271499385834,6.45639872550964,411.740579118729,413.841362943649,0.3,417.609435310364,0.733606338500977,418.352037181854,1,left,0.718156814575195,418.343041648865,604.479122152329,607.239122152328,1621882861.52092,1621882861.52277,1621882867.99,1621882867.99197,1621882870.09078,1621882873.85886,1621882873.8612,1621882874.60146,1621882874.59246,1621883060.72854,1
24,4,2,3,23,5,2,c2_WhyHand,2,helping?,33,H_091.jpg,1621882453.48942,1621882453.49211,405.271499385834,6.45639872550964,411.740579118729,413.841362943649,0.3,418.659826507568,1.03371858596802,419.695710172653,3,right,1.01010704040527,419.693545093536,604.479122152329,607.239122152328,1621882861.52092,1621882861.52277,1621882867.99,1621882867.99197,1621882870.09078,1621882874.90925,1621882874.91145,1621882875.94513,1621882875.94297,1621883060.72854,0
24,4,2,3,23,6,2,c2_WhyHand,2,helping?,35,H_159.jpg,1621882453.48942,1621882453.49211,405.271499385834,6.45639872550964,411.740579118729,413.841362943649,0.3,420.010330905914,0.900335550308228,420.91898106575,3,right,0.88602614402771,420.910666456223,604.479122152329,607.239122152328,1621882861.52092,1621882861.52277,1621882867.99,1621882867.99197,1621882870.09078,1621882876.25975,1621882876.26185,1621882877.1684,1621882877.16009,1621883060.72854,0
24,4,2,3,23,7,2,c2_WhyHand,1,helping?,34,H_111.jpg,1621882453.48942,1621882453.49211,405.271499385834,6.45639872550964,411.740579118729,413.841362943649,0.3,421.22745059967,0.800299406051636,422.03586815834,1,left,0.789278984069824,422.027750005722,604.479122152329,607.239122152328,1621882861.52092,1621882861.52277,1621882867.99,1621882867.99197,1621882870.09078,1621882877.47687,1621882877.47899,1621882878.28529,1621882878.27717,1621883060.72854,1
24,4,2,3,23,8,2,c2_WhyHand,2,helping?,40,H_012.jpg,1621882453.48942,1621882453.49211,405.271499385834,6.45639872550964,411.740579118729,413.841362943649,0.3,422.34453414917,1.06706404685974,423.413765182495,1,left,1.04258108139038,423.41159819603,604.479122152329,607.239122152328,1621882861.52092,1621882861.52277,1621882867.99,1621882867.99197,1621882870.09078,1621882878.59396,1621882878.59609,1621882879.66319,1621882879.66102,1621883060.72854,0
24,4,2,3,24,1,4,c4_HowHand,1,both hands?,122,H_111.jpg,1621882453.48942,1621882453.49211,423.528309335709,6.26973485946655,429.813985815048,431.914769639969,2.10078382492065,432.064824810028,0.750280618667603,432.818611135483,1,left,0.73501992225647,432.815105428696,604.479122152329,607.239122152328,1621882879.77773,1621882879.78482,1621882886.06341,1621882886.06821,1621882888.16419,1621882888.31425,1621882888.31801,1621882889.06803,1621882889.06453,1621883060.72854,1
24,4,2,3,24,2,4,c4_HowHand,1,both hands?,128,H_027.jpg,1621882453.48942,1621882453.49211,423.528309335709,6.26973485946655,429.813985815048,431.914769639969,0.3,433.131890764236,0.633568525314331,433.768793096542,1,left,0.614775896072388,433.765459289551,604.479122152329,607.239122152328,1621882879.77773,1621882879.78482,1621882886.06341,1621882886.06821,1621882888.16419,1621882889.38131,1621882889.38481,1621882890.01821,1621882890.01488,1621883060.72854,1
24,4,2,3,24,3,4,c4_HowHand,2,both hands?,121,H_091.jpg,1621882453.48942,1621882453.49211,423.528309335709,6.26973485946655,429.813985815048,431.914769639969,0.3,434.082244625092,0.883662700653076,434.968911161423,3,right,0.862248182296753,434.965907325745,604.479122152329,607.239122152328,1621882879.77773,1621882879.78482,1621882886.06341,1621882886.06821,1621882888.16419,1621882890.33167,1621882890.33481,1621882891.21833,1621882891.21533,1621883060.72854,0
24,4,2,3,24,4,4,c4_HowHand,1,both hands?,123,H_167.jpg,1621882453.48942,1621882453.49211,423.528309335709,6.26973485946655,429.813985815048,431.914769639969,0.3,435.282692661285,0.633570194244385,435.919133176804,1,left,0.621312141418457,435.91626285553,604.479122152329,607.239122152328,1621882879.77773,1621882879.78482,1621882886.06341,1621882886.06821,1621882888.16419,1621882891.53211,1621882891.53482,1621882892.16855,1621882892.16568,1621883060.72854,1
24,4,2,3,24,5,4,c4_HowHand,1,both hands?,124,H_581.jpg,1621882453.48942,1621882453.49211,423.528309335709,6.26973485946655,429.813985815048,431.914769639969,0.3,436.233046998978,1.6339430809021,437.868701210022,1,left,1.62255120277405,437.86699007988,604.479122152329,607.239122152328,1621882879.77773,1621882879.78482,1621882886.06341,1621882886.06821,1621882888.16419,1621882892.48247,1621882892.48466,1621882894.11812,1621882894.11641,1621883060.72854,1
24,4,2,3,24,6,4,c4_HowHand,2,both hands?,126,H_159.jpg,1621882453.48942,1621882453.49211,423.528309335709,6.26973485946655,429.813985815048,431.914769639969,0.3,438.183774461746,0.733607053756714,438.919732084274,1,left,0.717318058013916,438.917381515503,604.479122152329,607.239122152328,1621882879.77773,1621882879.78482,1621882886.06341,1621882886.06821,1621882888.16419,1621882894.4332,1621882894.43505,1621882895.16915,1621882895.1668,1621883060.72854,0
24,4,2,3,24,7,4,c4_HowHand,1,both hands?,127,H_349.jpg,1621882453.48942,1621882453.49211,423.528309335709,6.26973485946655,429.813985815048,431.914769639969,0.3,439.234165658951,1.21712040901184,440.453338136673,1,left,1.20287203788757,440.451286067963,604.479122152329,607.239122152328,1621882879.77773,1621882879.78482,1621882886.06341,1621882886.06821,1621882888.16419,1621882895.48359,1621882895.48547,1621882896.70276,1621882896.70071,1621883060.72854,1
24,4,2,3,24,8,4,c4_HowHand,2,both hands?,125,H_627.jpg,1621882453.48942,1621882453.49211,423.528309335709,6.26973485946655,429.813985815048,431.914769639969,0.3,440.768070211411,1.38385081291199,442.168569078445,3,right,1.37387800216675,442.151921024323,604.479122152329,607.239122152328,1621882879.77773,1621882879.78482,1621882886.06341,1621882886.06821,1621882888.16419,1621882897.01749,1621882897.01961,1621882898.41799,1621882898.40134,1621883060.72854,0
24,4,2,3,25,1,2,c2_WhyHand,1,healthy?,18,H_438.jpg,1621882453.48942,1621882453.49211,442.285303821564,5.02970123291016,447.320515384674,449.421298732758,2.1007833480835,449.571354379654,1.00037312507629,450.573920001984,1,left,0.961581945419312,450.57172750473,604.479122152329,607.239122152328,1621882898.53472,1621882898.53643,1621882903.56994,1621882903.58461,1621882905.67072,1621882905.82078,1621882905.83483,1621882906.82334,1621882906.82115,1621883060.72854,1
24,4,2,3,25,2,2,c2_WhyHand,1,healthy?,23,H_364.jpg,1621882453.48942,1621882453.49211,442.285303821564,5.02970123291016,447.320515384674,449.421298732758,0.3,450.888512363434,0.800297975540161,451.691443195343,1,left,0.778536081314087,451.688810338974,604.479122152329,607.239122152328,1621882898.53472,1621882898.53643,1621882903.56994,1621882903.58461,1621882905.67072,1621882907.13793,1621882907.14007,1621882907.94086,1621882907.93823,1621883060.72854,1
24,4,2,3,25,3,2,c2_WhyHand,1,healthy?,17,H_362.jpg,1621882453.48942,1621882453.49211,442.285303821564,5.02970123291016,447.320515384674,449.421298732758,0.3,452.005595674515,0.866989850997925,452.88560008049,1,left,0.857702016830444,452.872585525513,604.479122152329,607.239122152328,1621882898.53472,1621882898.53643,1621882903.56994,1621882903.58461,1621882905.67072,1621882908.25502,1621882908.25728,1621882909.13502,1621882909.12201,1621883060.72854,1
24,4,2,3,25,4,2,c2_WhyHand,2,healthy?,24,H_019.jpg,1621882453.48942,1621882453.49211,442.285303821564,5.02970123291016,447.320515384674,449.421298732758,0.3,453.189370622635,0.833643674850464,454.02503203392,3,right,0.813765048980713,454.023014297485,604.479122152329,607.239122152328,1621882898.53472,1621882898.53643,1621882903.56994,1621882903.58461,1621882905.67072,1621882909.43879,1621882909.4408,1621882910.27445,1621882910.27244,1621883060.72854,0
24,4,2,3,25,5,2,c2_WhyHand,1,healthy?,19,H_167.jpg,1621882453.48942,1621882453.49211,442.285303821564,5.02970123291016,447.320515384674,449.421298732758,0.3,454.339799394608,0.616897106170654,454.968624105454,1,left,0.604312896728516,454.956696500778,604.479122152329,607.239122152328,1621882898.53472,1621882898.53643,1621882903.56994,1621882903.58461,1621882905.67072,1621882910.58922,1621882910.59202,1621882911.21804,1621882911.20612,1621883060.72854,1
24,4,2,3,25,6,2,c2_WhyHand,2,healthy?,20,H_007.jpg,1621882453.48942,1621882453.49211,442.285303821564,5.02970123291016,447.320515384674,449.421298732758,0.3,455.273480405808,0.883662462234497,456.1689021492,3,right,0.870388031005859,456.157142868042,604.479122152329,607.239122152328,1621882898.53472,1621882898.53643,1621882903.56994,1621882903.58461,1621882905.67072,1621882911.5229,1621882911.5252,1621882912.41832,1621882912.40656,1621883060.72854,0
24,4,2,3,25,7,2,c2_WhyHand,1,healthy?,21,H_627.jpg,1621882453.48942,1621882453.49211,442.285303821564,5.02970123291016,447.320515384674,449.421298732758,0.3,456.473928918839,1.15042877197266,457.635611047745,1,left,1.13439202308655,457.624357690811,604.479122152329,607.239122152328,1621882898.53472,1621882898.53643,1621882903.56994,1621882903.58461,1621882905.67072,1621882912.72335,1621882912.7255,1621882913.88503,1621882913.87378,1621883060.72854,1
24,4,2,3,25,8,2,c2_WhyHand,2,healthy?,22,H_130.jpg,1621882453.48942,1621882453.49211,442.285303821564,5.02970123291016,447.320515384674,449.421298732758,0.3,457.941141357422,0.883662700653076,458.836740007401,3,right,0.867311954498291,458.824804058075,604.479122152329,607.239122152328,1621882898.53472,1621882898.53643,1621882903.56994,1621882903.58461,1621882905.67072,1621882914.19056,1621882914.19297,1621882915.08616,1621882915.07422,1621883060.72854,0
24,4,2,3,26,1,4,c4_HowHand,1,pressing button?,82,H_126.jpg,1621882453.48942,1621882453.49211,458.958188762665,7.41083431243896,466.377621641159,468.478405942917,2.10078430175781,468.628460636139,0.683588981628418,469.318914165497,1,left,0.661686182022095,469.312049617767,604.479122152329,607.239122152328,1621882915.20761,1621882915.20992,1621882922.62704,1621882922.63469,1621882924.72783,1621882924.87788,1621882924.88454,1621882925.56834,1621882925.56147,1621883060.72854,1
24,4,2,3,26,2,4,c4_HowHand,2,pressing button?,85,H_130.jpg,1621882453.48942,1621882453.49211,458.958188762665,7.41083431243896,466.377621641159,468.478405942917,0.3,469.628834476471,0.733606100082397,470.368954172134,3,right,0.714380025863647,470.362440576553,604.479122152329,607.239122152328,1621882915.20761,1621882915.20992,1621882922.62704,1621882922.63469,1621882924.72783,1621882925.87826,1621882925.88039,1621882926.61838,1621882926.61186,1621883060.72854,0
24,4,2,3,26,3,4,c4_HowHand,1,pressing button?,84,H_483.jpg,1621882453.48942,1621882453.49211,458.958188762665,7.41083431243896,466.377621641159,468.478405942917,0.3,470.679225673676,0.750279903411865,471.432999124527,1,left,0.72154688835144,471.429505577087,604.479122152329,607.239122152328,1621882915.20761,1621882915.20992,1621882922.62704,1621882922.63469,1621882924.72783,1621882926.92865,1621882926.93481,1621882927.68242,1621882927.67893,1621883060.72854,1
24,4,2,3,26,4,4,c4_HowHand,2,pressing button?,87,H_024.jpg,1621882453.48942,1621882453.49211,458.958188762665,7.41083431243896,466.377621641159,468.478405942917,0.3,471.746291151047,1.0337188243866,472.785542001724,3,right,1.01590490341187,472.780009975433,604.479122152329,607.239122152328,1621882915.20761,1621882915.20992,1621882922.62704,1621882922.63469,1621882924.72783,1621882927.99571,1621882928.00126,1621882929.03496,1621882929.02943,1621883060.72854,0
24,4,2,3,26,5,4,c4_HowHand,1,pressing button?,86,H_332.jpg,1621882453.48942,1621882453.49211,458.958188762665,7.41083431243896,466.377621641159,468.478405942917,0.3,473.096794834137,0.616896152496338,473.715914001465,1,left,0.589489936828613,473.713690986633,604.479122152329,607.239122152328,1621882915.20761,1621882915.20992,1621882922.62704,1621882922.63469,1621882924.72783,1621882929.34622,1621882929.35193,1621882929.96533,1621882929.96311,1621883060.72854,1
24,4,2,3,26,6,4,c4_HowHand,1,pressing button?,88,H_019.jpg,1621882453.48942,1621882453.49211,458.958188762665,7.41083431243896,466.377621641159,468.478405942917,0.3,474.030475845337,0.600223541259766,474.632991065979,1,left,0.572760820388794,474.630699386597,604.479122152329,607.239122152328,1621882915.20761,1621882915.20992,1621882922.62704,1621882922.63469,1621882924.72783,1621882930.2799,1621882930.2847,1621882930.88241,1621882930.88012,1621883060.72854,1
24,4,2,3,26,7,4,c4_HowHand,2,pressing button?,81,H_261.jpg,1621882453.48942,1621882453.49211,458.958188762665,7.41083431243896,466.377621641159,468.478405942917,0.3,474.947484483719,1.03371930122375,475.985841026306,3,right,1.01809406280518,475.981203784943,604.479122152329,607.239122152328,1621882915.20761,1621882915.20992,1621882922.62704,1621882922.63469,1621882924.72783,1621882931.19691,1621882931.2015,1621882932.23526,1621882932.23062,1621883060.72854,0
24,4,2,3,26,8,4,c4_HowHand,1,pressing button?,83,H_502.jpg,1621882453.48942,1621882453.49211,458.958188762665,7.41083431243896,466.377621641159,468.478405942917,0.3,476.297987213135,0.683589220046997,476.985526075363,1,left,0.662508010864258,476.981576433182,604.479122152329,607.239122152328,1621882915.20761,1621882915.20992,1621882922.62704,1621882922.63469,1621882924.72783,1621882932.54741,1621882932.5514,1621882933.23495,1621882933.231,1621883060.72854,1
24,4,2,3,27,1,3,c3_HowFace,1,looking at camera?,60,F_618.jpg,1621882453.48942,1621882453.49211,477.098287096024,6.80076098442078,483.917495718002,486.001606454849,2.08411073684692,486.151662578583,0.900336265563965,487.069359054565,1,left,0.873538017272949,487.051998844147,604.479122152329,607.239122152328,1621882933.34771,1621882933.3511,1621882940.16692,1621882940.16881,1621882942.25103,1621882942.40108,1621882942.41835,1621882943.31878,1621882943.30142,1621883060.72854,1
24,4,2,3,27,2,3,c3_HowFace,2,looking at camera?,58,F_754.jpg,1621882453.48942,1621882453.49211,477.098287096024,6.80076098442078,483.917495718002,486.001606454849,0.3,487.368783226013,0.0166723728179932,487.387982120514,1,left,0.000337839126586914,487.385455598831,604.479122152329,607.239122152328,1621882933.34771,1621882933.3511,1621882940.16692,1621882940.16881,1621882942.25103,1621882943.6182,1621882943.62034,1621882943.6374,1621882943.63488,1621883060.72854,0
24,4,2,3,27,3,3,c3_HowFace,1,looking at camera?,59,F_129.jpg,1621882453.48942,1621882453.49211,477.098287096024,6.80076098442078,483.917495718002,486.001606454849,0.3,487.702240695953,1.00037217140198,488.704745998383,1,left,0.974977970123291,488.702612867355,604.479122152329,607.239122152328,1621882933.34771,1621882933.3511,1621882940.16692,1621882940.16881,1621882942.25103,1621882943.95166,1621882943.9538,1621882944.95417,1621882944.95203,1621883060.72854,1
24,4,2,3,27,4,3,c3_HowFace,1,looking at camera?,62,F_598.jpg,1621882453.48942,1621882453.49211,477.098287096024,6.80076098442078,483.917495718002,486.001606454849,0.3,489.019398441315,1.00037264823914,490.021669139862,1,left,0.980313062667847,490.019771089554,604.479122152329,607.239122152328,1621882933.34771,1621882933.3511,1621882940.16692,1621882940.16881,1621882942.25103,1621882945.26882,1621882945.27079,1621882946.27109,1621882946.26919,1621883060.72854,1
24,4,2,3,27,5,3,c3_HowFace,1,looking at camera?,64,F_128.jpg,1621882453.48942,1621882453.49211,477.098287096024,6.80076098442078,483.917495718002,486.001606454849,0.3,490.336556425095,0.733607053756714,491.072360029221,1,left,0.711425065994263,491.070163478851,604.479122152329,607.239122152328,1621882933.34771,1621882933.3511,1621882940.16692,1621882940.16881,1621882942.25103,1621882946.58598,1621882946.5879,1621882947.32178,1621882947.31958,1621883060.72854,1
24,4,2,3,27,6,3,c3_HowFace,2,looking at camera?,57,F_582.jpg,1621882453.48942,1621882453.49211,477.098287096024,6.80076098442078,483.917495718002,486.001606454849,0.3,491.386948575974,0.850317239761353,492.239393224716,3,right,0.82831883430481,492.237265815735,604.479122152329,607.239122152328,1621882933.34771,1621882933.3511,1621882940.16692,1621882940.16881,1621882942.25103,1621882947.63637,1621882947.63828,1621882948.48881,1621882948.48669,1621883060.72854,0
24,4,2,3,27,7,3,c3_HowFace,1,looking at camera?,61,F_774.jpg,1621882453.48942,1621882453.49211,477.098287096024,6.80076098442078,483.917495718002,486.001606454849,0.3,492.554050197601,0.716934204101562,493.273088207245,1,left,0.692589044570923,493.270984401703,604.479122152329,607.239122152328,1621882933.34771,1621882933.3511,1621882940.16692,1621882940.16881,1621882942.25103,1621882948.80347,1621882948.80561,1621882949.52251,1621882949.52041,1621883060.72854,1
24,4,2,3,27,8,3,c3_HowFace,2,looking at camera?,63,F_743.jpg,1621882453.48942,1621882453.49211,477.098287096024,6.80076098442078,483.917495718002,486.001606454849,0.3,493.587768306732,0.766953229904175,494.356764068604,3,right,0.74896502494812,494.354721536636,604.479122152329,607.239122152328,1621882933.34771,1621882933.3511,1621882940.16692,1621882940.16881,1621882942.25103,1621882949.83719,1621882949.83949,1621882950.60618,1621882950.60414,1621883060.72854,0
