src_subject_id,session_id,run_id,param_counterbalance_ver,param_block_num,param_trial_num,param_cond_type_num,param_cond_type_string,param_normative_response,param_ques_type_string,param_image_num,param_image_filename,param_trigger_onset,param_start_biopac,event01_fixation,event01_fixation_dur,event01_blockquestion_onset,event01_block_isi_blacksreen,event01_blockquestion_dur,event02_image_onset,event02_image_dur,event03_response_onset,event03_response_key,event03_response_keyname,event03_RT,event04_shortquestion_onset,param_end_instruct_onset,param_experiment_duration,RAW_e1_fixation,RAW_e1_fixation_biopac,RAW_e1_blockquestion_onset,RAW_e1_blockquestion_onset_biopac,RAW_e1_block_isi_blacksreen,RAW_e2_image_onset,RAW_e2_image_onset_biopac,RAW_e3_response_onset,RAW_e4_shortquestion_onset,RAW_param_end_instruct_onset,accuracy
91,4,1,3,1,1,4,c4_HowHand,1,reaching?,107,H_007.jpg,1643658705.04121,1643658705.04922,0.0456256771087644,0.027468204498291,0.0789713764190672,2.11306261062622,2.03409123420715,2.26311873435974,1.05039215087891,3.32643984794617,1,left,1.0087730884552,3.31351088523865,604.487701406479,607.247701406479,1643658707.84683,1643658707.85022,1643658707.88018,1643658707.886,1643658709.91427,1643658710.06433,1643658710.0693,1643658711.12765,1643658711.11472,1643659312.28891,1
91,4,1,3,1,2,4,c4_HowHand,2,reaching?,108,H_532.jpg,1643658705.04121,1643658705.04922,0.0456256771087644,0.027468204498291,0.0789713764190672,2.11306261062622,0.3,3.63029669761658,1.71730589866638,5.42207502365112,3,right,1.76873488426208,5.34760259628296,604.487701406479,607.247701406479,1643658707.84683,1643658707.85022,1643658707.88018,1643658707.886,1643658709.91427,1643658711.4315,1643658711.43581,1643658713.22328,1643658713.14881,1643659312.28891,0
91,4,1,3,1,3,4,c4_HowHand,1,reaching?,109,H_474.jpg,1643658705.04121,1643658705.04922,0.0456256771087644,0.027468204498291,0.0789713764190672,2.11306261062622,0.3,5.66438626289368,1.71730875968933,7.65434788703918,1,left,1.96746702194214,7.38169502258301,604.487701406479,607.247701406479,1643658707.84683,1643658707.85022,1643658707.88018,1643658707.886,1643658709.91427,1643658713.46559,1643658713.46948,1643658715.45555,1643658715.1829,1643659312.28891,1
91,4,1,3,1,4,4,c4_HowHand,2,reaching?,105,H_438.jpg,1643658705.04121,1643658705.04922,0.0456256771087644,0.027468204498291,0.0789713764190672,2.11306261062622,0.3,7.6984801197052,0.0166723728179932,7.71756290435791,1,left,0.000292062759399414,7.71515249252319,604.487701406479,607.247701406479,1643658707.84683,1643658707.85022,1643658707.88018,1643658707.886,1643658709.91427,1643658715.49969,1643658715.50243,1643658715.51877,1643658715.51636,1643659312.28891,0
91,4,1,3,1,5,4,c4_HowHand,1,reaching?,110,H_364.jpg,1643658705.04121,1643658705.04922,0.0456256771087644,0.027468204498291,0.0789713764190672,2.11306261062622,0.3,8.03193711280823,1.50056004524231,9.53533386230469,1,left,1.47912096977234,9.53249715805054,604.487701406479,607.247701406479,1643658707.84683,1643658707.85022,1643658707.88018,1643658707.886,1643658709.91427,1643658715.83314,1643658715.83568,1643658717.33654,1643658717.3337,1643659312.28891,1
91,4,1,3,1,6,4,c4_HowHand,1,reaching?,106,H_006.jpg,1643658705.04121,1643658705.04922,0.0456256771087644,0.027468204498291,0.0789713764190672,2.11306261062622,0.3,9.84928225517273,1.71730589866638,NaN,0,NA,0,11.5665881538391,604.487701406479,607.247701406479,1643658707.84683,1643658707.85022,1643658707.88018,1643658707.886,1643658709.91427,1643658717.65049,1643658717.65234,NaN,1643658719.3678,1643659312.28891,0
91,4,1,3,1,7,4,c4_HowHand,1,reaching?,111,H_003.jpg,1643658705.04121,1643658705.04922,0.0456256771087644,0.027468204498291,0.0789713764190672,2.11306261062622,0.3,11.883373966217,0.016671895980835,11.9016008281708,1,left,0.00025486946105957,11.9000458621979,604.487701406479,607.247701406479,1643658707.84683,1643658707.85022,1643658707.88018,1643658707.886,1643658709.91427,1643658719.68458,1643658719.68629,1643658719.70281,1643658719.70125,1643659312.28891,1
91,4,1,3,1,8,4,c4_HowHand,2,reaching?,112,H_132.jpg,1643658705.04121,1643658705.04922,0.0456256771087644,0.027468204498291,0.0789713764190672,2.11306261062622,0.3,12.2168307209015,1.05039191246033,13.2690379524231,3,right,1.02712106704712,13.2672226333618,604.487701406479,607.247701406479,1643658707.84683,1643658707.85022,1643658707.88018,1643658707.886,1643658709.91427,1643658720.01804,1643658720.01983,1643658721.07025,1643658721.06843,1643659312.28891,0
91,4,1,3,2,1,2,c2_WhyHand,1,healthy?,21,H_627.jpg,1643658705.04121,1643658705.04922,13.5006430053711,4.03056001663208,17.5354804897308,19.6362647914886,2.10078430175781,19.7863197231293,1.08373832702637,20.8718669319153,1,left,1.04945588111877,20.8700580501556,604.487701406479,607.247701406479,1643658721.30185,1643658721.30449,1643658725.33669,1643658725.35284,1643658727.43747,1643658727.58753,1643658727.60281,1643658728.67307,1643658728.67127,1643659312.28891,1
91,4,1,3,2,2,2,c2_WhyHand,1,healthy?,18,H_438.jpg,1643658705.04121,1643658705.04922,13.5006430053711,4.03056001663208,17.5354804897308,19.6362647914886,0.3,21.1868431472778,1.45054054260254,22.6505768203735,1,left,1.44383001327515,22.6373836898804,604.487701406479,607.247701406479,1643658721.30185,1643658721.30449,1643658725.33669,1643658725.35284,1643658727.43747,1643658728.98805,1643658728.98984,1643658730.45178,1643658730.43859,1643659312.28891,1
91,4,1,3,2,3,2,c2_WhyHand,1,healthy?,23,H_364.jpg,1643658705.04121,1643658705.04922,13.5006430053711,4.03056001663208,17.5354804897308,19.6362647914886,0.3,22.954168548584,1.36717677116394,24.334272851944,3,right,1.35758805274963,24.3213453197479,604.487701406479,607.247701406479,1643658721.30185,1643658721.30449,1643658725.33669,1643658725.35284,1643658727.43747,1643658730.75538,1643658730.75667,1643658732.13548,1643658732.12255,1643659312.28891,0
91,4,1,3,2,4,2,c2_WhyHand,2,healthy?,22,H_130.jpg,1643658705.04121,1643658705.04922,13.5006430053711,4.03056001663208,17.5354804897308,19.6362647914886,0.3,24.638129940033,1.38385009765625,26.0345458889008,3,right,1.3732590675354,26.0219800376892,604.487701406479,607.247701406479,1643658721.30185,1643658721.30449,1643658725.33669,1643658725.35284,1643658727.43747,1643658732.43934,1643658732.4409,1643658733.83575,1643658733.82319,1643659312.28891,0
91,4,1,3,2,5,2,c2_WhyHand,1,healthy?,17,H_362.jpg,1643658705.04121,1643658705.04922,13.5006430053711,4.03056001663208,17.5354804897308,19.6362647914886,0.3,26.3387634658813,1.40052223205566,27.7410039806366,1,left,1.38035297393799,27.739285697937,604.487701406479,607.247701406479,1643658721.30185,1643658721.30449,1643658725.33669,1643658725.35284,1643658727.43747,1643658734.13997,1643658734.14225,1643658735.54221,1643658735.54049,1643659312.28891,1
91,4,1,3,2,6,2,c2_WhyHand,2,healthy?,20,H_007.jpg,1643658705.04121,1643658705.04922,13.5006430053711,4.03056001663208,17.5354804897308,19.6362647914886,0.3,28.0560710334778,1.71730756759644,29.779440870285,3,right,1.7001859664917,29.7733786010742,604.487701406479,607.247701406479,1643658721.30185,1643658721.30449,1643658725.33669,1643658725.35284,1643658727.43747,1643658735.85728,1643658735.85868,1643658737.58065,1643658737.57459,1643659312.28891,0
91,4,1,3,2,7,2,c2_WhyHand,1,healthy?,19,H_167.jpg,1643658705.04121,1643658705.04922,13.5006430053711,4.03056001663208,17.5354804897308,19.6362647914886,0.3,30.0901629829407,1.21711945533752,31.308755865097,1,left,1.19800114631653,31.3072824382782,604.487701406479,607.247701406479,1643658721.30185,1643658721.30449,1643658725.33669,1643658725.35284,1643658727.43747,1643658737.89137,1643658737.89315,1643658739.10996,1643658739.10849,1643659312.28891,1
91,4,1,3,2,8,2,c2_WhyHand,2,healthy?,24,H_019.jpg,1643658705.04121,1643658705.04922,13.5006430053711,4.03056001663208,17.5354804897308,19.6362647914886,0.3,31.6240692043304,1.18377327919006,32.8173258209229,3,right,1.17140483856201,32.8078424835205,604.487701406479,607.247701406479,1643658721.30185,1643658721.30449,1643658725.33669,1643658725.35284,1643658727.43747,1643658739.42528,1643658739.42731,1643658740.61853,1643658740.60905,1643659312.28891,0
91,4,1,3,3,1,1,c1_WhyFace,1,admiring?,4,F_779.jpg,1643658705.04121,1643658705.04922,32.9245524311066,3.71486139297485,36.6592788600922,38.7433898353577,2.0841109752655,38.8934459590912,0.616896629333496,39.5176448726654,1,left,0.600281000137329,39.5103425884247,604.487701406479,607.247701406479,1643658740.72576,1643658740.72781,1643658744.46049,1643658744.46263,1643658746.5446,1643658746.69465,1643658746.70291,1643658747.31885,1643658747.31155,1643659312.28891,1
91,4,1,3,3,2,1,c1_WhyFace,1,admiring?,1,F_593.jpg,1643658705.04121,1643658705.04922,32.9245524311066,3.71486139297485,36.6592788600922,38.7433898353577,0.3,39.8271284008026,1.01704454421997,40.8453278446198,1,left,0.994683980941772,40.8441729450226,604.487701406479,607.247701406479,1643658740.72576,1643658740.72781,1643658744.46049,1643658744.46263,1643658746.5446,1643658747.62834,1643658747.63,1643658748.64653,1643658748.64538,1643659312.28891,1
91,4,1,3,3,3,1,c1_WhyFace,2,admiring?,3,F_110.jpg,1643658705.04121,1643658705.04922,32.9245524311066,3.71486139297485,36.6592788600922,38.7433898353577,0.3,41.1609582805634,0.950354099273682,42.117326965332,3,right,0.933424949645996,42.111312379837,604.487701406479,607.247701406479,1643658740.72576,1643658740.72781,1643658744.46049,1643658744.46263,1643658746.5446,1643658748.96217,1643658748.96382,1643658749.91853,1643658749.91252,1643659312.28891,0
91,4,1,3,3,4,1,c1_WhyFace,1,admiring?,8,F_590.jpg,1643658705.04121,1643658705.04922,32.9245524311066,3.71486139297485,36.6592788600922,38.7433898353577,0.3,42.4280965232849,1.06706523895264,43.500687828064,1,left,1.05451107025146,43.4951617622376,604.487701406479,607.247701406479,1643658740.72576,1643658740.72781,1643658744.46049,1643658744.46263,1643658746.5446,1643658750.2293,1643658750.23123,1643658751.30189,1643658751.29637,1643659312.28891,1
91,4,1,3,3,5,1,c1_WhyFace,2,admiring?,6,F_692.jpg,1643658705.04121,1643658705.04922,32.9245524311066,3.71486139297485,36.6592788600922,38.7433898353577,0.3,43.8119463825226,0.917009592056274,44.7339818382263,3,right,0.90347695350647,44.7289559745789,604.487701406479,607.247701406479,1643658740.72576,1643658740.72781,1643658744.46049,1643658744.46263,1643658746.5446,1643658751.61315,1643658751.61473,1643658752.53519,1643658752.53016,1643659312.28891,0
91,4,1,3,3,6,1,c1_WhyFace,1,admiring?,5,F_759.jpg,1643658705.04121,1643658705.04922,32.9245524311066,3.71486139297485,36.6592788600922,38.7433898353577,0.3,45.0457396411896,0.866990327835083,45.9176599884033,1,left,0.858004093170166,45.9127299690247,604.487701406479,607.247701406479,1643658740.72576,1643658740.72781,1643658744.46049,1643658744.46263,1643658746.5446,1643658752.84695,1643658752.84863,1643658753.71887,1643658753.71394,1643659312.28891,1
91,4,1,3,3,7,1,c1_WhyFace,1,admiring?,7,F_648.jpg,1643658705.04121,1643658705.04922,32.9245524311066,3.71486139297485,36.6592788600922,38.7433898353577,0.3,46.2295145893097,0.983700752258301,47.2174270057678,1,left,0.973002910614014,47.213215341568,604.487701406479,607.247701406479,1643658740.72576,1643658740.72781,1643658744.46049,1643658744.46263,1643658746.5446,1643658754.03072,1643658754.03212,1643658755.01863,1643658755.01442,1643659312.28891,1
91,4,1,3,3,8,1,c1_WhyFace,2,admiring?,2,F_129.jpg,1643658705.04121,1643658705.04922,32.9245524311066,3.71486139297485,36.6592788600922,38.7433898353577,0.3,47.5299997234345,0.750280857086182,48.2838969135284,3,right,0.740115880966187,48.2802805805206,604.487701406479,607.247701406479,1643658740.72576,1643658740.72781,1643658744.46049,1643658744.46263,1643658746.5446,1643658755.33121,1643658755.3356,1643658756.0851,1643658756.08149,1643659312.28891,0
91,4,1,3,4,1,3,c3_HowFace,1,smiling?,119,F_139.jpg,1643658705.04121,1643658705.04922,48.3636441135407,7.23946285247803,55.6163480186462,57.7171332740784,2.10078525543213,57.867188205719,0.967026233673096,58.8510270023346,1,left,0.959568023681641,58.8342144393921,604.487701406479,607.247701406479,1643658756.16485,1643658756.16889,1643658763.41756,1643658763.41921,1643658765.51834,1643658765.6684,1643658765.67027,1643658766.65223,1643658766.63542,1643659312.28891,1
91,4,1,3,4,2,3,c3_HowFace,2,smiling?,113,F_712.jpg,1643658705.04121,1643658705.04922,48.3636441135407,7.23946285247803,55.6163480186462,57.7171332740784,0.3,59.1510004901886,0.0166726112365723,59.1696269416809,1,left,0.000514984130859375,59.1676731014252,604.487701406479,607.247701406479,1643658756.16485,1643658756.16889,1643658763.41756,1643658763.41921,1643658765.51834,1643658766.95221,1643658766.95434,1643658766.97083,1643658766.96888,1643659312.28891,0
91,4,1,3,4,3,3,c3_HowFace,1,smiling?,115,F_695.jpg,1643658705.04121,1643658705.04922,48.3636441135407,7.23946285247803,55.6163480186462,57.7171332740784,0.3,59.4844581985474,1.08373832702637,60.5692078971863,1,left,1.06555795669556,60.5681965255737,604.487701406479,607.247701406479,1643658756.16485,1643658756.16889,1643658763.41756,1643658763.41921,1643658765.51834,1643658767.28567,1643658767.28776,1643658768.37041,1643658768.3694,1643659312.28891,1
91,4,1,3,4,4,3,c3_HowFace,2,smiling?,120,F_758.jpg,1643658705.04121,1643658705.04922,48.3636441135407,7.23946285247803,55.6163480186462,57.7171332740784,0.3,60.8849811458588,0.816970586776733,61.7034828567505,3,right,0.803647994995117,61.7019517326355,604.487701406479,607.247701406479,1643658756.16485,1643658756.16889,1643658763.41756,1643658763.41921,1643658765.51834,1643658768.68619,1643658768.68768,1643658769.50469,1643658769.50316,1643659312.28891,0
91,4,1,3,4,5,3,c3_HowFace,1,smiling?,116,F_083.jpg,1643658705.04121,1643658705.04922,48.3636441135407,7.23946285247803,55.6163480186462,57.7171332740784,0.3,62.0187368297577,0.65024209022522,62.6701309585571,1,left,0.6370849609375,62.6689789199829,604.487701406479,607.247701406479,1643658756.16485,1643658756.16889,1643658763.41756,1643658763.41921,1643658765.51834,1643658769.81994,1643658769.82141,1643658770.47134,1643658770.47019,1643659312.28891,1
91,4,1,3,4,6,3,c3_HowFace,1,smiling?,118,F_759.jpg,1643658705.04121,1643658705.04922,48.3636441135407,7.23946285247803,55.6163480186462,57.7171332740784,0.3,62.9857640171051,0.933680772781372,63.9343140029907,1,left,0.924532890319824,63.9194447898865,604.487701406479,607.247701406479,1643658756.16485,1643658756.16889,1643658763.41756,1643658763.41921,1643658765.51834,1643658770.78697,1643658770.78871,1643658771.73552,1643658771.72065,1643659312.28891,1
91,4,1,3,4,7,3,c3_HowFace,2,smiling?,114,F_412.jpg,1643658705.04121,1643658705.04922,48.3636441135407,7.23946285247803,55.6163480186462,57.7171332740784,0.3,64.2362296485901,0.750280380249023,64.9875929260254,3,right,0.727524995803833,64.9865100288391,604.487701406479,607.247701406479,1643658756.16485,1643658756.16889,1643658763.41756,1643658763.41921,1643658765.51834,1643658772.03744,1643658772.03917,1643658772.7888,1643658772.78772,1643659312.28891,0
91,4,1,3,4,8,3,c3_HowFace,1,smiling?,117,F_593.jpg,1643658705.04121,1643658705.04922,48.3636441135407,7.23946285247803,55.6163480186462,57.7171332740784,0.3,65.3032946491241,1.35050439834595,66.655421962738,1,left,1.32896018028259,66.6537990474701,604.487701406479,607.247701406479,1643658756.16485,1643658756.16889,1643658763.41756,1643658763.41921,1643658765.51834,1643658773.1045,1643658773.10654,1643658774.45663,1643658774.45501,1643659312.28891,1
91,4,1,3,5,1,4,c4_HowHand,1,lifting?,56,H_136.jpg,1643658705.04121,1643658705.04922,66.7204902076721,6.41377973556519,73.1395506763458,75.2403340244293,2.1007833480835,75.3903896713257,1.71730756759644,NaN,0,NA,0,77.1076972389221,604.487701406479,607.247701406479,1643658774.5217,1643658774.52459,1643658780.94076,1643658780.95356,1643658783.04154,1643658783.1916,1643658783.20245,NaN,1643658784.9089,1643659312.28891,0
91,4,1,3,5,2,4,c4_HowHand,2,lifting?,51,H_038.jpg,1643658705.04121,1643658705.04922,66.7204902076721,6.41377973556519,73.1395506763458,75.2403340244293,0.3,77.4244818592071,0.0666921138763428,77.4929489994049,3,right,0.0459020137786865,77.4911739730835,604.487701406479,607.247701406479,1643658774.5217,1643658774.52459,1643658780.94076,1643658780.95356,1643658783.04154,1643658785.22569,1643658785.22686,1643658785.29416,1643658785.29238,1643659312.28891,0
91,4,1,3,5,3,4,c4_HowHand,1,lifting?,52,H_189.jpg,1643658705.04121,1643658705.04922,66.7204902076721,6.41377973556519,73.1395506763458,75.2403340244293,0.3,77.8079581165314,1.15042853355408,78.9679088497162,1,left,1.13534307479858,78.9583866500854,604.487701406479,607.247701406479,1643658774.5217,1643658774.52459,1643658780.94076,1643658780.95356,1643658783.04154,1643658785.60917,1643658785.61096,1643658786.76912,1643658786.75959,1643659312.28891,1
91,4,1,3,5,4,4,c4_HowHand,2,lifting?,53,H_077.jpg,1643658705.04121,1643658705.04922,66.7204902076721,6.41377973556519,73.1395506763458,75.2403340244293,0.3,79.2751724624634,0.833643198013306,80.1178150081634,3,right,0.823045015335083,80.1088156604767,604.487701406479,607.247701406479,1643658774.5217,1643658774.52459,1643658780.94076,1643658780.95356,1643658783.04154,1643658787.07638,1643658787.07776,1643658787.91902,1643658787.91002,1643659312.28891,0
91,4,1,3,5,5,4,c4_HowHand,1,lifting?,50,H_443.jpg,1643658705.04121,1643658705.04922,66.7204902076721,6.41377973556519,73.1395506763458,75.2403340244293,0.3,80.4256007575989,1.10040998458862,81.5343120002747,1,left,1.08671808242798,81.5260107421875,604.487701406479,607.247701406479,1643658774.5217,1643658774.52459,1643658780.94076,1643658780.95356,1643658783.04154,1643658788.22681,1643658788.22862,1643658789.33552,1643658789.32722,1643659312.28891,1
91,4,1,3,5,6,4,c4_HowHand,2,lifting?,55,H_012.jpg,1643658705.04121,1643658705.04922,66.7204902076721,6.41377973556519,73.1395506763458,75.2403340244293,0.3,81.8427960777283,1.08373761177063,82.9283239746094,3,right,1.06446409225464,82.9265336894989,604.487701406479,607.247701406479,1643658774.5217,1643658774.52459,1643658780.94076,1643658780.95356,1643658783.04154,1643658789.644,1643658789.64623,1643658790.72953,1643658790.72774,1643659312.28891,0
91,4,1,3,5,7,4,c4_HowHand,1,lifting?,49,H_362.jpg,1643658705.04121,1643658705.04922,66.7204902076721,6.41377973556519,73.1395506763458,75.2403340244293,0.3,83.2433175945282,0.750280380249023,84.0012638473511,1,left,0.739237070083618,83.9935979747772,604.487701406479,607.247701406479,1643658774.5217,1643658774.52459,1643658780.94076,1643658780.95356,1643658783.04154,1643658791.04452,1643658791.04639,1643658791.80247,1643658791.79481,1643659312.28891,1
91,4,1,3,5,8,4,c4_HowHand,1,lifting?,54,H_170.jpg,1643658705.04121,1643658705.04922,66.7204902076721,6.41377973556519,73.1395506763458,75.2403340244293,0.3,84.3103828334808,1.03371906280518,85.3510818386078,3,right,1.02555298805237,85.344101896286,604.487701406479,607.247701406479,1643658774.5217,1643658774.52459,1643658780.94076,1643658780.95356,1643658783.04154,1643658792.11159,1643658792.11325,1643658793.15229,1643658793.14531,1643659312.28891,0
91,4,1,3,6,1,2,c2_WhyHand,1,helping?,38,H_077.jpg,1643658705.04121,1643658705.04922,85.4274661445618,10.1875348091125,95.6312711143494,97.73205493927,2.10078382492065,97.8821105861664,0.650242328643799,98.5343158149719,1,left,0.629344940185547,98.5323529148102,604.487701406479,607.247701406479,1643658793.22867,1643658793.23526,1643658803.43248,1643658803.43597,1643658805.53326,1643658805.68332,1643658805.68597,1643658806.33552,1643658806.33356,1643659312.28891,1
91,4,1,3,6,2,2,c2_WhyHand,1,helping?,36,H_349.jpg,1643658705.04121,1643658705.04922,85.4274661445618,10.1875348091125,95.6312711143494,97.73205493927,0.3,98.8491377735138,0.933681011199951,99.7839100265503,1,left,0.921244144439697,99.7828187847137,604.487701406479,607.247701406479,1643658793.22867,1643658793.23526,1643658803.43248,1643658803.43597,1643658805.53326,1643658806.65034,1643658806.65224,1643658807.58512,1643658807.58403,1643659312.28891,1
91,4,1,3,6,3,2,c2_WhyHand,1,helping?,37,H_474.jpg,1643658705.04121,1643658705.04922,85.4274661445618,10.1875348091125,95.6312711143494,97.73205493927,0.3,100.09960483551,1.1337559223175,101.234726896286,1,left,1.11238098144531,101.233360757828,604.487701406479,607.247701406479,1643658793.22867,1643658793.23526,1643658803.43248,1643658803.43597,1643658805.53326,1643658807.90081,1643658807.90244,1643658809.03593,1643658809.03457,1643659312.28891,1
91,4,1,3,6,4,2,c2_WhyHand,1,helping?,39,H_024.jpg,1643658705.04121,1643658705.04922,85.4274661445618,10.1875348091125,95.6312711143494,97.73205493927,0.3,101.550144424438,0.0166735649108887,101.568822851181,1,left,0.000339031219482422,101.566817989349,604.487701406479,607.247701406479,1643658793.22867,1643658793.23526,1643658803.43248,1643658803.43597,1643658805.53326,1643658809.35135,1643658809.35293,1643658809.37003,1643658809.36803,1643659312.28891,1
91,4,1,3,6,5,2,c2_WhyHand,2,helping?,40,H_012.jpg,1643658705.04121,1643658705.04922,85.4274661445618,10.1875348091125,95.6312711143494,97.73205493927,0.3,101.883602848053,1.05039238929749,102.934903850555,3,right,1.04183411598206,102.93399523735,604.487701406479,607.247701406479,1643658793.22867,1643658793.23526,1643658803.43248,1643658803.43597,1643658805.53326,1643658809.68481,1643658809.68708,1643658810.73611,1643658810.7352,1643659312.28891,0
91,4,1,3,6,6,2,c2_WhyHand,2,helping?,35,H_159.jpg,1643658705.04121,1643658705.04922,85.4274661445618,10.1875348091125,95.6312711143494,97.73205493927,0.3,103.250778903961,1.38385033607483,104.636108865738,3,right,1.36168098449707,104.634629240036,604.487701406479,607.247701406479,1643658793.22867,1643658793.23526,1643658803.43248,1643658803.43597,1643658805.53326,1643658811.05199,1643658811.05352,1643658812.43732,1643658812.43584,1643659312.28891,0
91,4,1,3,6,7,2,c2_WhyHand,1,helping?,34,H_111.jpg,1643658705.04121,1643658705.04922,85.4274661445618,10.1875348091125,95.6312711143494,97.73205493927,0.3,104.95141409874,1.16710209846497,106.120082845688,1,left,1.14447093009949,106.118516197205,604.487701406479,607.247701406479,1643658793.22867,1643658793.23526,1643658803.43248,1643658803.43597,1643658805.53326,1643658812.75262,1643658812.75416,1643658813.92129,1643658813.91972,1643659312.28891,1
91,4,1,3,6,8,2,c2_WhyHand,2,helping?,33,H_091.jpg,1643658705.04121,1643658705.04922,85.4274661445618,10.1875348091125,95.6312711143494,97.73205493927,0.3,106.435301055908,0.0166716575622559,106.453909864426,1,left,0.000219106674194336,106.45197271347,604.487701406479,607.247701406479,1643658793.22867,1643658793.23526,1643658803.43248,1643658803.43597,1643658805.53326,1643658814.23651,1643658814.23833,1643658814.25512,1643658814.25318,1643659312.28891,0
91,4,1,3,7,1,1,c1_WhyFace,1,proud?,104,F_598.jpg,1643658705.04121,1643658705.04922,106.51866435051,6.97134351730347,113.50460313797,115.605386962891,2.10078382492065,115.755441894531,1.18377590179443,116.940459003448,1,left,1.16597008705139,116.939217796326,604.487701406479,607.247701406479,1643658814.31987,1643658814.32108,1643658821.30581,1643658821.30774,1643658823.40659,1643658823.55665,1643658823.55909,1643658824.74167,1643658824.74042,1643659312.28891,1
91,4,1,3,7,2,1,c1_WhyFace,2,proud?,102,F_760.jpg,1643658705.04121,1643658705.04922,106.51866435051,6.97134351730347,113.50460313797,115.605386962891,0.3,117.256001462936,0.900336742401123,118.157896032333,3,right,0.880691051483154,118.156338205338,604.487701406479,607.247701406479,1643658814.31987,1643658814.32108,1643658821.30581,1643658821.30774,1643658823.40659,1643658825.05721,1643658825.05896,1643658825.9591,1643658825.95755,1643659312.28891,0
91,4,1,3,7,3,1,c1_WhyFace,1,proud?,97,F_582.jpg,1643658705.04121,1643658705.04922,106.51866435051,6.97134351730347,113.50460313797,115.605386962891,0.3,118.473122825623,0.816971302032471,119.301323881149,1,left,0.806576013565063,119.290094127655,604.487701406479,607.247701406479,1643658814.31987,1643658814.32108,1643658821.30581,1643658821.30774,1643658823.40659,1643658826.27433,1643658826.2764,1643658827.10253,1643658827.0913,1643659312.28891,1
91,4,1,3,7,4,1,c1_WhyFace,2,proud?,98,F_412.jpg,1643658705.04121,1643658705.04922,106.51866435051,6.97134351730347,113.50460313797,115.605386962891,0.3,119.606879224777,0.0166726112365723,119.625402917862,1,left,0.000248908996582031,119.623551836014,604.487701406479,607.247701406479,1643658814.31987,1643658814.32108,1643658821.30581,1643658821.30774,1643658823.40659,1643658827.40809,1643658827.40967,1643658827.42661,1643658827.42476,1643659312.28891,0
91,4,1,3,7,5,1,c1_WhyFace,1,proud?,101,F_083.jpg,1643658705.04121,1643658705.04922,106.51866435051,6.97134351730347,113.50460313797,115.605386962891,0.3,119.940336933136,1.08373641967773,121.033927907944,1,left,1.07436800003052,121.024073352814,604.487701406479,607.247701406479,1643658814.31987,1643658814.32108,1643658821.30581,1643658821.30774,1643658823.40659,1643658827.74154,1643658827.74315,1643658828.83513,1643658828.82528,1643659312.28891,1
91,4,1,3,7,6,1,c1_WhyFace,2,proud?,100,F_776.jpg,1643658705.04121,1643658705.04922,106.51866435051,6.97134351730347,113.50460313797,115.605386962891,0.3,121.340859165192,0.0166733264923096,121.367807855606,1,left,0.000337123870849609,121.357532491684,604.487701406479,607.247701406479,1643658814.31987,1643658814.32108,1643658821.30581,1643658821.30774,1643658823.40659,1643658829.14207,1643658829.144,1643658829.16901,1643658829.15874,1643659312.28891,0
91,4,1,3,7,7,1,c1_WhyFace,1,proud?,103,F_618.jpg,1643658705.04121,1643658705.04922,106.51866435051,6.97134351730347,113.50460313797,115.605386962891,0.3,121.674317111969,1.26713871955872,122.950659980774,1,left,1.25560212135315,122.941455831528,604.487701406479,607.247701406479,1643658814.31987,1643658814.32108,1643658821.30581,1643658821.30774,1643658823.40659,1643658829.47552,1643658829.47785,1643658830.75187,1643658830.74266,1643659312.28891,1
91,4,1,3,7,8,1,c1_WhyFace,1,proud?,99,F_695.jpg,1643658705.04121,1643658705.04922,106.51866435051,6.97134351730347,113.50460313797,115.605386962891,0.3,123.258240690231,1.63394212722778,124.901370992661,1,left,1.62219285964966,124.892182817459,604.487701406479,607.247701406479,1643658814.31987,1643658814.32108,1643658821.30581,1643658821.30774,1643658823.40659,1643658831.05945,1643658831.06101,1643658832.70258,1643658832.69339,1643659312.28891,1
91,4,1,3,8,1,3,c3_HowFace,1,looking to side?,72,F_590.jpg,1643658705.04121,1643658705.04922,124.958874931335,6.06112504005432,131.027804841995,133.128589143753,2.10078430175781,133.278643598557,0.750280618667603,134.033936014175,1,left,0.735528945922852,134.028924217224,604.487701406479,607.247701406479,1643658832.76008,1643658832.76916,1643658838.82901,1643658838.83617,1643658840.9298,1643658841.07985,1643658841.08609,1643658841.83514,1643658841.83013,1643659312.28891,1
91,4,1,3,8,2,3,c3_HowFace,1,looking to side?,71,F_433.jpg,1643658705.04121,1643658705.04922,124.958874931335,6.06112504005432,131.027804841995,133.128589143753,0.3,134.345708837509,1.16710162162781,135.514339914322,1,left,1.14535808563232,135.512810459137,604.487701406479,607.247701406479,1643658832.76008,1643658832.76916,1643658838.82901,1643658838.83617,1643658840.9298,1643658842.14692,1643658842.14855,1643658843.31555,1643658843.31402,1643659312.28891,1
91,4,1,3,8,3,3,c3_HowFace,1,looking to side?,67,F_716.jpg,1643658705.04121,1643658705.04922,124.958874931335,6.06112504005432,131.027804841995,133.128589143753,0.3,135.829595794678,1.00037360191345,136.830965986252,1,left,0.976014137268066,136.829969396591,604.487701406479,607.247701406479,1643658832.76008,1643658832.76916,1643658838.82901,1643658838.83617,1643658840.9298,1643658843.6308,1643658843.63577,1643658844.63217,1643658844.63118,1643659312.28891,1
91,4,1,3,8,4,3,c3_HowFace,2,looking to side?,70,F_779.jpg,1643658705.04121,1643658705.04922,124.958874931335,6.06112504005432,131.027804841995,133.128589143753,0.3,137.146754255295,1.00037240982056,138.151191940308,1,left,0.98688793182373,138.147126665115,604.487701406479,607.247701406479,1643658832.76008,1643658832.76916,1643658838.82901,1643658838.83617,1643658840.9298,1643658844.94796,1643658844.95237,1643658845.9524,1643658845.94833,1643659312.28891,0
91,4,1,3,8,5,3,c3_HowFace,1,looking to side?,68,F_760.jpg,1643658705.04121,1643658705.04922,124.958874931335,6.06112504005432,131.027804841995,133.128589143753,0.3,138.463910808563,1.20044803619385,139.667356004715,1,left,1.18045091629028,139.664358844757,604.487701406479,607.247701406479,1643658832.76008,1643658832.76916,1643658838.82901,1643658838.83617,1643658840.9298,1643658846.26512,1643658846.26918,1643658847.46856,1643658847.46557,1643659312.28891,1
91,4,1,3,8,6,3,c3_HowFace,2,looking to side?,66,F_111.jpg,1643658705.04121,1643658705.04922,124.958874931335,6.06112504005432,131.027804841995,133.128589143753,0.3,139.981143703461,0.0166730880737305,140.001427879334,1,left,0.000320196151733398,139.997816791534,604.487701406479,607.247701406479,1643658832.76008,1643658832.76916,1643658838.82901,1643658838.83617,1643658840.9298,1643658847.78235,1643658847.78557,1643658847.80263,1643658847.79902,1643659312.28891,0
91,4,1,3,8,7,3,c3_HowFace,1,looking to side?,69,F_110.jpg,1643658705.04121,1643658705.04922,124.958874931335,6.06112504005432,131.027804841995,133.128589143753,0.3,140.314601888657,1.2337920665741,141.551184883118,1,left,1.21366095542908,141.548393955231,604.487701406479,607.247701406479,1643658832.76008,1643658832.76916,1643658838.82901,1643658838.83617,1643658840.9298,1643658848.11581,1643658848.11937,1643658849.35239,1643658849.3496,1643659312.28891,1
91,4,1,3,8,8,3,c3_HowFace,2,looking to side?,65,F_798.jpg,1643658705.04121,1643658705.04922,124.958874931335,6.06112504005432,131.027804841995,133.128589143753,0.3,141.865180006027,0.0166728496551514,141.884697904587,1,left,0.000238180160522461,141.881852855682,604.487701406479,607.247701406479,1643658832.76008,1643658832.76916,1643658838.82901,1643658838.83617,1643658840.9298,1643658849.66639,1643658849.66923,1643658849.6859,1643658849.68306,1643659312.28891,0
91,4,1,3,9,1,1,c1_WhyFace,1,argument?,43,F_716.jpg,1643658705.04121,1643658705.04922,141.948543539047,8.17946743965149,150.134929647446,152.235713710785,2.10078406333923,152.3857695961,1.41719484329224,153.80395483017,1,left,1.40400505065918,153.802964439392,604.487701406479,607.247701406479,1643658849.74975,1643658849.75244,1643658857.93614,1643658857.93828,1643658860.03692,1643658860.18698,1643658860.18893,1643658861.60516,1643658861.60417,1643659312.28891,1
91,4,1,3,9,2,1,c1_WhyFace,2,argument?,44,F_139.jpg,1643658705.04121,1643658705.04922,141.948543539047,8.17946743965149,150.134929647446,152.235713710785,0.3,154.11975025177,1.13375520706177,155.255146017075,3,right,1.11919093132019,155.253505458832,604.487701406479,607.247701406479,1643658849.74975,1643658849.75244,1643658857.93614,1643658857.93828,1643658860.03692,1643658861.92096,1643658861.92323,1643658863.05635,1643658863.05471,1643659312.28891,0
91,4,1,3,9,3,1,c1_WhyFace,1,argument?,41,F_712.jpg,1643658705.04121,1643658705.04922,141.948543539047,8.17946743965149,150.134929647446,152.235713710785,0.3,155.570291509628,0.933679819107056,156.517993917465,1,left,0.927129030227661,156.503971328735,604.487701406479,607.247701406479,1643658849.74975,1643658849.75244,1643658857.93614,1643658857.93828,1643658860.03692,1643658863.3715,1643658863.37304,1643658864.3192,1643658864.30518,1643659312.28891,1
91,4,1,3,9,4,1,c1_WhyFace,2,argument?,45,F_433.jpg,1643658705.04121,1643658705.04922,141.948543539047,8.17946743965149,150.134929647446,152.235713710785,0.3,156.820756664276,1.05039262771606,157.872282972336,3,right,1.03641200065613,157.871149291992,604.487701406479,607.247701406479,1643658849.74975,1643658849.75244,1643658857.93614,1643658857.93828,1643658860.03692,1643658864.62196,1643658864.6237,1643658865.67349,1643658865.67236,1643659312.28891,0
91,4,1,3,9,5,1,c1_WhyFace,1,argument?,42,F_403.jpg,1643658705.04121,1643658705.04922,141.948543539047,8.17946743965149,150.134929647446,152.235713710785,0.3,158.187934150696,0.816971063613892,159.017787923813,1,left,0.807435989379883,159.00490521431,604.487701406479,607.247701406479,1643658849.74975,1643658849.75244,1643658857.93614,1643658857.93828,1643658860.03692,1643658865.98914,1643658865.99066,1643658866.81899,1643658866.80611,1643659312.28891,1
91,4,1,3,9,6,1,c1_WhyFace,2,argument?,46,F_844.jpg,1643658705.04121,1643658705.04922,141.948543539047,8.17946743965149,150.134929647446,152.235713710785,0.3,159.321690311432,0.0166714191436768,159.339722862244,1,left,0.000256061553955078,159.338361730576,604.487701406479,607.247701406479,1643658849.74975,1643658849.75244,1643658857.93614,1643658857.93828,1643658860.03692,1643658867.1229,1643658867.12468,1643658867.14093,1643658867.13957,1643659312.28891,0
91,4,1,3,9,7,1,c1_WhyFace,1,argument?,47,F_743.jpg,1643658705.04121,1643658705.04922,141.948543539047,8.17946743965149,150.134929647446,152.235713710785,0.3,159.655146589279,0.933682203292847,160.590389957428,1,left,0.917942047119141,160.588828792572,604.487701406479,607.247701406479,1643658849.74975,1643658849.75244,1643658857.93614,1643658857.93828,1643658860.03692,1643658867.45635,1643658867.45837,1643658868.3916,1643658868.39004,1643659312.28891,1
91,4,1,3,9,8,1,c1_WhyFace,1,argument?,48,F_758.jpg,1643658705.04121,1643658705.04922,141.948543539047,8.17946743965149,150.134929647446,152.235713710785,0.3,160.905613889694,0.0166723728179932,160.923751821518,1,left,0.000371932983398438,160.922286262512,604.487701406479,607.247701406479,1643658849.74975,1643658849.75244,1643658857.93614,1643658857.93828,1643658860.03692,1643658868.70682,1643658868.70839,1643658868.72496,1643658868.72349,1643659312.28891,1
91,4,1,3,10,1,3,c3_HowFace,1,open mouth?,80,F_844.jpg,1643658705.04121,1643658705.04922,160.988977899551,6.97903299331665,167.974915018082,170.075700035095,2.10078501701355,170.22575592041,0.750279903411865,170.984098901749,1,left,0.733697175979614,170.976035823822,604.487701406479,607.247701406479,1643658868.79018,1643658868.79159,1643658875.77612,1643658875.78627,1643658877.87691,1643658878.02696,1643658878.03658,1643658878.78531,1643658878.77724,1643659312.28891,1
91,4,1,3,10,2,3,c3_HowFace,1,open mouth?,74,F_776.jpg,1643658705.04121,1643658705.04922,160.988977899551,6.97903299331665,167.974915018082,170.075700035095,0.3,171.292820682526,0.750280380249023,172.04504488945,1,left,0.728000164031982,172.043101062775,604.487701406479,607.247701406479,1643658868.79018,1643658868.79159,1643658875.77612,1643658875.78627,1643658877.87691,1643658879.09403,1643658879.09554,1643658879.84625,1643658879.84431,1643659312.28891,1
91,4,1,3,10,3,3,c3_HowFace,2,open mouth?,76,F_544.jpg,1643658705.04121,1643658705.04922,160.988977899551,6.97903299331665,167.974915018082,170.075700035095,0.3,172.359885206223,1.11708331108093,173.483991851807,3,right,1.10304808616638,173.476968517303,604.487701406479,607.247701406479,1643658868.79018,1643658868.79159,1643658875.77612,1643658875.78627,1643658877.87691,1643658880.16109,1643658880.16271,1643658881.2852,1643658881.27818,1643659312.28891,0
91,4,1,3,10,4,3,c3_HowFace,1,open mouth?,78,F_692.jpg,1643658705.04121,1643658705.04922,160.988977899551,6.97903299331665,167.974915018082,170.075700035095,0.3,173.793753376007,0.700259685516357,174.500641813278,1,left,0.692412137985229,174.494013061523,604.487701406479,607.247701406479,1643658868.79018,1643658868.79159,1643658875.77612,1643658875.78627,1643658877.87691,1643658881.59496,1643658881.59671,1643658882.30185,1643658882.29522,1643659312.28891,1
91,4,1,3,10,5,3,c3_HowFace,2,open mouth?,77,F_584.jpg,1643658705.04121,1643658705.04922,160.988977899551,6.97903299331665,167.974915018082,170.075700035095,0.3,174.810799589157,0.866989612579346,175.679291000366,3,right,0.845135927200317,175.677789201736,604.487701406479,607.247701406479,1643658868.79018,1643658868.79159,1643658875.77612,1643658875.78627,1643658877.87691,1643658882.61201,1643658882.61362,1643658883.4805,1643658883.479,1643659312.28891,0
91,4,1,3,10,6,3,c3_HowFace,1,open mouth?,73,F_403.jpg,1643658705.04121,1643658705.04922,160.988977899551,6.97903299331665,167.974915018082,170.075700035095,0.3,175.994574537277,0.800297737121582,176.801440944672,1,left,0.781712055206299,176.794872274399,604.487701406479,607.247701406479,1643658868.79018,1643658868.79159,1643658875.77612,1643658875.78627,1643658877.87691,1643658883.79578,1643658883.79745,1643658884.60265,1643658884.59608,1643659312.28891,1
91,4,1,3,10,7,3,c3_HowFace,1,open mouth?,75,F_086.jpg,1643658705.04121,1643658705.04922,160.988977899551,6.97903299331665,167.974915018082,170.075700035095,0.3,177.111656656265,1.40052270889282,178.517357816696,1,left,1.38561010360718,178.512179365158,604.487701406479,607.247701406479,1643658868.79018,1643658868.79159,1643658875.77612,1643658875.78627,1643658877.87691,1643658884.91286,1643658884.91467,1643658886.31856,1643658886.31339,1643659312.28891,1
91,4,1,3,10,8,3,c3_HowFace,2,open mouth?,79,F_648.jpg,1643658705.04121,1643658705.04922,160.988977899551,6.97903299331665,167.974915018082,170.075700035095,0.3,178.82896446228,1.06706380844116,179.901352872849,3,right,1.05059599876404,179.896028270721,604.487701406479,607.247701406479,1643658868.79018,1643658868.79159,1643658875.77612,1643658875.78627,1643658877.87691,1643658886.63017,1643658886.6315,1643658887.70256,1643658887.69724,1643659312.28891,0
91,4,1,3,11,1,4,c4_HowHand,1,pressing button?,88,H_019.jpg,1643658705.04121,1643658705.04922,179.962719907761,5.8952751159668,185.864920845032,187.965704669952,2.10078382492065,188.115761270523,1.18377447128296,189.300534954071,1,left,1.1733660697937,189.299535741806,604.487701406479,607.247701406479,1643658887.76393,1643658887.769,1643658893.66613,1643658893.66933,1643658895.76691,1643658895.91697,1643658895.9193,1643658897.10174,1643658897.10074,1643659312.28891,1
91,4,1,3,11,2,4,c4_HowHand,2,pressing button?,87,H_024.jpg,1643658705.04121,1643658705.04922,179.962719907761,5.8952751159668,185.864920845032,187.965704669952,0.3,189.616320838928,1.71730756759644,191.411581983566,3,right,1.77402110099792,191.333628406525,604.487701406479,607.247701406479,1643658887.76393,1643658887.769,1643658893.66613,1643658893.66933,1643658895.76691,1643658897.41753,1643658897.41917,1643658899.21279,1643658899.13484,1643659312.28891,0
91,4,1,3,11,3,4,c4_HowHand,2,pressing button?,85,H_130.jpg,1643658705.04121,1643658705.04922,179.962719907761,5.8952751159668,185.864920845032,187.965704669952,0.3,191.650412788391,1.11708188056946,192.768823852539,3,right,1.10828399658203,192.767494668961,604.487701406479,607.247701406479,1643658887.76393,1643658887.769,1643658893.66613,1643658893.66933,1643658895.76691,1643658899.45162,1643658899.45316,1643658900.57003,1643658900.5687,1643659312.28891,0
91,4,1,3,11,4,4,c4_HowHand,1,pressing button?,83,H_502.jpg,1643658705.04121,1643658705.04922,179.962719907761,5.8952751159668,185.864920845032,187.965704669952,0.3,193.08428024292,1.217120885849,194.302278032303,1,left,1.2068510055542,194.301401128769,604.487701406479,607.247701406479,1643658887.76393,1643658887.769,1643658893.66613,1643658893.66933,1643658895.76691,1643658900.88549,1643658900.88733,1643658902.10349,1643658902.10261,1643659312.28891,1
91,4,1,3,11,5,4,c4_HowHand,2,pressing button?,81,H_261.jpg,1643658705.04121,1643658705.04922,179.962719907761,5.8952751159668,185.864920845032,187.965704669952,0.3,194.618185510635,0.0166733264923096,194.636576881409,1,left,0.000300884246826172,194.634858837128,604.487701406479,607.247701406479,1643658887.76393,1643658887.769,1643658893.66613,1643658893.66933,1643658895.76691,1643658902.41939,1643658902.42068,1643658902.43778,1643658902.43607,1643659312.28891,0
91,4,1,3,11,6,4,c4_HowHand,1,pressing button?,86,H_332.jpg,1643658705.04121,1643658705.04922,179.962719907761,5.8952751159668,185.864920845032,187.965704669952,0.3,194.951644172668,0.866989850997925,195.819572916031,1,left,0.856953859329224,195.818634023666,604.487701406479,607.247701406479,1643658887.76393,1643658887.769,1643658893.66613,1643658893.66933,1643658895.76691,1643658902.75285,1643658902.75474,1643658903.62078,1643658903.61984,1643659312.28891,1
91,4,1,3,11,7,4,c4_HowHand,1,pressing button?,82,H_126.jpg,1643658705.04121,1643658705.04922,179.962719907761,5.8952751159668,185.864920845032,187.965704669952,0.3,196.135418405533,0.0166726112365723,196.153810014725,1,left,0.000229835510253906,196.152091016769,604.487701406479,607.247701406479,1643658887.76393,1643658887.769,1643658893.66613,1643658893.66933,1643658895.76691,1643658903.93663,1643658903.93818,1643658903.95502,1643658903.9533,1643659312.28891,1
91,4,1,3,11,8,4,c4_HowHand,1,pressing button?,84,H_483.jpg,1643658705.04121,1643658705.04922,179.962719907761,5.8952751159668,185.864920845032,187.965704669952,0.3,196.468876113892,1.58392381668091,198.067338933945,3,right,1.57579493522644,198.052799930573,604.487701406479,607.247701406479,1643658887.76393,1643658887.769,1643658893.66613,1643658893.66933,1643658895.76691,1643658904.27008,1643658904.27191,1643658905.86855,1643658905.85401,1643659312.28891,0
91,4,1,3,12,1,2,c2_WhyHand,1,competing?,9,H_261.jpg,1643658705.04121,1643658705.04922,198.136165132523,5.51185178756714,203.654888858795,205.755672683716,2.10078382492065,205.905729284287,1.71730542182922,NaN,0,NA,0,207.623034706116,604.487701406479,607.247701406479,1643658905.93737,1643658905.93905,1643658911.4561,1643658911.46954,1643658913.55688,1643658913.70694,1643658913.71938,NaN,1643658915.42424,1643659312.28891,0
91,4,1,3,12,2,2,c2_WhyHand,2,competing?,12,H_483.jpg,1643658705.04121,1643658705.04922,198.136165132523,5.51185178756714,203.654888858795,205.755672683716,0.3,207.939820756912,1.18377470970154,209.134726991653,3,right,1.17368388175964,209.123595466614,604.487701406479,607.247701406479,1643658905.93737,1643658905.93905,1643658911.4561,1643658911.46954,1643658913.55688,1643658915.74103,1643658915.74256,1643658916.93593,1643658916.9248,1643659312.28891,0
91,4,1,3,12,3,2,c2_WhyHand,1,competing?,14,H_132.jpg,1643658705.04121,1643658705.04922,198.136165132523,5.51185178756714,203.654888858795,205.755672683716,0.3,209.440379610062,0.650243520736694,210.091658821106,1,left,0.633203983306885,210.090623130798,604.487701406479,607.247701406479,1643658905.93737,1643658905.93905,1643658911.4561,1643658911.46954,1643658913.55688,1643658917.24159,1643658917.24324,1643658917.89287,1643658917.89183,1643659312.28891,1
91,4,1,3,12,4,2,c2_WhyHand,2,competing?,10,H_126.jpg,1643658705.04121,1643658705.04922,198.136165132523,5.51185178756714,203.654888858795,205.755672683716,0.3,210.40740655899,1.00037407875061,211.417350997925,3,right,0.991008996963501,211.407780637741,604.487701406479,607.247701406479,1643658905.93737,1643658905.93905,1643658911.4561,1643658911.46954,1643658913.55688,1643658918.20861,1643658918.21069,1643658919.21856,1643658919.20899,1643659312.28891,0
91,4,1,3,12,5,2,c2_WhyHand,1,competing?,16,H_136.jpg,1643658705.04121,1643658705.04922,198.136165132523,5.51185178756714,203.654888858795,205.755672683716,0.3,211.72456454277,1.1004114151001,212.834297885895,1,left,1.08822417259216,212.82497595787,604.487701406479,607.247701406479,1643658905.93737,1643658905.93905,1643658911.4561,1643658911.46954,1643658913.55688,1643658919.52577,1643658919.52715,1643658920.6355,1643658920.62618,1643659312.28891,1
91,4,1,3,12,6,2,c2_WhyHand,2,competing?,11,H_502.jpg,1643658705.04121,1643658705.04922,198.136165132523,5.51185178756714,203.654888858795,205.755672683716,0.3,213.141761054993,1.01704597473145,214.167561998367,3,right,1.00704193115234,214.158807029724,604.487701406479,607.247701406479,1643658905.93737,1643658905.93905,1643658911.4561,1643658911.46954,1643658913.55688,1643658920.94297,1643658920.94459,1643658921.96877,1643658921.96001,1643659312.28891,0
91,4,1,3,12,7,2,c2_WhyHand,1,competing?,13,H_003.jpg,1643658705.04121,1643658705.04922,198.136165132523,5.51185178756714,203.654888858795,205.755672683716,0.3,214.475590934753,0.900335788726807,215.384672870636,1,left,0.886065006256104,215.37592672348,604.487701406479,607.247701406479,1643658905.93737,1643658905.93905,1643658911.4561,1643658911.46954,1643658913.55688,1643658922.2768,1643658922.27859,1643658923.18588,1643658923.17713,1643659312.28891,1
91,4,1,3,12,8,2,c2_WhyHand,1,competing?,15,H_170.jpg,1643658705.04121,1643658705.04922,198.136165132523,5.51185178756714,203.654888858795,205.755672683716,0.3,215.692711820602,0.700260400772095,216.394500007629,1,left,0.682026147842407,216.392972221375,604.487701406479,607.247701406479,1643658905.93737,1643658905.93905,1643658911.4561,1643658911.46954,1643658913.55688,1643658923.49392,1643658923.49567,1643658924.19571,1643658924.19418,1643659312.28891,1
91,4,1,3,13,1,1,c1_WhyFace,1,self-doubt?,29,F_544.jpg,1643658705.04121,1643658705.04922,216.459663858414,5.25834012031555,221.728296031952,223.829079380035,2.1007833480835,223.979134550095,1.33383131027222,225.317569961548,1,left,1.31861209869385,225.312965860367,604.487701406479,607.247701406479,1643658924.26087,1643658924.26879,1643658929.5295,1643658929.53591,1643658931.63029,1643658931.78034,1643658931.78598,1643658933.11878,1643658933.11417,1643659312.28891,1
91,4,1,3,13,2,1,c1_WhyFace,2,self-doubt?,27,F_086.jpg,1643658705.04121,1643658705.04922,216.459663858414,5.25834012031555,221.728296031952,223.829079380035,0.3,225.62975071907,0.0166735649108887,225.651212921143,1,left,0.000313043594360352,225.646424283981,604.487701406479,607.247701406479,1643658924.26087,1643658924.26879,1643658929.5295,1643658929.53591,1643658931.63029,1643658933.43096,1643658933.43591,1643658933.45242,1643658933.44763,1643659312.28891,0
91,4,1,3,13,3,1,c1_WhyFace,1,self-doubt?,25,F_798.jpg,1643658705.04121,1643658705.04922,216.459663858414,5.25834012031555,221.728296031952,223.829079380035,0.3,225.963207712173,1.13375735282898,227.100715866089,1,left,1.11765503883362,227.096965065002,604.487701406479,607.247701406479,1643658924.26087,1643658924.26879,1643658929.5295,1643658929.53591,1643658931.63029,1643658933.76441,1643658933.7695,1643658934.90192,1643658934.89817,1643659312.28891,1
91,4,1,3,13,4,1,c1_WhyFace,1,self-doubt?,26,F_111.jpg,1643658705.04121,1643658705.04922,216.459663858414,5.25834012031555,221.728296031952,223.829079380035,0.3,227.413749923706,0.0166716575622559,227.43470000267,1,left,0.000298976898193359,227.430421581268,604.487701406479,607.247701406479,1643658924.26087,1643658924.26879,1643658929.5295,1643658929.53591,1643658931.63029,1643658935.21496,1643658935.2188,1643658935.23591,1643658935.23163,1643659312.28891,1
91,4,1,3,13,5,1,c1_WhyFace,2,self-doubt?,31,F_774.jpg,1643658705.04121,1643658705.04922,216.459663858414,5.25834012031555,221.728296031952,223.829079380035,0.3,227.747206678391,0.850317478179932,228.601037015915,3,right,0.827441215515137,228.59752415657,604.487701406479,607.247701406479,1643658924.26087,1643658924.26879,1643658929.5295,1643658929.53591,1643658931.63029,1643658935.54841,1643658935.55254,1643658936.40224,1643658936.39873,1643659312.28891,0
91,4,1,3,13,6,1,c1_WhyFace,1,self-doubt?,28,F_754.jpg,1643658705.04121,1643658705.04922,216.459663858414,5.25834012031555,221.728296031952,223.829079380035,0.3,228.914308776855,0.917008876800537,229.834602823257,1,left,0.901895046234131,229.831317653656,604.487701406479,607.247701406479,1643658924.26087,1643658924.26879,1643658929.5295,1643658929.53591,1643658931.63029,1643658936.71552,1643658936.7192,1643658937.63581,1643658937.63252,1643659312.28891,1
91,4,1,3,13,7,1,c1_WhyFace,2,self-doubt?,32,F_128.jpg,1643658705.04121,1643658705.04922,216.459663858414,5.25834012031555,221.728296031952,223.829079380035,0.3,230.148101558685,0.933682203292847,231.084182014465,3,right,0.921545028686523,231.081783761978,604.487701406479,607.247701406479,1643658924.26087,1643658924.26879,1643658929.5295,1643658929.53591,1643658931.63029,1643658937.94931,1643658937.95258,1643658938.88539,1643658938.88299,1643659312.28891,0
91,4,1,3,13,8,1,c1_WhyFace,1,self-doubt?,30,F_584.jpg,1643658705.04121,1643658705.04922,216.459663858414,5.25834012031555,221.728296031952,223.829079380035,0.3,231.3985688591,1.71730709075928,233.274441947937,3,right,1.8554160118103,233.11587594986,604.487701406479,607.247701406479,1643658924.26087,1643658924.26879,1643658929.5295,1643658929.53591,1643658931.63029,1643658939.19978,1643658939.20224,1643658941.07565,1643658940.91708,1643659312.28891,0
91,4,1,3,14,1,3,c3_HowFace,1,looking at camera?,64,F_128.jpg,1643658705.04121,1643658705.04922,233.332622756958,7.43938517570496,240.785403003693,242.886185874939,2.10078287124634,243.036241998672,1.61726999282837,244.667630901337,1,left,1.60751104354858,244.653511991501,604.487701406479,607.247701406479,1643658941.13383,1643658941.1352,1643658948.58661,1643658948.5884,1643658950.68739,1643658950.83745,1643658950.83972,1643658952.46884,1643658952.45472,1643659312.28891,1
91,4,1,3,14,2,3,c3_HowFace,1,looking at camera?,60,F_618.jpg,1643658705.04121,1643658705.04922,233.332622756958,7.43938517570496,240.785403003693,242.886185874939,0.3,244.970296134949,0.600224018096924,245.584451904297,1,left,0.589722871780396,245.570520153046,604.487701406479,607.247701406479,1643658941.13383,1643658941.1352,1643658948.58661,1643658948.5884,1643658950.68739,1643658952.7715,1643658952.77309,1643658953.38566,1643658953.37173,1643659312.28891,1
91,4,1,3,14,3,3,c3_HowFace,1,looking at camera?,62,F_598.jpg,1643658705.04121,1643658705.04922,233.332622756958,7.43938517570496,240.785403003693,242.886185874939,0.3,245.887304773331,0.650243759155273,246.539154043198,1,left,0.636937856674194,246.537548532486,604.487701406479,607.247701406479,1643658941.13383,1643658941.1352,1643658948.58661,1643658948.5884,1643658950.68739,1643658953.68851,1643658953.69019,1643658954.34036,1643658954.33876,1643659312.28891,1
91,4,1,3,14,4,3,c3_HowFace,2,looking at camera?,63,F_743.jpg,1643658705.04121,1643658705.04922,233.332622756958,7.43938517570496,240.785403003693,242.886185874939,0.3,246.854331960678,0.0166740417480469,246.872803916931,1,left,0.000256061553955078,246.871006002426,604.487701406479,607.247701406479,1643658941.13383,1643658941.1352,1643658948.58661,1643658948.5884,1643658950.68739,1643658954.65554,1643658954.65726,1643658954.67401,1643658954.67221,1643659312.28891,0
91,4,1,3,14,5,3,c3_HowFace,1,looking at camera?,61,F_774.jpg,1643658705.04121,1643658705.04922,233.332622756958,7.43938517570496,240.785403003693,242.886185874939,0.3,247.187789669037,1.16710257530212,248.356624832153,1,left,1.14368081092834,248.354892244339,604.487701406479,607.247701406479,1643658941.13383,1643658941.1352,1643658948.58661,1643658948.5884,1643658950.68739,1643658954.989,1643658954.99119,1643658956.15783,1643658956.1561,1643659312.28891,1
91,4,1,3,14,6,3,c3_HowFace,2,looking at camera?,57,F_582.jpg,1643658705.04121,1643658705.04922,233.332622756958,7.43938517570496,240.785403003693,242.886185874939,0.3,248.671677103043,0.0166726112365723,248.69037984848,1,left,0.000306129455566406,248.688349714279,604.487701406479,607.247701406479,1643658941.13383,1643658941.1352,1643658948.58661,1643658948.5884,1643658950.68739,1643658956.47288,1643658956.47479,1643658956.49159,1643658956.48956,1643659312.28891,0
91,4,1,3,14,7,3,c3_HowFace,2,looking at camera?,58,F_754.jpg,1643658705.04121,1643658705.04922,233.332622756958,7.43938517570496,240.785403003693,242.886185874939,0.3,249.005134811401,1.21711993217468,250.223863830566,3,right,1.20315384864807,250.222254743576,604.487701406479,607.247701406479,1643658941.13383,1643658941.1352,1643658948.58661,1643658948.5884,1643658950.68739,1643658956.80634,1643658956.80817,1643658958.02507,1643658958.02346,1643659312.28891,0
91,4,1,3,14,8,3,c3_HowFace,1,looking at camera?,59,F_129.jpg,1643658705.04121,1643658705.04922,233.332622756958,7.43938517570496,240.785403003693,242.886185874939,0.3,250.539040317535,1.16710186004639,251.717967977524,1,left,1.15714693069458,251.706142177582,604.487701406479,607.247701406479,1643658941.13383,1643658941.1352,1643658948.58661,1643658948.5884,1643658950.68739,1643658958.34025,1643658958.3422,1643658959.51918,1643658959.50735,1643659312.28891,1
91,4,1,3,15,1,4,c4_HowHand,1,both hands?,123,H_167.jpg,1643658705.04121,1643658705.04922,251.789506425858,7.77252149581909,259.575742950439,261.676525344849,2.10078239440918,261.826583137512,1.46721243858337,263.300868024826,1,left,1.45059680938721,263.293795576096,604.487701406479,607.247701406479,1643658959.59071,1643658959.60182,1643658967.37695,1643658967.37862,1643658969.47773,1643658969.62779,1643658969.62975,1643658971.10208,1643658971.095,1643659312.28891,1
91,4,1,3,15,2,4,c4_HowHand,2,both hands?,121,H_091.jpg,1643658705.04121,1643658705.04922,251.789506425858,7.77252149581909,259.575742950439,261.676525344849,0.3,263.610581388474,1.33383011817932,264.950805892944,1,left,1.32536101341248,264.944411506653,604.487701406479,607.247701406479,1643658959.59071,1643658959.60182,1643658967.37695,1643658967.37862,1643658969.47773,1643658971.41179,1643658971.41335,1643658972.75201,1643658972.74562,1643659312.28891,0
91,4,1,3,15,3,4,c4_HowHand,2,both hands?,125,H_627.jpg,1643658705.04121,1643658705.04922,251.789506425858,7.77252149581909,259.575742950439,261.676525344849,0.3,265.261196603775,0.0166730880737305,265.28478597641,1,left,0.000267982482910156,265.277869691849,604.487701406479,607.247701406479,1643658959.59071,1643658959.60182,1643658967.37695,1643658967.37862,1643658969.47773,1643658973.0624,1643658973.06406,1643658973.08599,1643658973.07908,1643659312.28891,0
91,4,1,3,15,4,4,c4_HowHand,1,both hands?,128,H_027.jpg,1643658705.04121,1643658705.04922,251.789506425858,7.77252149581909,259.575742950439,261.676525344849,0.3,265.59465502739,1.23379278182983,266.834352960587,1,left,1.2174699306488,266.828447809219,604.487701406479,607.247701406479,1643658959.59071,1643658959.60182,1643658967.37695,1643658967.37862,1643658969.47773,1643658973.39586,1643658973.39782,1643658974.63556,1643658974.62965,1643659312.28891,1
91,4,1,3,15,5,4,c4_HowHand,1,both hands?,122,H_111.jpg,1643658705.04121,1643658705.04922,251.789506425858,7.77252149581909,259.575742950439,261.676525344849,0.3,267.145232667923,1.0170464515686,268.167860975266,1,left,1.00282788276672,268.162279119492,604.487701406479,607.247701406479,1643658959.59071,1643658959.60182,1643658967.37695,1643658967.37862,1643658969.47773,1643658974.94644,1643658974.94809,1643658975.96907,1643658975.96349,1643659312.28891,1
91,4,1,3,15,6,4,c4_HowHand,2,both hands?,126,H_159.jpg,1643658705.04121,1643658705.04922,251.789506425858,7.77252149581909,259.575742950439,261.676525344849,0.3,268.479063978195,0.0166730880737305,268.501169910431,1,left,0.000284194946289062,268.495737066269,604.487701406479,607.247701406479,1643658959.59071,1643658959.60182,1643658967.37695,1643658967.37862,1643658969.47773,1643658976.28027,1643658976.28195,1643658976.30238,1643658976.29694,1643659312.28891,0
91,4,1,3,15,7,4,c4_HowHand,1,both hands?,124,H_581.jpg,1643658705.04121,1643658705.04922,251.789506425858,7.77252149581909,259.575742950439,261.676525344849,0.3,268.81252073288,1.71730780601501,270.566431035995,1,left,1.73062701225281,270.529828538895,604.487701406479,607.247701406479,1643658959.59071,1643658959.60182,1643658967.37695,1643658967.37862,1643658969.47773,1643658976.61373,1643658976.61566,1643658978.36764,1643658978.33104,1643659312.28891,1
91,4,1,3,15,8,4,c4_HowHand,1,both hands?,127,H_349.jpg,1643658705.04121,1643658705.04922,251.789506425858,7.77252149581909,259.575742950439,261.676525344849,0.3,270.846612682343,0.0166730880737305,270.867749919891,1,left,0.000212192535400391,270.863285770416,604.487701406479,607.247701406479,1643658959.59071,1643658959.60182,1643658967.37695,1643658967.37862,1643658969.47773,1643658978.64782,1643658978.64878,1643658978.66896,1643658978.66449,1643659312.28891,1
91,4,1,3,16,1,2,c2_WhyHand,1,self-protection?,89,H_443.jpg,1643658705.04121,1643658705.04922,270.946651449204,7.40544152259827,278.366084089279,280.466866960526,2.10078287124634,280.616924037933,0.750278949737549,281.369575014114,1,left,0.728510141372681,281.367202987671,604.487701406479,607.247701406479,1643658978.74786,1643658978.75248,1643658986.16729,1643658986.16993,1643658988.26807,1643658988.41813,1643658988.42023,1643658989.17078,1643658989.16841,1643659312.28891,1
91,4,1,3,16,2,2,c2_WhyHand,2,self-protection?,90,H_006.jpg,1643658705.04121,1643658705.04922,270.946651449204,7.40544152259827,278.366084089279,280.466866960526,0.3,281.683987846375,1.55057787895203,283.251826992035,3,right,1.54173111915588,283.234565725327,604.487701406479,607.247701406479,1643658978.74786,1643658978.75248,1643658986.16729,1643658986.16993,1643658988.26807,1643658989.48519,1643658989.48699,1643658991.05303,1643658991.03577,1643659312.28891,0
91,4,1,3,16,3,2,c2_WhyHand,1,self-protection?,91,H_581.jpg,1643658705.04121,1643658705.04922,270.946651449204,7.40544152259827,278.366084089279,280.466866960526,0.3,283.551350822449,0.783626079559326,284.337132921219,1,left,0.765000104904175,284.334976902008,604.487701406479,607.247701406479,1643658978.74786,1643658978.75248,1643658986.16729,1643658986.16993,1643658988.26807,1643658991.35256,1643658991.35468,1643658992.13834,1643658992.13618,1643659312.28891,1
91,4,1,3,16,4,2,c2_WhyHand,2,self-protection?,92,H_532.jpg,1643658705.04121,1643658705.04922,270.946651449204,7.40544152259827,278.366084089279,280.466866960526,0.3,284.651761522293,1.56725120544434,286.221654882431,3,right,1.54456210136414,286.219012727737,604.487701406479,607.247701406479,1643658978.74786,1643658978.75248,1643658986.16729,1643658986.16993,1643658988.26807,1643658992.45297,1643658992.45514,1643658994.02286,1643658994.02022,1643659312.28891,0
91,4,1,3,16,5,2,c2_WhyHand,1,self-protection?,96,H_027.jpg,1643658705.04121,1643658705.04922,270.946651449204,7.40544152259827,278.366084089279,280.466866960526,0.3,286.535796871185,1.46721410751343,288.005290975571,1,left,1.44846701622009,288.003010978699,604.487701406479,607.247701406479,1643658978.74786,1643658978.75248,1643658986.16729,1643658986.16993,1643658988.26807,1643658994.337,1643658994.33922,1643658995.8065,1643658995.80422,1643659312.28891,1
91,4,1,3,16,6,2,c2_WhyHand,1,self-protection?,93,H_038.jpg,1643658705.04121,1643658705.04922,270.946651449204,7.40544152259827,278.366084089279,280.466866960526,0.3,288.319795837402,0.0166735649108887,288.338968029022,1,left,0.00037384033203125,288.336469402313,604.487701406479,607.247701406479,1643658978.74786,1643658978.75248,1643658986.16729,1643658986.16993,1643658988.26807,1643658996.121,1643658996.12321,1643658996.14018,1643658996.13768,1643659312.28891,1
91,4,1,3,16,7,2,c2_WhyHand,2,self-protection?,95,H_332.jpg,1643658705.04121,1643658705.04922,270.946651449204,7.40544152259827,278.366084089279,280.466866960526,0.3,288.653254022598,1.16710186004639,289.822620859146,3,right,1.14881110191345,289.820355882645,604.487701406479,607.247701406479,1643658978.74786,1643658978.75248,1643658986.16729,1643658986.16993,1643658988.26807,1643658996.45446,1643658996.45656,1643658997.62383,1643658997.62156,1643659312.28891,0
91,4,1,3,16,8,2,c2_WhyHand,1,self-protection?,94,H_189.jpg,1643658705.04121,1643658705.04922,270.946651449204,7.40544152259827,278.366084089279,280.466866960526,0.3,290.137140026093,1.71730756759644,291.918906917572,3,right,1.75887198448181,291.854447593689,604.487701406479,607.247701406479,1643658978.74786,1643658978.75248,1643658986.16729,1643658986.16993,1643658988.26807,1643658997.93835,1643658997.94037,1643658999.72011,1643658999.65565,1643659312.28891,0
91,4,1,3,17,1,3,c3_HowFace,1,smiling?,118,F_759.jpg,1643658705.04121,1643658705.04922,292.021176567078,7.81100726127625,299.84075879097,301.941543331146,2.10078454017639,302.091598978043,1.7173068523407,NaN,0,NA,0,303.808905830383,604.487701406479,607.247701406479,1643658999.82238,1643658999.82458,1643659007.64197,1643659007.65322,1643659009.74275,1643659009.89281,1643659009.90327,NaN,1643659011.61011,1643659312.28891,0
91,4,1,3,17,2,3,c3_HowFace,2,smiling?,114,F_412.jpg,1643658705.04121,1643658705.04922,292.021176567078,7.81100726127625,299.84075879097,301.941543331146,0.3,304.125690927506,1.71730613708496,NaN,0,NA,0,305.84299706459,604.487701406479,607.247701406479,1643658999.82238,1643658999.82458,1643659007.64197,1643659007.65322,1643659009.74275,1643659011.9269,1643659011.92907,NaN,1643659013.6442,1643659312.28891,0
91,4,1,3,17,3,3,c3_HowFace,1,smiling?,117,F_593.jpg,1643658705.04121,1643658705.04922,292.021176567078,7.81100726127625,299.84075879097,301.941543331146,0.3,306.159783115387,0.90033483505249,307.062438001633,3,right,0.876046895980835,307.060117950439,604.487701406479,607.247701406479,1643658999.82238,1643658999.82458,1643659007.64197,1643659007.65322,1643659009.74275,1643659013.96099,1643659013.96321,1643659014.86365,1643659014.86133,1643659312.28891,0
91,4,1,3,17,4,3,c3_HowFace,2,smiling?,113,F_712.jpg,1643658705.04121,1643658705.04922,292.021176567078,7.81100726127625,299.84075879097,301.941543331146,0.3,307.376903524399,0.733605861663818,308.118520965576,3,right,0.718898057937622,308.110509386063,604.487701406479,607.247701406479,1643658999.82238,1643658999.82458,1643659007.64197,1643659007.65322,1643659009.74275,1643659015.17811,1643659015.18022,1643659015.91973,1643659015.91172,1643659312.28891,0
91,4,1,3,17,5,3,c3_HowFace,1,smiling?,115,F_695.jpg,1643658705.04121,1643658705.04922,292.021176567078,7.81100726127625,299.84075879097,301.941543331146,0.3,308.427294721603,0.933681011199951,309.363158931732,1,left,0.912865877151489,309.360975732803,604.487701406479,607.247701406479,1643658999.82238,1643658999.82458,1643659007.64197,1643659007.65322,1643659009.74275,1643659016.2285,1643659016.23067,1643659017.16437,1643659017.16218,1643659312.28891,1
91,4,1,3,17,6,3,c3_HowFace,1,smiling?,119,F_139.jpg,1643658705.04121,1643658705.04922,292.021176567078,7.81100726127625,299.84075879097,301.941543331146,0.3,309.677760591507,0.716934204101562,310.401826848984,1,left,0.705683946609497,310.394694795609,604.487701406479,607.247701406479,1643658999.82238,1643658999.82458,1643659007.64197,1643659007.65322,1643659009.74275,1643659017.47897,1643659017.48106,1643659018.20303,1643659018.1959,1643659312.28891,1
91,4,1,3,17,7,3,c3_HowFace,1,smiling?,116,F_083.jpg,1643658705.04121,1643658705.04922,292.021176567078,7.81100726127625,299.84075879097,301.941543331146,0.3,310.711479654312,0.616897344589233,311.335238924026,1,left,0.600322008132935,311.328376998901,604.487701406479,607.247701406479,1643658999.82238,1643658999.82458,1643659007.64197,1643659007.65322,1643659009.74275,1643659018.51269,1643659018.51487,1643659019.13645,1643659019.12958,1643659312.28891,1
91,4,1,3,17,8,3,c3_HowFace,2,smiling?,120,F_758.jpg,1643658705.04121,1643658705.04922,292.021176567078,7.81100726127625,299.84075879097,301.941543331146,0.3,311.645161380768,0.65024209022522,312.297881832123,3,right,0.625114917755127,312.295403470993,604.487701406479,607.247701406479,1643658999.82238,1643658999.82458,1643659007.64197,1643659007.65322,1643659009.74275,1643659019.44637,1643659019.44848,1643659020.09909,1643659020.09661,1643659312.28891,0
91,4,1,3,18,1,1,c1_WhyFace,1,admiring?,1,F_593.jpg,1643658705.04121,1643658705.04922,312.395441045761,5.2266058921814,317.630727043152,319.731509914398,2.10078287124634,319.88156627655,0.66691517829895,320.551805963516,1,left,0.650719165802002,320.548481454849,604.487701406479,607.247701406479,1643659020.19665,1643659020.20308,1643659025.43193,1643659025.43638,1643659027.53272,1643659027.68277,1643659027.68661,1643659028.35301,1643659028.34969,1643659312.28891,1
91,4,1,3,18,2,1,c1_WhyFace,2,admiring?,2,F_129.jpg,1643658705.04121,1643658705.04922,312.395441045761,5.2266058921814,317.630727043152,319.731509914398,0.3,320.865267028809,0.866988658905029,321.735224952698,3,right,0.840870141983032,321.732255687714,604.487701406479,607.247701406479,1643659020.19665,1643659020.20308,1643659025.43193,1643659025.43638,1643659027.53272,1643659028.66647,1643659028.6696,1643659029.53643,1643659029.53346,1643659312.28891,0
91,4,1,3,18,3,1,c1_WhyFace,1,admiring?,5,F_759.jpg,1643658705.04121,1643658705.04922,312.395441045761,5.2266058921814,317.630727043152,319.731509914398,0.3,322.049041261673,1.01704621315002,323.068404903412,1,left,1.00177192687988,323.066087474823,604.487701406479,607.247701406479,1643659020.19665,1643659020.20308,1643659025.43193,1643659025.43638,1643659027.53272,1643659029.85025,1643659029.85291,1643659030.86961,1643659030.86729,1643659312.28891,1
91,4,1,3,18,4,1,c1_WhyFace,2,admiring?,6,F_692.jpg,1643658705.04121,1643658705.04922,312.395441045761,5.2266058921814,317.630727043152,319.731509914398,0.3,323.382872095108,0.0166733264923096,323.401896944046,1,left,0.000382184982299805,323.3995454216,604.487701406479,607.247701406479,1643659020.19665,1643659020.20308,1643659025.43193,1643659025.43638,1643659027.53272,1643659031.18408,1643659031.18648,1643659031.2031,1643659031.20075,1643659312.28891,0
91,4,1,3,18,5,1,c1_WhyFace,1,admiring?,4,F_779.jpg,1643658705.04121,1643658705.04922,312.395441045761,5.2266058921814,317.630727043152,319.731509914398,0.3,323.716329803467,0.900335550308228,324.618904819489,1,left,0.875653982162476,324.616665353775,604.487701406479,607.247701406479,1643659020.19665,1643659020.20308,1643659025.43193,1643659025.43638,1643659027.53272,1643659031.51754,1643659031.51971,1643659032.42011,1643659032.41787,1643659312.28891,1
91,4,1,3,18,6,1,c1_WhyFace,1,admiring?,8,F_590.jpg,1643658705.04121,1643658705.04922,312.395441045761,5.2266058921814,317.630727043152,319.731509914398,0.3,324.93344997406,0.983700275421143,325.919365873337,1,left,0.96825909614563,325.917150249481,604.487701406479,607.247701406479,1643659020.19665,1643659020.20308,1643659025.43193,1643659025.43638,1643659027.53272,1643659032.73466,1643659032.7369,1643659033.72057,1643659033.71836,1643659312.28891,1
91,4,1,3,18,7,1,c1_WhyFace,1,admiring?,7,F_648.jpg,1643658705.04121,1643658705.04922,312.395441045761,5.2266058921814,317.630727043152,319.731509914398,0.3,326.233934392929,0.0166733264923096,326.252876987457,1,left,0.000349998474121094,326.250607719421,604.487701406479,607.247701406479,1643659020.19665,1643659020.20308,1643659025.43193,1643659025.43638,1643659027.53272,1643659034.03514,1643659034.03732,1643659034.05408,1643659034.05181,1643659312.28891,1
91,4,1,3,18,8,1,c1_WhyFace,2,admiring?,3,F_110.jpg,1643658705.04121,1643658705.04922,312.395441045761,5.2266058921814,317.630727043152,319.731509914398,0.3,326.567393054962,0.0166726112365723,326.586227884293,1,left,0.000319004058837891,326.584065666199,604.487701406479,607.247701406479,1643659020.19665,1643659020.20308,1643659025.43193,1643659025.43638,1643659027.53272,1643659034.3686,1643659034.3708,1643659034.38743,1643659034.38527,1643659312.28891,0
91,4,1,3,19,1,2,c2_WhyHand,1,competing?,9,H_261.jpg,1643658705.04121,1643658705.04922,326.68410276413,8.82793927192688,335.520731678009,337.621514549255,2.10078287124634,337.77157043457,1.71730780601501,NaN,0,NA,0,339.488878240585,604.487701406479,607.247701406479,1643659034.48531,1643659034.48721,1643659043.32194,1643659043.32365,1643659045.42272,1643659045.57278,1643659045.57521,NaN,1643659047.29009,1643659312.28891,0
91,4,1,3,19,2,2,c2_WhyHand,1,competing?,15,H_170.jpg,1643658705.04121,1643658705.04922,326.68410276413,8.82793927192688,335.520731678009,337.621514549255,0.3,339.805662622452,1.71730732917786,NaN,0,NA,0,341.52296995163,604.487701406479,607.247701406479,1643659034.48531,1643659034.48721,1643659043.32194,1643659043.32365,1643659045.42272,1643659047.60687,1643659047.60889,NaN,1643659049.32418,1643659312.28891,0
91,4,1,3,19,3,2,c2_WhyHand,2,competing?,12,H_483.jpg,1643658705.04121,1643658705.04922,326.68410276413,8.82793927192688,335.520731678009,337.621514549255,0.3,341.839754810333,0.883663415908813,342.72570895195,3,right,0.866514921188354,342.723418226242,604.487701406479,607.247701406479,1643659034.48531,1643659034.48721,1643659043.32194,1643659043.32365,1643659045.42272,1643659049.64096,1643659049.64292,1643659050.52692,1643659050.52463,1643659312.28891,0
91,4,1,3,19,4,2,c2_WhyHand,1,competing?,14,H_132.jpg,1643658705.04121,1643658705.04922,326.68410276413,8.82793927192688,335.520731678009,337.621514549255,0.3,343.040202608109,0.66691517829895,343.718816986084,1,left,0.654624938964844,343.707117786407,604.487701406479,607.247701406479,1643659034.48531,1643659034.48721,1643659043.32194,1643659043.32365,1643659045.42272,1643659050.84141,1643659050.84367,1643659051.52002,1643659051.50832,1643659312.28891,1
91,4,1,3,19,5,2,c2_WhyHand,1,competing?,16,H_136.jpg,1643658705.04121,1643658705.04922,326.68410276413,8.82793927192688,335.520731678009,337.621514549255,0.3,344.023901929855,1.31715893745422,345.343250980377,1,left,1.29936790466309,345.34106086731,604.487701406479,607.247701406479,1643659034.48531,1643659034.48721,1643659043.32194,1643659043.32365,1643659045.42272,1643659051.82511,1643659051.82733,1643659053.14446,1643659053.14227,1643659312.28891,1
91,4,1,3,19,6,2,c2_WhyHand,1,competing?,13,H_003.jpg,1643658705.04121,1643658705.04922,326.68410276413,8.82793927192688,335.520731678009,337.621514549255,0.3,345.657845487595,0.766952037811279,346.435047855377,1,left,0.754684925079346,346.424797525406,604.487701406479,607.247701406479,1643659034.48531,1643659034.48721,1643659043.32194,1643659043.32365,1643659045.42272,1643659053.45905,1643659053.46147,1643659054.23625,1643659054.226,1643659312.28891,1
91,4,1,3,19,7,2,c2_WhyHand,2,competing?,10,H_126.jpg,1643658705.04121,1643658705.04922,326.68410276413,8.82793927192688,335.520731678009,337.621514549255,0.3,346.74158238411,1.71730780601501,NaN,0,NA,0,348.458890190125,604.487701406479,607.247701406479,1643659034.48531,1643659034.48721,1643659043.32194,1643659043.32365,1643659045.42272,1643659054.54279,1643659054.54489,NaN,1643659056.2601,1643659312.28891,0
91,4,1,3,19,8,2,c2_WhyHand,2,competing?,11,H_502.jpg,1643658705.04121,1643658705.04922,326.68410276413,8.82793927192688,335.520731678009,337.621514549255,0.3,348.77567481041,1.7173068523407,NaN,0,NA,0,350.49298166275,604.487701406479,607.247701406479,1643659034.48531,1643659034.48721,1643659043.32194,1643659043.32365,1643659045.42272,1643659056.57688,1643659056.57909,NaN,1643659058.29419,1643659312.28891,0
91,4,1,3,20,1,4,c4_HowHand,1,reaching?,111,H_003.jpg,1643658705.04121,1643658705.04922,350.876458158493,6.11587381362915,357.012079467773,359.09619020462,2.08411073684692,359.24624537468,1.71730756759644,NaN,0,NA,0,360.963552942276,604.487701406479,607.247701406479,1643659058.67767,1643659058.68039,1643659064.81329,1643659064.81557,1643659066.8974,1643659067.04745,1643659067.05259,NaN,1643659068.76476,1643659312.28891,0
91,4,1,3,20,2,4,c4_HowHand,1,reaching?,110,H_364.jpg,1643658705.04121,1643658705.04922,350.876458158493,6.11587381362915,357.012079467773,359.09619020462,0.3,361.280338516235,0.133382558822632,361.418390979767,1,left,0.112451076507568,361.413721075058,604.487701406479,607.247701406479,1643659058.67767,1643659058.68039,1643659064.81329,1643659064.81557,1643659066.8974,1643659069.08155,1643659069.08651,1643659069.2196,1643659069.21493,1643659312.28891,1
91,4,1,3,20,3,4,c4_HowHand,2,reaching?,108,H_532.jpg,1643658705.04121,1643658705.04922,350.876458158493,6.11587381362915,357.012079467773,359.09619020462,0.3,361.730505933762,1.71730732917786,NaN,0,NA,0,363.447813262939,604.487701406479,607.247701406479,1643659058.67767,1643659058.68039,1643659064.81329,1643659064.81557,1643659066.8974,1643659069.53171,1643659069.53622,NaN,1643659071.24902,1643659312.28891,0
91,4,1,3,20,4,4,c4_HowHand,1,reaching?,106,H_006.jpg,1643658705.04121,1643658705.04922,350.876458158493,6.11587381362915,357.012079467773,359.09619020462,0.3,363.764597644806,1.71730709075928,NaN,0,NA,0,365.481904735565,604.487701406479,607.247701406479,1643659058.67767,1643659058.68039,1643659064.81329,1643659064.81557,1643659066.8974,1643659071.5658,1643659071.56949,NaN,1643659073.28311,1643659312.28891,0
91,4,1,3,20,5,4,c4_HowHand,2,reaching?,105,H_438.jpg,1643658705.04121,1643658705.04922,350.876458158493,6.11587381362915,357.012079467773,359.09619020462,0.3,365.798690071106,1.71730613708496,367.527864923477,1,left,1.70564098358154,367.515996208191,604.487701406479,607.247701406479,1643659058.67767,1643659058.68039,1643659064.81329,1643659064.81557,1643659066.8974,1643659073.5999,1643659073.60287,1643659075.32907,1643659075.3172,1643659312.28891,0
91,4,1,3,20,6,4,c4_HowHand,1,reaching?,107,H_007.jpg,1643658705.04121,1643658705.04922,350.876458158493,6.11587381362915,357.012079467773,359.09619020462,0.3,367.83278178215,0.0166723728179932,367.851492872238,1,left,0.000365018844604492,367.849454154968,604.487701406479,607.247701406479,1643659058.67767,1643659058.68039,1643659064.81329,1643659064.81557,1643659066.8974,1643659075.63399,1643659075.6363,1643659075.6527,1643659075.65066,1643659312.28891,1
91,4,1,3,20,7,4,c4_HowHand,1,reaching?,109,H_474.jpg,1643658705.04121,1643658705.04922,350.876458158493,6.11587381362915,357.012079467773,359.09619020462,0.3,368.166239728928,0.0166723728179932,368.184952964783,1,left,0.000346183776855469,368.182912101746,604.487701406479,607.247701406479,1643659058.67767,1643659058.68039,1643659064.81329,1643659064.81557,1643659066.8974,1643659075.96745,1643659075.9696,1643659075.98616,1643659075.98412,1643659312.28891,1
91,4,1,3,20,8,4,c4_HowHand,2,reaching?,112,H_132.jpg,1643658705.04121,1643658705.04922,350.876458158493,6.11587381362915,357.012079467773,359.09619020462,0.3,368.499696960449,1.71730732917786,NaN,0,NA,0,370.217004289627,604.487701406479,607.247701406479,1643659058.67767,1643659058.68039,1643659064.81329,1643659064.81557,1643659066.8974,1643659076.3009,1643659076.3035,NaN,1643659078.01821,1643659312.28891,0
91,4,1,3,21,1,3,c3_HowFace,1,open mouth?,73,F_403.jpg,1643658705.04121,1643658705.04922,370.583807697296,4.24823427200317,374.83539270401,376.936175575256,2.10078287124634,377.086232891083,1.73397850990295,NaN,0,NA,0,378.820211400986,604.487701406479,607.247701406479,1643659078.38501,1643659078.38716,1643659082.6366,1643659082.65308,1643659084.73738,1643659084.88744,1643659084.903,NaN,1643659086.62142,1643659312.28891,0
91,4,1,3,21,2,3,c3_HowFace,2,open mouth?,79,F_648.jpg,1643658705.04121,1643658705.04922,370.583807697296,4.24823427200317,374.83539270401,376.936175575256,0.3,379.136996974945,1.05039167404175,380.18948387146,3,right,1.03677296638489,380.187388648987,604.487701406479,607.247701406479,1643659078.38501,1643659078.38716,1643659082.6366,1643659082.65308,1643659084.73738,1643659086.9382,1643659086.94037,1643659087.99069,1643659087.9886,1643659312.28891,0
91,4,1,3,21,3,3,c3_HowFace,1,open mouth?,74,F_776.jpg,1643658705.04121,1643658705.04922,370.583807697296,4.24823427200317,374.83539270401,376.936175575256,0.3,380.504173984528,0.750279903411865,381.26893781662,1,left,0.737345933914185,381.254453887939,604.487701406479,607.247701406479,1643659078.38501,1643659078.38716,1643659082.6366,1643659082.65308,1643659084.73738,1643659088.30538,1643659088.30756,1643659089.07014,1643659089.05566,1643659312.28891,1
91,4,1,3,21,4,3,c3_HowFace,2,open mouth?,77,F_584.jpg,1643658705.04121,1643658705.04922,370.583807697296,4.24823427200317,374.83539270401,376.936175575256,0.3,381.571238746643,0.016671895980835,381.589964857101,1,left,0.000340938568115234,381.587910642624,604.487701406479,607.247701406479,1643659078.38501,1643659078.38716,1643659082.6366,1643659082.65308,1643659084.73738,1643659089.37245,1643659089.37479,1643659089.39117,1643659089.38912,1643659312.28891,0
91,4,1,3,21,5,3,c3_HowFace,1,open mouth?,80,F_844.jpg,1643658705.04121,1643658705.04922,370.583807697296,4.24823427200317,374.83539270401,376.936175575256,0.3,381.904696216583,0.733607292175293,382.640457859039,1,left,0.709183216094971,382.638303508759,604.487701406479,607.247701406479,1643659078.38501,1643659078.38716,1643659082.6366,1643659082.65308,1643659084.73738,1643659089.7059,1643659089.70791,1643659090.44166,1643659090.43951,1643659312.28891,1
91,4,1,3,21,6,3,c3_HowFace,1,open mouth?,78,F_692.jpg,1643658705.04121,1643658705.04922,370.583807697296,4.24823427200317,374.83539270401,376.936175575256,0.3,382.955087175369,0.0166745185852051,382.973955860138,1,left,0.000334978103637695,382.971761693954,604.487701406479,607.247701406479,1643659078.38501,1643659078.38716,1643659082.6366,1643659082.65308,1643659084.73738,1643659090.75629,1643659090.75869,1643659090.77516,1643659090.77297,1643659312.28891,1
91,4,1,3,21,7,3,c3_HowFace,1,open mouth?,75,F_086.jpg,1643658705.04121,1643658705.04922,370.583807697296,4.24823427200317,374.83539270401,376.936175575256,0.3,383.288544406891,0.0166749954223633,383.307070007324,1,left,0.000349998474121094,383.305219402313,604.487701406479,607.247701406479,1643659078.38501,1643659078.38716,1643659082.6366,1643659082.65308,1643659084.73738,1643659091.08975,1643659091.09178,1643659091.10828,1643659091.10643,1643659312.28891,1
91,4,1,3,21,8,3,c3_HowFace,2,open mouth?,76,F_544.jpg,1643658705.04121,1643658705.04922,370.583807697296,4.24823427200317,374.83539270401,376.936175575256,0.3,383.622002592087,0.0166726112365723,383.640835990906,1,left,0.000249147415161133,383.638675203323,604.487701406479,607.247701406479,1643659078.38501,1643659078.38716,1643659082.6366,1643659082.65308,1643659084.73738,1643659091.42321,1643659091.42496,1643659091.44204,1643659091.43988,1643659312.28891,0
91,4,1,3,22,1,1,c1_WhyFace,1,argument?,42,F_403.jpg,1643658705.04121,1643658705.04922,383.755385627747,9.75266432762146,393.525695552826,395.626479854584,2.10078430175781,395.776535739899,0.0166726112365723,395.802009811401,1,left,0.000380992889404297,395.793208351135,604.487701406479,607.247701406479,1643659091.55659,1643659091.55922,1643659101.3269,1643659101.32939,1643659103.42769,1643659103.57774,1643659103.57991,1643659103.60322,1643659103.59442,1643659312.28891,1
91,4,1,3,22,2,1,c1_WhyFace,2,argument?,46,F_844.jpg,1643658705.04121,1643658705.04922,383.755385627747,9.75266432762146,393.525695552826,395.626479854584,0.3,396.109993686676,0.0166721343994141,396.13532995224,1,left,0.000370979309082031,396.126665821075,604.487701406479,607.247701406479,1643659091.55659,1643659091.55922,1643659101.3269,1643659101.32939,1643659103.42769,1643659103.9112,1643659103.91337,1643659103.93654,1643659103.92787,1643659312.28891,0
91,4,1,3,22,3,1,c1_WhyFace,1,argument?,41,F_712.jpg,1643658705.04121,1643658705.04922,383.755385627747,9.75266432762146,393.525695552826,395.626479854584,0.3,396.443450679779,0.0166733264923096,396.468637933731,1,left,0.000353097915649414,396.460124006271,604.487701406479,607.247701406479,1643659091.55659,1643659091.55922,1643659101.3269,1643659101.32939,1643659103.42769,1643659104.24466,1643659104.24691,1643659104.26985,1643659104.26133,1643659312.28891,1
91,4,1,3,22,4,1,c1_WhyFace,1,argument?,48,F_758.jpg,1643658705.04121,1643658705.04922,383.755385627747,9.75266432762146,393.525695552826,395.626479854584,0.3,396.776908864975,0.0166730880737305,396.802094926834,1,left,0.000371932983398438,396.793581953049,604.487701406479,607.247701406479,1643659091.55659,1643659091.55922,1643659101.3269,1643659101.32939,1643659103.42769,1643659104.57812,1643659104.58023,1643659104.6033,1643659104.59479,1643659312.28891,1
91,4,1,3,22,5,1,c1_WhyFace,2,argument?,45,F_433.jpg,1643658705.04121,1643658705.04922,383.755385627747,9.75266432762146,393.525695552826,395.626479854584,0.3,397.110366811752,0.0166721343994141,397.135083904266,1,left,0.000367879867553711,397.127038946152,604.487701406479,607.247701406479,1643659091.55659,1643659091.55922,1643659101.3269,1643659101.32939,1643659103.42769,1643659104.91157,1643659104.91388,1643659104.93629,1643659104.92825,1643659312.28891,0
91,4,1,3,22,6,1,c1_WhyFace,1,argument?,43,F_716.jpg,1643658705.04121,1643658705.04922,383.755385627747,9.75266432762146,393.525695552826,395.626479854584,0.3,397.443824281693,0.0166726112365723,397.468451013565,1,left,0.000336170196533203,397.460496892929,604.487701406479,607.247701406479,1643659091.55659,1643659091.55922,1643659101.3269,1643659101.32939,1643659103.42769,1643659105.24503,1643659105.24712,1643659105.26966,1643659105.2617,1643659312.28891,1
91,4,1,3,22,7,1,c1_WhyFace,2,argument?,44,F_139.jpg,1643658705.04121,1643658705.04922,383.755385627747,9.75266432762146,393.525695552826,395.626479854584,0.3,397.777281751633,0.0166726112365723,397.80221985817,1,left,0.000375986099243164,397.793954362869,604.487701406479,607.247701406479,1643659091.55659,1643659091.55922,1643659101.3269,1643659101.32939,1643659103.42769,1643659105.57849,1643659105.58075,1643659105.60343,1643659105.59516,1643659312.28891,0
91,4,1,3,22,8,1,c1_WhyFace,1,argument?,47,F_743.jpg,1643658705.04121,1643658705.04922,383.755385627747,9.75266432762146,393.525695552826,395.626479854584,0.3,398.11073969841,0.0166721343994141,398.135046949387,1,left,0.000329971313476562,398.127411832809,604.487701406479,607.247701406479,1643659091.55659,1643659091.55922,1643659101.3269,1643659101.32939,1643659103.42769,1643659105.91195,1643659105.91411,1643659105.93625,1643659105.92862,1643659312.28891,1
91,4,1,3,23,1,2,c2_WhyHand,1,helping?,39,H_024.jpg,1643658705.04121,1643658705.04922,398.244121780396,13.4839291572571,411.732485761642,413.833269824982,2.10078406333923,413.983324995041,1.71730804443359,NaN,0,NA,0,415.700633039474,604.487701406479,607.247701406479,1643659106.04533,1643659106.04755,1643659119.53369,1643659119.53611,1643659121.63448,1643659121.78453,1643659121.78656,NaN,1643659123.50184,1643659312.28891,0
91,4,1,3,23,2,2,c2_WhyHand,1,helping?,36,H_349.jpg,1643658705.04121,1643658705.04922,398.244121780396,13.4839291572571,411.732485761642,413.833269824982,0.3,416.017418136597,1.6839611530304,417.703145971298,1,left,1.67191290855408,417.701379289627,604.487701406479,607.247701406479,1643659106.04533,1643659106.04755,1643659119.53369,1643659119.53611,1643659121.63448,1643659123.81863,1643659123.82119,1643659125.50435,1643659125.50259,1643659312.28891,1
91,4,1,3,23,3,2,c2_WhyHand,1,helping?,38,H_077.jpg,1643658705.04121,1643658705.04922,398.244121780396,13.4839291572571,411.732485761642,413.833269824982,0.3,418.018164386749,0.967026710510254,418.987144937515,1,left,0.955336809158325,418.98519109726,604.487701406479,607.247701406479,1643659106.04533,1643659106.04755,1643659119.53369,1643659119.53611,1643659121.63448,1643659125.81937,1643659125.82149,1643659126.78835,1643659126.7864,1643659312.28891,1
91,4,1,3,23,4,2,c2_WhyHand,1,helping?,37,H_474.jpg,1643658705.04121,1643658705.04922,398.244121780396,13.4839291572571,411.732485761642,413.833269824982,0.3,419.301975955963,1.08373641967773,420.387744894028,1,left,1.05814695358276,420.385712375641,604.487701406479,607.247701406479,1643659106.04533,1643659106.04755,1643659119.53369,1643659119.53611,1643659121.63448,1643659127.10318,1643659127.10564,1643659128.18895,1643659128.18692,1643659312.28891,1
91,4,1,3,23,5,2,c2_WhyHand,2,helping?,33,H_091.jpg,1643658705.04121,1643658705.04922,398.244121780396,13.4839291572571,411.732485761642,413.833269824982,0.3,420.7024979496,1.71730709075928,NaN,0,NA,0,422.41980504036,604.487701406479,607.247701406479,1643659106.04533,1643659106.04755,1643659119.53369,1643659119.53611,1643659121.63448,1643659128.50371,1643659128.50585,NaN,1643659130.22101,1643659312.28891,0
91,4,1,3,23,6,2,c2_WhyHand,2,helping?,35,H_159.jpg,1643658705.04121,1643658705.04922,398.244121780396,13.4839291572571,411.732485761642,413.833269824982,0.3,422.736589422226,1.71730780601501,NaN,0,NA,0,424.453897228241,604.487701406479,607.247701406479,1643659106.04533,1643659106.04755,1643659119.53369,1643659119.53611,1643659121.63448,1643659130.5378,1643659130.53981,NaN,1643659132.2551,1643659312.28891,0
91,4,1,3,23,7,2,c2_WhyHand,1,helping?,34,H_111.jpg,1643658705.04121,1643658705.04922,398.244121780396,13.4839291572571,411.732485761642,413.833269824982,0.3,424.770681371689,1.71730732917786,NaN,0,NA,0,426.487988700867,604.487701406479,607.247701406479,1643659106.04533,1643659106.04755,1643659119.53369,1643659119.53611,1643659121.63448,1643659132.57189,1643659132.57399,NaN,1643659134.2892,1643659312.28891,0
91,4,1,3,23,8,2,c2_WhyHand,2,helping?,40,H_012.jpg,1643658705.04121,1643658705.04922,398.244121780396,13.4839291572571,411.732485761642,413.833269824982,0.3,426.804774036407,1.71730709075928,NaN,0,NA,0,428.522081127167,604.487701406479,607.247701406479,1643659106.04533,1643659106.04755,1643659119.53369,1643659119.53611,1643659121.63448,1643659134.60598,1643659134.60828,NaN,1643659136.32329,1643659312.28891,0
91,4,1,3,24,1,4,c4_HowHand,1,both hands?,122,H_111.jpg,1643658705.04121,1643658705.04922,428.905556430817,0.892480611801147,429.805892934799,431.906676282883,2.1007833480835,432.056731452942,1.73398017883301,NaN,0,NA,0,433.790711631775,604.487701406479,607.247701406479,1643659136.70676,1643659136.70951,1643659137.6071,1643659137.61964,1643659139.70788,1643659139.85794,1643659139.86952,NaN,1643659141.59192,1643659312.28891,0
91,4,1,3,24,2,4,c4_HowHand,1,both hands?,128,H_027.jpg,1643658705.04121,1643658705.04922,428.905556430817,0.892480611801147,429.805892934799,431.906676282883,0.3,434.107496490479,1.71730709075928,NaN,0,NA,0,435.824803581238,604.487701406479,607.247701406479,1643659136.70676,1643659136.70951,1643659137.6071,1643659137.61964,1643659139.70788,1643659141.9087,1643659141.91085,NaN,1643659143.62601,1643659312.28891,0
91,4,1,3,24,3,4,c4_HowHand,2,both hands?,121,H_091.jpg,1643658705.04121,1643658705.04922,428.905556430817,0.892480611801147,429.805892934799,431.906676282883,0.3,436.141588916779,1.45054078102112,437.601837863922,3,right,1.43382811546326,437.5921296978,604.487701406479,607.247701406479,1643659136.70676,1643659136.70951,1643659137.6071,1643659137.61964,1643659139.70788,1643659143.9428,1643659143.94542,1643659145.40304,1643659145.39334,1643659312.28891,0
91,4,1,3,24,4,4,c4_HowHand,1,both hands?,123,H_167.jpg,1643658705.04121,1643658705.04922,428.905556430817,0.892480611801147,429.805892934799,431.906676282883,0.3,437.908913841248,1.01704573631287,438.935438861847,1,left,1.00546622276306,438.92595957756,604.487701406479,607.247701406479,1643659136.70676,1643659136.70951,1643659137.6071,1643659137.61964,1643659139.70788,1643659145.71012,1643659145.71221,1643659146.73665,1643659146.72717,1643659312.28891,1
91,4,1,3,24,5,4,c4_HowHand,1,both hands?,124,H_581.jpg,1643658705.04121,1643658705.04922,428.905556430817,0.892480611801147,429.805892934799,431.906676282883,0.3,439.242744913101,1.06706476211548,440.312095870972,1,left,1.04392600059509,440.309809675217,604.487701406479,607.247701406479,1643659136.70676,1643659136.70951,1643659137.6071,1643659137.61964,1643659139.70788,1643659147.04395,1643659147.0461,1643659148.1133,1643659148.11102,1643659312.28891,1
91,4,1,3,24,6,4,c4_HowHand,2,both hands?,126,H_159.jpg,1643658705.04121,1643658705.04922,428.905556430817,0.892480611801147,429.805892934799,431.906676282883,0.3,440.62659453392,1.16710186004639,441.801852931976,3,right,1.14874792098999,441.793696393967,604.487701406479,607.247701406479,1643659136.70676,1643659136.70951,1643659137.6071,1643659137.61964,1643659139.70788,1643659148.4278,1643659148.43046,1643659149.60306,1643659149.5949,1643659312.28891,0
91,4,1,3,24,7,4,c4_HowHand,1,both hands?,127,H_349.jpg,1643658705.04121,1643658705.04922,428.905556430817,0.892480611801147,429.805892934799,431.906676282883,0.3,442.110482206345,0.816971302032471,442.9352688694,1,left,0.806557893753052,442.927453508377,604.487701406479,607.247701406479,1643659136.70676,1643659136.70951,1643659137.6071,1643659137.61964,1643659139.70788,1643659149.91169,1643659149.91394,1643659150.73648,1643659150.72866,1643659312.28891,1
91,4,1,3,24,8,4,c4_HowHand,2,both hands?,125,H_627.jpg,1643658705.04121,1643658705.04922,428.905556430817,0.892480611801147,429.805892934799,431.906676282883,0.3,443.244238128662,0.0166728496551514,443.268697967529,1,left,0.000319004058837891,443.260910978317,604.487701406479,607.247701406479,1643659136.70676,1643659136.70951,1643659137.6071,1643659137.61964,1643659139.70788,1643659151.04545,1643659151.0476,1643659151.06991,1643659151.06212,1643659312.28891,0
91,4,1,3,25,1,2,c2_WhyHand,1,healthy?,18,H_438.jpg,1643658705.04121,1643658705.04922,443.377620687485,3.93741512298584,447.329093923569,449.429877510071,2.10078358650208,449.579934110641,0.0166714191436768,449.601960887909,1,left,0.000336885452270508,449.596605529785,604.487701406479,607.247701406479,1643659151.17883,1643659151.18642,1643659155.1303,1643659155.13631,1643659157.23108,1643659157.38114,1643659157.38638,1643659157.40317,1643659157.39781,1643659312.28891,1
91,4,1,3,25,2,2,c2_WhyHand,1,healthy?,23,H_364.jpg,1643658705.04121,1643658705.04922,443.377620687485,3.93741512298584,447.329093923569,449.429877510071,0.3,449.913390388489,0.0166738033294678,449.93483590126,1,left,0.000391006469726562,449.930064191818,604.487701406479,607.247701406479,1643659151.17883,1643659151.18642,1643659155.1303,1643659155.13631,1643659157.23108,1643659157.7146,1643659157.71953,1643659157.73604,1643659157.73127,1643659312.28891,1
91,4,1,3,25,3,2,c2_WhyHand,1,healthy?,17,H_362.jpg,1643658705.04121,1643658705.04922,443.377620687485,3.93741512298584,447.329093923569,449.429877510071,0.3,450.246848812103,0.0166735649108887,450.268256893158,1,left,0.000519037246704102,450.263522377014,604.487701406479,607.247701406479,1643659151.17883,1643659151.18642,1643659155.1303,1643659155.13631,1643659157.23108,1643659158.04806,1643659158.05285,1643659158.06946,1643659158.06473,1643659312.28891,1
91,4,1,3,25,4,2,c2_WhyHand,2,healthy?,24,H_019.jpg,1643658705.04121,1643658705.04922,443.377620687485,3.93741512298584,447.329093923569,449.429877510071,0.3,450.580306758881,0.0166733264923096,450.601757040024,1,left,0.000371932983398438,450.596980085373,604.487701406479,607.247701406479,1643659151.17883,1643659151.18642,1643659155.1303,1643659155.13631,1643659157.23108,1643659158.38151,1643659158.38633,1643659158.40296,1643659158.39819,1643659312.28891,0
91,4,1,3,25,5,2,c2_WhyHand,1,healthy?,19,H_167.jpg,1643658705.04121,1643658705.04922,443.377620687485,3.93741512298584,447.329093923569,449.429877510071,0.3,450.913765182495,0.0166714191436768,450.934811820984,1,left,0.000509023666381836,450.930436601639,604.487701406479,607.247701406479,1643659151.17883,1643659151.18642,1643659155.1303,1643659155.13631,1643659157.23108,1643659158.71497,1643659158.71952,1643659158.73602,1643659158.73164,1643659312.28891,1
91,4,1,3,25,6,2,c2_WhyHand,2,healthy?,20,H_007.jpg,1643658705.04121,1643658705.04922,443.377620687485,3.93741512298584,447.329093923569,449.429877510071,0.3,451.24722193718,0.0166730880737305,451.268451919556,1,left,0.000432968139648438,451.263895025253,604.487701406479,607.247701406479,1643659151.17883,1643659151.18642,1643659155.1303,1643659155.13631,1643659157.23108,1643659159.04843,1643659159.05286,1643659159.06966,1643659159.0651,1643659312.28891,0
91,4,1,3,25,7,2,c2_WhyHand,1,healthy?,21,H_627.jpg,1643658705.04121,1643658705.04922,443.377620687485,3.93741512298584,447.329093923569,449.429877510071,0.3,451.58067940712,0.0166733264923096,451.601843824387,1,left,0.00038599967956543,451.597352733612,604.487701406479,607.247701406479,1643659151.17883,1643659151.18642,1643659155.1303,1643659155.13631,1643659157.23108,1643659159.38189,1643659159.38635,1643659159.40305,1643659159.39856,1643659312.28891,1
91,4,1,3,25,8,2,c2_WhyHand,2,healthy?,22,H_130.jpg,1643658705.04121,1643658705.04922,443.377620687485,3.93741512298584,447.329093923569,449.429877510071,0.3,451.914136400223,0.0166735649108887,451.935165872574,1,left,0.000315189361572266,451.930809965134,604.487701406479,607.247701406479,1643659151.17883,1643659151.18642,1643659155.1303,1643659155.13631,1643659157.23108,1643659159.71534,1643659159.71972,1643659159.73637,1643659159.73202,1643659312.28891,0
91,4,1,3,26,1,4,c4_HowHand,1,pressing button?,82,H_126.jpg,1643658705.04121,1643658705.04922,452.047520627975,14.3215682506561,466.386200895309,468.486984481812,2.10078358650208,468.637041082382,0.816970825195312,469.455883970261,1,left,0.802658081054688,469.454011907578,604.487701406479,607.247701406479,1643659159.84873,1643659159.85308,1643659174.18741,1643659174.18946,1643659176.28819,1643659176.43825,1643659176.4404,1643659177.25709,1643659177.25522,1643659312.28891,1
91,4,1,3,26,2,4,c4_HowHand,2,pressing button?,85,H_130.jpg,1643658705.04121,1643658705.04922,452.047520627975,14.3215682506561,466.386200895309,468.486984481812,0.3,469.770797243118,1.23379230499268,471.00710486412,3,right,1.21872878074646,471.004589548111,604.487701406479,607.247701406479,1643659159.84873,1643659159.85308,1643659174.18741,1643659174.18946,1643659176.28819,1643659177.572,1643659177.57443,1643659178.80831,1643659178.8058,1643659312.28891,0
91,4,1,3,26,3,4,c4_HowHand,1,pressing button?,84,H_483.jpg,1643658705.04121,1643658705.04922,452.047520627975,14.3215682506561,466.386200895309,468.486984481812,0.3,471.321374406815,0.900336980819702,472.235324850082,1,left,0.887056827545166,472.221711387634,604.487701406479,607.247701406479,1643659159.84873,1643659159.85308,1643659174.18741,1643659174.18946,1643659176.28819,1643659179.12258,1643659179.12463,1643659180.03653,1643659180.02292,1643659312.28891,1
91,4,1,3,26,4,4,c4_HowHand,2,pressing button?,87,H_024.jpg,1643658705.04121,1643658705.04922,452.047520627975,14.3215682506561,466.386200895309,468.486984481812,0.3,472.538494815826,1.16710186004639,473.707723846436,3,right,1.14468097686768,473.705596675873,604.487701406479,607.247701406479,1643659159.84873,1643659159.85308,1643659174.18741,1643659174.18946,1643659176.28819,1643659180.3397,1643659180.3418,1643659181.50893,1643659181.5068,1643659312.28891,0
91,4,1,3,26,5,4,c4_HowHand,1,pressing button?,86,H_332.jpg,1643658705.04121,1643658705.04922,452.047520627975,14.3215682506561,466.386200895309,468.486984481812,0.3,474.022381772995,0.750280141830444,474.774957885742,1,left,0.726767063140869,474.772661914825,604.487701406479,607.247701406479,1643659159.84873,1643659159.85308,1643659174.18741,1643659174.18946,1643659176.28819,1643659181.82359,1643659181.8257,1643659182.57616,1643659182.57387,1643659312.28891,1
91,4,1,3,26,6,4,c4_HowHand,1,pressing button?,88,H_019.jpg,1643658705.04121,1643658705.04922,452.047520627975,14.3215682506561,466.386200895309,468.486984481812,0.3,475.08944653511,0.833644151687622,475.935149898529,1,left,0.817747116088867,475.923090686798,604.487701406479,607.247701406479,1643659159.84873,1643659159.85308,1643659174.18741,1643659174.18946,1643659176.28819,1643659182.89065,1643659182.89325,1643659183.73636,1643659183.7243,1643659312.28891,1
91,4,1,3,26,7,4,c4_HowHand,2,pressing button?,81,H_261.jpg,1643658705.04121,1643658705.04922,452.047520627975,14.3215682506561,466.386200895309,468.486984481812,0.3,476.239875545502,1.16710233688354,477.409302940369,3,right,1.14618992805481,477.406977882385,604.487701406479,607.247701406479,1643659159.84873,1643659159.85308,1643659174.18741,1643659174.18946,1643659176.28819,1643659184.04108,1643659184.04352,1643659185.21051,1643659185.20818,1643659312.28891,0
91,4,1,3,26,8,4,c4_HowHand,1,pressing button?,83,H_502.jpg,1643658705.04121,1643658705.04922,452.047520627975,14.3215682506561,466.386200895309,468.486984481812,0.3,477.723762979507,1.35050272941589,479.076786985397,1,left,1.33186197280884,479.074265708923,604.487701406479,607.247701406479,1643659159.84873,1643659159.85308,1643659174.18741,1643659174.18946,1643659176.28819,1643659185.52497,1643659185.52731,1643659186.87799,1643659186.87547,1643659312.28891,1
91,4,1,3,27,1,3,c3_HowFace,1,looking at camera?,60,F_618.jpg,1643658705.04121,1643658705.04922,479.190975894928,4.70809006690979,483.90940164566,486.010185470581,2.10078382492065,486.160241594315,0.683588266372681,486.85189699173,1,left,0.65827202796936,486.843829860687,604.487701406479,607.247701406479,1643659186.99218,1643659186.99437,1643659191.71061,1643659191.71951,1643659193.81139,1643659193.96145,1643659193.96964,1643659194.6531,1643659194.64504,1643659312.28891,1
91,4,1,3,27,2,3,c3_HowFace,2,looking at camera?,58,F_754.jpg,1643658705.04121,1643658705.04922,479.190975894928,4.70809006690979,483.90940164566,486.010185470581,0.3,487.160614719391,0.716933727264404,487.880007019043,1,left,0.695222854614258,487.877548446655,604.487701406479,607.247701406479,1643659186.99218,1643659186.99437,1643659191.71061,1643659191.71951,1643659193.81139,1643659194.96182,1643659194.964,1643659195.68121,1643659195.67876,1643659312.28891,0
91,4,1,3,27,3,3,c3_HowFace,1,looking at camera?,59,F_129.jpg,1643658705.04121,1643658705.04922,479.190975894928,4.70809006690979,483.90940164566,486.010185470581,0.3,488.194334020615,0.0166733264923096,488.218724956512,1,left,0.000285863876342773,488.211007347107,604.487701406479,607.247701406479,1643659186.99218,1643659186.99437,1643659191.71061,1643659191.71951,1643659193.81139,1643659195.99554,1643659195.99757,1643659196.01993,1643659196.01221,1643659312.28891,1
91,4,1,3,27,4,3,c3_HowFace,1,looking at camera?,62,F_598.jpg,1643658705.04121,1643658705.04922,479.190975894928,4.70809006690979,483.90940164566,486.010185470581,0.3,488.527791490555,0.93368124961853,489.468403806686,1,left,0.919137001037598,489.461472740173,604.487701406479,607.247701406479,1643659186.99218,1643659186.99437,1643659191.71061,1643659191.71951,1643659193.81139,1643659196.329,1643659196.33147,1643659197.26961,1643659197.26268,1643659312.28891,1
91,4,1,3,27,5,3,c3_HowFace,1,looking at camera?,64,F_128.jpg,1643658705.04121,1643658705.04922,479.190975894928,4.70809006690979,483.90940164566,486.010185470581,0.3,489.778258314133,0.900335311889648,490.684943904877,1,left,0.88103199005127,490.678593626022,604.487701406479,607.247701406479,1643659186.99218,1643659186.99437,1643659191.71061,1643659191.71951,1643659193.81139,1643659197.57947,1643659197.58191,1643659198.48615,1643659198.4798,1643659312.28891,1
91,4,1,3,27,6,3,c3_HowFace,2,looking at camera?,57,F_582.jpg,1643658705.04121,1643658705.04922,479.190975894928,4.70809006690979,483.90940164566,486.010185470581,0.3,490.995378484726,1.71730732917786,NaN,0,NA,0,492.712685813904,604.487701406479,607.247701406479,1643659186.99218,1643659186.99437,1643659191.71061,1643659191.71951,1643659193.81139,1643659198.79659,1643659198.79876,NaN,1643659200.51389,1643659312.28891,0
91,4,1,3,27,7,3,c3_HowFace,1,looking at camera?,61,F_774.jpg,1643658705.04121,1643658705.04922,479.190975894928,4.70809006690979,483.90940164566,486.010185470581,0.3,493.029469718933,1.71730709075928,NaN,0,NA,0,494.746776809692,604.487701406479,607.247701406479,1643659186.99218,1643659186.99437,1643659191.71061,1643659191.71951,1643659193.81139,1643659200.83068,1643659200.83622,NaN,1643659202.54798,1643659312.28891,0
91,4,1,3,27,8,3,c3_HowFace,2,looking at camera?,63,F_743.jpg,1643658705.04121,1643658705.04922,479.190975894928,4.70809006690979,483.90940164566,486.010185470581,0.3,495.063561668396,1.71730709075928,NaN,0,NA,0,496.780868759155,604.487701406479,607.247701406479,1643659186.99218,1643659186.99437,1643659191.71061,1643659191.71951,1643659193.81139,1643659202.86477,1643659202.86947,NaN,1643659204.58208,1643659312.28891,0
91,4,1,3,28,1,1,c1_WhyFace,1,self-doubt?,25,F_798.jpg,1643658705.04121,1643658705.04922,497.181019296646,5.68204355239868,502.866471996307,504.967254629135,2.10078263282776,505.117311468124,1.71730732917786,NaN,0,NA,0,506.834618797302,604.487701406479,607.247701406479,1643659204.98223,1643659204.98648,1643659210.66768,1643659210.66935,1643659212.76846,1643659212.91852,1643659212.92044,NaN,1643659214.63583,1643659312.28891,0
91,4,1,3,28,2,1,c1_WhyFace,2,self-doubt?,27,F_086.jpg,1643658705.04121,1643658705.04922,497.181019296646,5.68204355239868,502.866471996307,504.967254629135,0.3,507.15140294075,1.71730661392212,NaN,0,NA,0,508.868709554672,604.487701406479,607.247701406479,1643659204.98223,1643659204.98648,1643659210.66768,1643659210.66935,1643659212.76846,1643659214.95261,1643659214.95476,NaN,1643659216.66992,1643659312.28891,0
