onset	duration	trial_type	pmod_accuracy
8.05158495903015	0.748176050186157	cue_valid	1
16.6547937393188	0.811048936843872	cue_valid	1
27.058673620224	0.747042369842529	cue_valid	1
39.4632997512817	0.68340368270874	cue_valid	1
49.6337585449219	0.7952169895172121	cue_valid	1
59.1039574146271	0.641973209381104	cue_valid	1
66.9402132034302	0.631589603424072	cue_valid	1
70.7082853317261	0.702270221710205	cue_valid	1
81.6456971168518	0.7801155567169189	cue_valid	1
84.6134698390961	0.6258589744567871	cue_valid	1
91.649427652359	0.8119406223297121	cue_valid	1
102.386765480042	0.7968785285949711	cue_valid	1
106.054800271988	0.610495758056641	cue_valid	1
109.622797489166	0.7121469497680659	cue_valid	1
112.990719079971	0.6719433784484861	cue_valid	1
117.058902978897	0.669184875488281	cue_valid	1
123.394598722458	0.7541169643402099	cue_valid	1
136.832944154739	0.625463914871216	cue_valid	1
149.571027040482	0.667730283737183	cue_valid	1
157.040479898453	0.66939492225647	cue_valid	1
168.278004169464	0.646646928787231	cue_valid	1
175.747455835342	0.647762966156006	cue_valid	1
197.422204256058	0.674691867828369	cue_valid	1
204.158049345016	0.673656892776489	cue_valid	1
211.627503395081	0.6894051551818849	cue_valid	1
215.695687532425	0.5350613117218019	cue_valid	1
219.66383266449	0.594887447357178	cue_valid	1
246.640560388565	0.604653549194336	cue_valid	1
250.408632278442	0.660088729858398	cue_valid	1
267.181554317474	0.7154881477355961	cue_valid	1
288.256079673767	0.771920156478882	cue_valid	1
301.561040878296	0.611128520965576	cue_valid	1
317.567009925842	0.685359668731689	cue_valid	1
321.135007858276	0.672538709640503	cue_valid	1
357.815352916718	0.763361167907715	cue_valid	1
367.752392053604	0.611370992660522	cue_valid	1
371.120314836502	0.5950996398925781	cue_valid	1
374.188125610352	0.599599075317383	cue_valid	1
380.357093095779	0.555204582214355	cue_valid	1
397.563508749008	0.594277095794678	cue_valid	1
400.931432247162	0.6097681045532231	cue_valid	1
406.800287246704	0.652144384384155	cue_valid	1
410.268246889114	0.600588035583496	cue_valid	1
421.372387886047	0.6961709976196291	cue_valid	1
428.808495044708	0.66967625617981	cue_valid	1
440.446167707443	0.671744775772095	cue_valid	1
450.883394479752	0.8336560249328611	cue_valid	1
456.752249002457	0.7485298633575439	cue_valid	1
477.45997095108	0.680115175247192	cue_valid	1
480.427745103836	0.691991519927979	cue_valid	1
487.36366558075	0.5794755935668949	cue_valid	1
498.101001501083	0.6287633895874021	cue_valid	1
502.269223213196	0.640665483474731	cue_valid	1
505.937258481979	0.64455099105835	cue_valid	1
513.573437690735	0.60100622177124	cue_valid	1
521.042890787125	0.641408634185791	cue_valid	1
544.318238019943	0.724478197097778	cue_valid	1
553.254903078079	0.626368713378906	cue_valid	1
556.522788763046	0.651037883758545	cue_valid	1
567.660275220871	0.668621492385864	cue_valid	1
578.397612810135	0.6690973758697509	cue_valid	1
581.465424060822	0.600367259979248	cue_valid	1
588.834839344025	0.6225513935089111	cue_valid	1
596.47102022171	0.662947845458984	cue_valid	1
599.638868093491	0.578189325332642	cue_valid	1
20.2227911949158	0.8359064579010009	cue_invalid	1
23.6907505989075	0.7595648288726811	cue_invalid	1
30.1264841556549	0.8219217777252199	cue_invalid	1
33.3943691253662	0.7698556900024409	cue_invalid	1
63.17214012146	0.764053058624268	cue_invalid	1
78.1777369976044	0.776597929000854	cue_invalid	1
87.6812806129456	0.7289816856384279	cue_invalid	1
94.9173119068146	0.794724893569946	cue_invalid	1
120.126713752747	0.697956037521362	cue_invalid	1
130.864051580429	0.669940185546875	cue_invalid	1
146.403180599213	0.7522413253784179	cue_invalid	1
160.80855178833	0.703135442733765	cue_invalid	1
182.416610717773	0.715260696411133	cue_invalid	1
185.984607696533	0.7024299621582031	cue_invalid	1
189.952753067017	0.725040864944458	cue_invalid	1
200.890166521072	0.691129875183105	cue_invalid	1
226.733135938644	0.661673736572266	cue_invalid	1
230.201096057892	0.7165996551513669	cue_invalid	1
240.371554613113	0.7491373538970949	cue_invalid	1
254.376779317856	0.7499851703643801	cue_invalid	1
259.645409822464	0.7897309780120849	cue_invalid	1
263.913669109344	0.659602832794189	cue_invalid	1
272.250110864639	0.678993892669678	cue_invalid	1
275.517996549606	0.7426797866821291	cue_invalid	1
282.987447738647	0.716737937927246	cue_invalid	1
294.725158691406	0.7341525077819819	cue_invalid	1
298.393193006516	0.631311845779419	cue_invalid	1
304.528815031052	0.647334289550781	cue_invalid	1
310.097558259964	0.7251975059509279	cue_invalid	1
328.504421234131	0.719510269165039	cue_invalid	1
332.572606563568	0.760459613800049	cue_invalid	1
339.041684389114	0.654288244247437	cue_invalid	1
343.209906101227	0.737678956985474	cue_invalid	1
346.777904987335	0.740443420410156	cue_invalid	1
351.846461057663	0.678528022766113	cue_invalid	1
364.28443479538	0.6508256912231449	cue_invalid	1
387.826544761658	0.684232664108276	cue_invalid	1
393.195214271545	0.6635095596313481	cue_invalid	1
414.136356115341	0.722781372070312	cue_invalid	1
417.404242038727	0.7282626152038569	cue_invalid	1
425.340535163879	0.677102756500244	cue_invalid	1
432.176415920258	0.72286958694458	cue_invalid	1
444.214239597321	0.7326898097991941	cue_invalid	1
466.922707557678	0.628029298782349	cue_invalid	1
474.392160892487	0.7235993862152099	cue_invalid	1
483.69562959671	0.8116242408752441	cue_invalid	1
492.432220458984	0.648915004730225	cue_invalid	1
509.10510635376	0.720653009414673	cue_invalid	1
531.213350772858	0.7035440921783449	cue_invalid	1
536.081833362579	0.7144858360290529	cue_invalid	1
540.550166130066	0.7029089450836181	cue_invalid	1
547.986271858215	0.678450059890747	cue_invalid	1
559.590600013733	0.72287483215332	cue_invalid	1
575.129727840424	0.68905611038208	cue_invalid	1
592.502873182297	0.61109299659729	cue_invalid	1
