src_subject_id,session_id,run_id,param_counterbalance_ver,param_block_num,param_trial_num,param_cond_type_num,param_cond_type_string,param_normative_response,param_ques_type_string,param_image_num,param_image_filename,param_trigger_onset,param_start_biopac,event01_fixation,event01_fixation_dur,event01_blockquestion_onset,event01_block_isi_blacksreen,event01_blockquestion_dur,event02_image_onset,event02_image_dur,event03_response_onset,event03_response_key,event03_response_keyname,event03_RT,event04_shortquestion_onset,param_end_instruct_onset,param_experiment_duration,RAW_e1_fixation,RAW_e1_fixation_biopac,RAW_e1_blockquestion_onset,RAW_e1_blockquestion_onset_biopac,RAW_e1_block_isi_blacksreen,RAW_e2_image_onset,RAW_e2_image_onset_biopac,RAW_e3_response_onset,RAW_e4_shortquestion_onset,RAW_param_end_instruct_onset,accuracy
86,4,1,4,1,1,3,c3_HowFace,1,smiling?,118,F_759.jpg,1636664312.48169,1636664312.49297,0.0405659580230711,0.0259850025177002,0.0739114189147947,2.10800169944763,2.03409028053284,2.25805853843689,0.933681726455688,3.20518301963806,1,left,0.895573854446411,3.19174026489258,604.482641448975,607.242641448975,1636664315.28226,1636664315.28688,1636664315.31561,1636664315.32932,1636664317.3497,1636664317.49975,1636664317.51298,1636664318.44688,1636664318.43344,1636664919.72434,1
86,4,1,4,1,2,3,c3_HowFace,2,smiling?,114,F_412.jpg,1636664312.48169,1636664312.49297,0.0405659580230711,0.0259850025177002,0.0739114189147947,2.10800169944763,0.3,3.50852536201477,0.716933965682983,4.22764300346375,3,right,0.69477105140686,4.22545932769775,604.482641448975,607.242641448975,1636664315.28226,1636664315.28688,1636664315.31561,1636664315.32932,1636664317.3497,1636664318.75022,1636664318.75231,1636664319.46934,1636664319.46715,1636664919.72434,0
86,4,1,4,1,3,3,c3_HowFace,1,smiling?,117,F_593.jpg,1636664312.48169,1636664312.49297,0.0405659580230711,0.0259850025177002,0.0739114189147947,2.10800169944763,0.3,4.54224275588989,0.917009592056274,5.46132515907288,1,left,0.896478891372681,5.45925234794617,604.482641448975,607.242641448975,1636664315.28226,1636664315.28688,1636664315.31561,1636664315.32932,1636664317.3497,1636664319.78394,1636664319.78549,1636664320.70302,1636664320.70095,1636664919.72434,1
86,4,1,4,1,4,3,c3_HowFace,2,smiling?,113,F_712.jpg,1636664312.48169,1636664312.49297,0.0405659580230711,0.0259850025177002,0.0739114189147947,2.10800169944763,0.3,5.7760369682312,1.48388648033142,7.27149008750916,3,right,1.47334694862366,7.25992344856262,604.482641448975,607.242641448975,1636664315.28226,1636664315.28688,1636664315.31561,1636664315.32932,1636664317.3497,1636664321.01773,1636664321.01988,1636664322.51319,1636664322.50162,1636664919.72434,0
86,4,1,4,1,5,3,c3_HowFace,1,smiling?,115,F_695.jpg,1636664312.48169,1636664312.49297,0.0405659580230711,0.0259850025177002,0.0739114189147947,2.10800169944763,0.3,7.57670878410339,0.83364462852478,8.41460203170776,1,left,0.811910152435303,8.41035341262817,604.482641448975,607.242641448975,1636664315.28226,1636664315.28688,1636664315.31561,1636664315.32932,1636664317.3497,1636664322.8184,1636664322.82096,1636664323.6563,1636664323.65205,1636664919.72434,1
86,4,1,4,1,6,3,c3_HowFace,1,smiling?,119,F_139.jpg,1636664312.48169,1636664312.49297,0.0405659580230711,0.0259850025177002,0.0739114189147947,2.10800169944763,0.3,8.72713731765747,0.583550930023193,9.32080101013184,1,left,0.573344945907593,9.31068824768066,604.482641448975,607.242641448975,1636664315.28226,1636664315.28688,1636664315.31561,1636664315.32932,1636664317.3497,1636664323.96883,1636664323.9707,1636664324.5625,1636664324.55238,1636664919.72434,1
86,4,1,4,1,7,3,c3_HowFace,1,smiling?,116,F_083.jpg,1636664312.48169,1636664312.49297,0.0405659580230711,0.0259850025177002,0.0739114189147947,2.10800169944763,0.3,9.62747334480286,0.550204515457153,10.1871261501312,1,left,0.543040990829468,10.17767786026,604.482641448975,607.242641448975,1636664315.28226,1636664315.28688,1636664315.31561,1636664315.32932,1636664317.3497,1636664324.86917,1636664324.8709,1636664325.42882,1636664325.41937,1636664919.72434,1
86,4,1,4,1,8,3,c3_HowFace,2,smiling?,120,F_758.jpg,1636664312.48169,1636664312.49297,0.0405659580230711,0.0259850025177002,0.0739114189147947,2.10800169944763,0.3,10.4944631958008,0.633570194244385,11.1367170715332,3,right,0.618980884552002,11.1280333900452,604.482641448975,607.242641448975,1636664315.28226,1636664315.28688,1636664315.31561,1636664315.32932,1636664317.3497,1636664325.73616,1636664325.73772,1636664326.37841,1636664326.36973,1636664919.72434,0
86,4,1,4,2,1,1,c1_WhyFace,1,admiring?,1,F_593.jpg,1636664312.48169,1636664312.49297,11.3114344978333,7.79781460762024,19.1143455410004,21.2151288890839,2.1007833480835,21.3651838207245,0.933681011199951,22.3008470439911,1,left,0.907984018325806,22.2988648319244,604.482641448975,607.242641448975,1636664326.55313,1636664326.56312,1636664334.35604,1636664334.3629,1636664336.45682,1636664336.60688,1636664336.61245,1636664337.54254,1636664337.54056,1636664919.72434,1
86,4,1,4,2,2,1,c1_WhyFace,2,admiring?,2,F_129.jpg,1636664312.48169,1636664312.49297,11.3114344978333,7.79781460762024,19.1143455410004,21.2151288890839,0.3,22.6156508827209,0.850316762924194,23.4704539680481,3,right,0.842879056930542,23.4659676456451,604.482641448975,607.242641448975,1636664326.55313,1636664326.56312,1636664334.35604,1636664334.3629,1636664336.45682,1636664337.85735,1636664337.85947,1636664338.71215,1636664338.70766,1636664919.72434,0
86,4,1,4,2,3,1,c1_WhyFace,1,admiring?,5,F_759.jpg,1636664312.48169,1636664312.49297,11.3114344978333,7.79781460762024,19.1143455410004,21.2151288890839,0.3,23.7827525043488,1.01704597473145,24.8041031265259,1,left,1.0019998550415,24.7997984790802,604.482641448975,607.242641448975,1636664326.55313,1636664326.56312,1636664334.35604,1636664334.3629,1636664336.45682,1636664339.02445,1636664339.02979,1636664340.0458,1636664340.04149,1636664919.72434,1
86,4,1,4,2,4,1,c1_WhyFace,2,admiring?,6,F_692.jpg,1636664312.48169,1636664312.49297,11.3114344978333,7.79781460762024,19.1143455410004,21.2151288890839,0.3,25.1165835762024,0.733607053756714,25.8516399765015,3,right,0.709460020065308,25.8501906299591,604.482641448975,607.242641448975,1636664326.55313,1636664326.56312,1636664334.35604,1636664334.3629,1636664336.45682,1636664340.35828,1636664340.36229,1636664341.09333,1636664341.09189,1636664919.72434,0
86,4,1,4,2,5,1,c1_WhyFace,1,admiring?,4,F_779.jpg,1636664312.48169,1636664312.49297,11.3114344978333,7.79781460762024,19.1143455410004,21.2151288890839,0.3,26.1669740581512,0.750280141830444,26.9183990859985,1,left,0.725784063339233,26.9172541999817,604.482641448975,607.242641448975,1636664326.55313,1636664326.56312,1636664334.35604,1636664334.3629,1636664336.45682,1636664341.40867,1636664341.41233,1636664342.16009,1636664342.15895,1636664919.72434,1
86,4,1,4,2,6,1,c1_WhyFace,1,admiring?,8,F_590.jpg,1636664312.48169,1636664312.49297,11.3114344978333,7.79781460762024,19.1143455410004,21.2151288890839,0.3,27.2340390586853,0.783625364303589,28.019461145401,1,left,0.758977890014648,28.0176644229889,604.482641448975,607.242641448975,1636664326.55313,1636664326.56312,1636664334.35604,1636664334.3629,1636664336.45682,1636664342.47573,1636664342.47891,1636664343.26116,1636664343.25936,1636664919.72434,1
86,4,1,4,2,7,1,c1_WhyFace,1,admiring?,7,F_648.jpg,1636664312.48169,1636664312.49297,11.3114344978333,7.79781460762024,19.1143455410004,21.2151288890839,0.3,28.3344492816925,0.800299406051636,29.1371121311188,1,left,0.777321100234985,29.1347486877441,604.482641448975,607.242641448975,1636664326.55313,1636664326.56312,1636664334.35604,1636664334.3629,1636664336.45682,1636664343.57614,1636664343.57919,1636664344.37881,1636664344.37644,1636664919.72434,1
86,4,1,4,2,8,1,c1_WhyFace,2,admiring?,3,F_110.jpg,1636664312.48169,1636664312.49297,11.3114344978333,7.79781460762024,19.1143455410004,21.2151288890839,0.3,29.4515333080292,0.616896867752075,30.0706260108948,3,right,0.598167896270752,30.0684301757812,604.482641448975,607.242641448975,1636664326.55313,1636664326.56312,1636664334.35604,1636664334.3629,1636664336.45682,1636664344.69323,1636664344.69578,1636664345.31232,1636664345.31013,1636664919.72434,0
86,4,1,4,3,1,2,c2_WhyHand,1,competing?,9,H_261.jpg,1636664312.48169,1636664312.49297,30.1684663200378,7.99462175369263,38.1714510822296,40.2722346687317,2.10078358650208,40.4222910308838,0.750280618667603,41.1740400695801,1,left,0.728112936019897,41.1725716495514,604.482641448975,607.242641448975,1636664345.41016,1636664345.41234,1636664353.41315,1636664353.41537,1636664355.51393,1636664355.66399,1636664355.66585,1636664356.41574,1636664356.41427,1636664919.72434,1
86,4,1,4,3,2,2,c2_WhyHand,1,competing?,15,H_170.jpg,1636664312.48169,1636664312.49297,30.1684663200378,7.99462175369263,38.1714510822296,40.2722346687317,0.3,41.4893555545807,1.2838122844696,42.7749540710449,3,right,1.26628684997559,42.7731678390503,604.482641448975,607.242641448975,1636664345.41016,1636664345.41234,1636664353.41315,1636664353.41537,1636664355.51393,1636664356.73105,1636664356.73232,1636664358.01665,1636664358.01486,1636664919.72434,0
86,4,1,4,3,3,2,c2_WhyHand,2,competing?,12,H_483.jpg,1636664312.48169,1636664312.49297,30.1684663200378,7.99462175369263,38.1714510822296,40.2722346687317,0.3,43.0899519824982,0.900336503982544,43.9914750957489,3,right,0.885561943054199,43.9902884864807,604.482641448975,607.242641448975,1636664345.41016,1636664345.41234,1636664353.41315,1636664353.41537,1636664355.51393,1636664358.33165,1636664358.33339,1636664359.23317,1636664359.23198,1636664919.72434,0
86,4,1,4,3,4,2,c2_WhyHand,1,competing?,14,H_132.jpg,1636664312.48169,1636664312.49297,30.1684663200378,7.99462175369263,38.1714510822296,40.2722346687317,0.3,44.3070735836029,0.983699560165405,45.2920269870758,1,left,0.971240997314453,45.2907731437683,604.482641448975,607.242641448975,1636664345.41016,1636664345.41234,1636664353.41315,1636664353.41537,1636664355.51393,1636664359.54877,1636664359.55055,1636664360.53372,1636664360.53247,1636664919.72434,1
86,4,1,4,3,5,2,c2_WhyHand,1,competing?,16,H_136.jpg,1636664312.48169,1636664312.49297,30.1684663200378,7.99462175369263,38.1714510822296,40.2722346687317,0.3,45.6075572872162,1.11708426475525,46.7265510463715,1,left,1.09980416297913,46.7246415519714,604.482641448975,607.242641448975,1636664345.41016,1636664345.41234,1636664353.41315,1636664353.41537,1636664355.51393,1636664360.84925,1636664360.85133,1636664361.96825,1636664361.96634,1636664919.72434,1
86,4,1,4,3,6,2,c2_WhyHand,1,competing?,13,H_003.jpg,1636664312.48169,1636664312.49297,30.1684663200378,7.99462175369263,38.1714510822296,40.2722346687317,0.3,47.0414268875122,0.900335311889648,47.953986158371,1,left,0.890980005264282,47.9417621994019,604.482641448975,607.242641448975,1636664345.41016,1636664345.41234,1636664353.41315,1636664353.41537,1636664355.51393,1636664362.28312,1636664362.28477,1636664363.19568,1636664363.18346,1636664919.72434,1
86,4,1,4,3,7,2,c2_WhyHand,2,competing?,10,H_126.jpg,1636664312.48169,1636664312.49297,30.1684663200378,7.99462175369263,38.1714510822296,40.2722346687317,0.3,48.2585463428497,0.900336503982544,49.1706221008301,3,right,0.889819860458374,49.1588828468323,604.482641448975,607.242641448975,1636664345.41016,1636664345.41234,1636664353.41315,1636664353.41537,1636664355.51393,1636664363.50024,1636664363.50182,1636664364.41232,1636664364.40058,1636664919.72434,0
86,4,1,4,3,8,2,c2_WhyHand,2,competing?,11,H_502.jpg,1636664312.48169,1636664312.49297,30.1684663200378,7.99462175369263,38.1714510822296,40.2722346687317,0.3,49.4756672286987,1.13375639915466,50.620891084671,3,right,1.11997580528259,50.6094236278534,604.482641448975,607.242641448975,1636664345.41016,1636664345.41234,1636664353.41315,1636664353.41537,1636664355.51393,1636664364.71736,1636664364.71922,1636664365.86259,1636664365.85112,1636664919.72434,0
86,4,1,4,4,1,4,c4_HowHand,1,reaching?,111,H_003.jpg,1636664312.48169,1636664312.49297,50.7261328601837,9.91927623748779,60.6631717586517,62.7639555835724,2.10078382492065,62.9140121841431,1.30048513412476,64.2200939559936,1,left,1.28820395469666,64.2144973182678,604.482641448975,607.242641448975,1636664365.96783,1636664365.9697,1636664375.90487,1636664375.90699,1636664378.00565,1636664378.15571,1636664378.15781,1636664379.46179,1636664379.45619,1636664919.72434,1
86,4,1,4,4,2,4,c4_HowHand,1,reaching?,110,H_364.jpg,1636664312.48169,1636664312.49297,50.7261328601837,9.91927623748779,60.6631717586517,62.7639555835724,0.3,64.5312812232971,0.850317478179932,65.3866791629791,1,left,0.838427066802979,65.381598701477,604.482641448975,607.242641448975,1636664365.96783,1636664365.9697,1636664375.90487,1636664375.90699,1636664378.00565,1636664379.77298,1636664379.77486,1636664380.62837,1636664380.62329,1636664919.72434,1
86,4,1,4,4,3,4,c4_HowHand,2,reaching?,108,H_532.jpg,1636664312.48169,1636664312.49297,50.7261328601837,9.91927623748779,60.6631717586517,62.7639555835724,0.3,65.6983830833435,0.950354099273682,66.6504959964752,3,right,0.930503129959106,66.6487371826172,604.482641448975,607.242641448975,1636664365.96783,1636664365.9697,1636664375.90487,1636664375.90699,1636664378.00565,1636664380.94008,1636664380.94108,1636664381.89219,1636664381.89043,1636664919.72434,0
86,4,1,4,4,4,4,c4_HowHand,1,reaching?,106,H_006.jpg,1636664312.48169,1636664312.49297,50.7261328601837,9.91927623748779,60.6631717586517,62.7639555835724,0.3,66.9655222797394,0.883662462234497,67.8534221553802,1,left,0.868748903274536,67.8491847419739,604.482641448975,607.242641448975,1636664365.96783,1636664365.9697,1636664375.90487,1636664375.90699,1636664378.00565,1636664382.20722,1636664382.20883,1636664383.09512,1636664383.09088,1636664919.72434,1
86,4,1,4,4,5,4,c4_HowHand,2,reaching?,105,H_438.jpg,1636664312.48169,1636664312.49297,50.7261328601837,9.91927623748779,60.6631717586517,62.7639555835724,0.3,68.1659703159332,1.35050368309021,69.5202319526672,3,right,1.33245396614075,69.5164739990234,604.482641448975,607.242641448975,1636664365.96783,1636664365.9697,1636664375.90487,1636664375.90699,1636664378.00565,1636664383.40767,1636664383.4123,1636664384.76193,1636664384.75817,1636664919.72434,0
86,4,1,4,4,6,4,c4_HowHand,1,reaching?,107,H_007.jpg,1636664312.48169,1636664312.49297,50.7261328601837,9.91927623748779,60.6631717586517,62.7639555835724,0.3,69.833258857727,0.883661985397339,70.7207541370392,1,left,0.865564107894897,70.7169208431244,604.482641448975,607.242641448975,1636664365.96783,1636664365.9697,1636664375.90487,1636664375.90699,1636664378.00565,1636664385.07495,1636664385.07878,1636664385.96245,1636664385.95862,1636664919.72434,1
86,4,1,4,4,7,4,c4_HowHand,1,reaching?,109,H_474.jpg,1636664312.48169,1636664312.49297,50.7261328601837,9.91927623748779,60.6631717586517,62.7639555835724,0.3,71.0337066555023,1.71730661392212,NaN,0,NA,0,72.7510132694244,604.482641448975,607.242641448975,1636664365.96783,1636664365.9697,1636664375.90487,1636664375.90699,1636664378.00565,1636664386.2754,1636664386.27897,NaN,1636664387.99271,1636664919.72434,0
86,4,1,4,4,8,4,c4_HowHand,2,reaching?,112,H_132.jpg,1636664312.48169,1636664312.49297,50.7261328601837,9.91927623748779,60.6631717586517,62.7639555835724,0.3,73.067798128128,1.00037288665771,74.0707101726532,3,right,0.97664999961853,74.0681710147858,604.482641448975,607.242641448975,1636664365.96783,1636664365.9697,1636664375.90487,1636664375.90699,1636664378.00565,1636664388.30949,1636664388.31247,1636664389.31241,1636664389.30987,1636664919.72434,0
86,4,1,4,5,1,3,c3_HowFace,1,open mouth?,73,F_403.jpg,1636664312.48169,1636664312.49297,74.1515364551544,5.60227751731873,79.7702982330322,81.8710811042786,2.10078287124634,82.0211367511749,1.20044875144958,83.2235600852966,1,left,1.17798686027527,83.2215855026245,604.482641448975,607.242641448975,1636664389.39323,1636664389.39637,1636664395.01199,1636664395.01517,1636664397.11278,1636664397.26283,1636664397.26421,1636664398.46526,1636664398.46328,1636664919.72434,1
86,4,1,4,5,2,3,c3_HowFace,2,open mouth?,79,F_648.jpg,1636664312.48169,1636664312.49297,74.1515364551544,5.60227751731873,79.7702982330322,81.8710811042786,0.3,83.5383703613281,0.783624887466431,84.323044052124,3,right,0.767426013946533,84.3219952487946,604.482641448975,607.242641448975,1636664389.39323,1636664389.39637,1636664395.01199,1636664395.01517,1636664397.11278,1636664398.78007,1636664398.78168,1636664399.56474,1636664399.56369,1636664919.72434,0
86,4,1,4,5,3,3,c3_HowFace,1,open mouth?,74,F_776.jpg,1636664312.48169,1636664312.49297,74.1515364551544,5.60227751731873,79.7702982330322,81.8710811042786,0.3,84.6387805843353,0.633569955825806,85.2734429740906,1,left,0.62048602104187,85.2723505401611,604.482641448975,607.242641448975,1636664389.39323,1636664389.39637,1636664395.01199,1636664395.01517,1636664397.11278,1636664399.88048,1636664399.8823,1636664400.51514,1636664400.51405,1636664919.72434,1
86,4,1,4,5,4,3,c3_HowFace,2,open mouth?,77,F_584.jpg,1636664312.48169,1636664312.49297,74.1515364551544,5.60227751731873,79.7702982330322,81.8710811042786,0.3,85.5891356372833,0.683587312698364,86.2743940258026,3,right,0.663100004196167,86.2727229499817,604.482641448975,607.242641448975,1636664389.39323,1636664389.39637,1636664395.01199,1636664395.01517,1636664397.11278,1636664400.83083,1636664400.8324,1636664401.51609,1636664401.51442,1636664919.72434,0
86,4,1,4,5,5,3,c3_HowFace,1,open mouth?,80,F_844.jpg,1636664312.48169,1636664312.49297,74.1515364551544,5.60227751731873,79.7702982330322,81.8710811042786,0.3,86.5895075702667,0.666914701461792,87.2577221298218,1,left,0.651550054550171,87.2564222717285,604.482641448975,607.242641448975,1636664389.39323,1636664389.39637,1636664395.01199,1636664395.01517,1636664397.11278,1636664401.8312,1636664401.8328,1636664402.49942,1636664402.49812,1636664919.72434,1
86,4,1,4,5,6,3,c3_HowFace,1,open mouth?,78,F_692.jpg,1636664312.48169,1636664312.49297,74.1515364551544,5.60227751731873,79.7702982330322,81.8710811042786,0.3,87.573208322525,0.816971302032471,88.3911960029602,1,left,0.799762010574341,88.3901796245575,604.482641448975,607.242641448975,1636664389.39323,1636664389.39637,1636664395.01199,1636664395.01517,1636664397.11278,1636664402.8149,1636664402.81627,1636664403.63289,1636664403.63187,1636664919.72434,1
86,4,1,4,5,7,3,c3_HowFace,1,open mouth?,75,F_086.jpg,1636664312.48169,1636664312.49297,74.1515364551544,5.60227751731873,79.7702982330322,81.8710811042786,0.3,88.7069644832611,0.733606576919556,89.4423401260376,1,left,0.713289976119995,89.4405710601807,604.482641448975,607.242641448975,1636664389.39323,1636664389.39637,1636664395.01199,1636664395.01517,1636664397.11278,1636664403.94866,1636664403.95021,1636664404.68404,1636664404.68227,1636664919.72434,1
86,4,1,4,5,8,3,c3_HowFace,2,open mouth?,76,F_544.jpg,1636664312.48169,1636664312.49297,74.1515364551544,5.60227751731873,79.7702982330322,81.8710811042786,0.3,89.7573554420471,1.00037288665771,90.7591380977631,3,right,0.98638391494751,90.7577283287048,604.482641448975,607.242641448975,1636664389.39323,1636664389.39637,1636664395.01199,1636664395.01517,1636664397.11278,1636664404.99905,1636664405.0007,1636664406.00083,1636664405.99942,1636664919.72434,0
86,4,1,4,6,1,1,c1_WhyFace,1,argument?,42,F_403.jpg,1636664312.48169,1636664312.49297,90.8577670955658,10.3753838539124,101.24497341156,103.345756044388,2.10078263282776,103.495812644958,1.3004846572876,104.804074039459,1,left,1.2805449962616,104.796297302246,604.482641448975,607.242641448975,1636664406.09946,1636664406.10107,1636664416.48667,1636664416.49611,1636664418.58745,1636664418.73751,1636664418.74583,1636664420.04577,1636664420.03799,1636664919.72434,1
86,4,1,4,6,2,1,c1_WhyFace,2,argument?,46,F_844.jpg,1636664312.48169,1636664312.49297,90.8577670955658,10.3753838539124,101.24497341156,103.345756044388,0.3,105.113082637787,0.933680534362793,106.047854175568,3,right,0.911748170852661,106.04676317215,604.482641448975,607.242641448975,1636664406.09946,1636664406.10107,1636664416.48667,1636664416.49611,1636664418.58745,1636664420.35478,1636664420.35698,1636664421.28955,1636664421.28846,1636664919.72434,0
86,4,1,4,6,3,1,c1_WhyFace,1,argument?,41,F_712.jpg,1636664312.48169,1636664312.49297,90.8577670955658,10.3753838539124,101.24497341156,103.345756044388,0.3,106.36354850769,0.883663177490234,107.248651971817,1,left,0.861392974853516,107.247211685181,604.482641448975,607.242641448975,1636664406.09946,1636664406.10107,1636664416.48667,1636664416.49611,1636664418.58745,1636664421.60524,1636664421.60718,1636664422.49035,1636664422.48891,1636664919.72434,1
86,4,1,4,6,4,1,c1_WhyFace,1,argument?,48,F_758.jpg,1636664312.48169,1636664312.49297,90.8577670955658,10.3753838539124,101.24497341156,103.345756044388,0.3,107.563996067047,1.03371858596802,108.603984107971,1,left,1.01687097549438,108.597714653015,604.482641448975,607.242641448975,1636664406.09946,1636664406.10107,1636664416.48667,1636664416.49611,1636664418.58745,1636664422.80569,1636664422.80777,1636664423.84568,1636664423.83941,1636664919.72434,1
86,4,1,4,6,5,1,c1_WhyFace,2,argument?,45,F_433.jpg,1636664312.48169,1636664312.49297,90.8577670955658,10.3753838539124,101.24497341156,103.345756044388,0.3,108.914499988556,0.900335311889648,109.820928087234,3,right,0.882166147232056,109.814835300446,604.482641448975,607.242641448975,1636664406.09946,1636664406.10107,1636664416.48667,1636664416.49611,1636664418.58745,1636664424.15619,1636664424.15782,1636664425.06262,1636664425.05653,1636664919.72434,0
86,4,1,4,6,6,1,c1_WhyFace,1,argument?,43,F_716.jpg,1636664312.48169,1636664312.49297,90.8577670955658,10.3753838539124,101.24497341156,103.345756044388,0.3,110.131620635986,1.55057764053345,111.686650028229,1,left,1.53979206085205,111.68219827652,604.482641448975,607.242641448975,1636664406.09946,1636664406.10107,1636664416.48667,1636664416.49611,1636664418.58745,1636664425.37332,1636664425.37561,1636664426.92834,1636664426.92389,1636664919.72434,1
86,4,1,4,6,7,1,c1_WhyFace,2,argument?,44,F_139.jpg,1636664312.48169,1636664312.49297,90.8577670955658,10.3753838539124,101.24497341156,103.345756044388,0.3,111.998983612061,0.783625602722168,112.787059059143,3,right,0.760105133056641,112.782609214783,604.482641448975,607.242641448975,1636664406.09946,1636664406.10107,1636664416.48667,1636664416.49611,1636664418.58745,1636664427.24068,1636664427.24571,1636664428.02875,1636664428.0243,1636664919.72434,0
86,4,1,4,6,8,1,c1_WhyFace,1,argument?,47,F_743.jpg,1636664312.48169,1636664312.49297,90.8577670955658,10.3753838539124,101.24497341156,103.345756044388,0.3,113.099393835068,1.36717653274536,114.470010032654,1,left,1.34553909301758,114.466570367813,604.482641448975,607.242641448975,1636664406.09946,1636664406.10107,1636664416.48667,1636664416.49611,1636664418.58745,1636664428.34109,1636664428.34572,1636664429.7117,1636664429.70827,1636664919.72434,1
86,4,1,4,7,1,2,c2_WhyHand,1,helping?,39,H_024.jpg,1636664312.48169,1636664312.49297,114.533261289597,9.18165183067322,123.720021476746,125.820804109573,2.10078263282776,125.970859994888,1.7173068523407,127.785127153397,1,left,1.79369707107544,127.688166847229,604.482641448975,607.242641448975,1636664429.77496,1636664429.77882,1636664438.96172,1636664438.9635,1636664441.0625,1636664441.21255,1636664441.2142,1636664443.02682,1636664442.92986,1636664919.72434,1
86,4,1,4,7,2,2,c2_WhyHand,1,helping?,36,H_349.jpg,1636664312.48169,1636664312.49297,114.533261289597,9.18165183067322,123.720021476746,125.820804109573,0.3,128.004952898026,0.900335311889648,128.920937051773,1,left,0.89117693901062,128.905288209915,604.482641448975,607.242641448975,1636664429.77496,1636664429.77882,1636664438.96172,1636664438.9635,1636664441.0625,1636664443.24665,1636664443.24828,1636664444.16263,1636664444.14698,1636664919.72434,1
86,4,1,4,7,3,2,c2_WhyHand,1,helping?,38,H_077.jpg,1636664312.48169,1636664312.49297,114.533261289597,9.18165183067322,123.720021476746,125.820804109573,0.3,129.222072353363,1.21712064743042,130.440817108154,3,right,1.19748997688293,130.439193000793,604.482641448975,607.242641448975,1636664429.77496,1636664429.77882,1636664438.96172,1636664438.9635,1636664441.0625,1636664444.46377,1636664444.46573,1636664445.68251,1636664445.68089,1636664919.72434,0
86,4,1,4,7,4,2,c2_WhyHand,1,helping?,37,H_474.jpg,1636664312.48169,1636664312.49297,114.533261289597,9.18165183067322,123.720021476746,125.820804109573,0.3,130.755978097916,1.15042924880981,131.908184995651,1,left,1.12996792793274,131.906407346725,604.482641448975,607.242641448975,1636664429.77496,1636664429.77882,1636664438.96172,1636664438.9635,1636664441.0625,1636664445.99767,1636664445.99936,1636664447.14988,1636664447.1481,1636664919.72434,1
86,4,1,4,7,5,2,c2_WhyHand,2,helping?,33,H_091.jpg,1636664312.48169,1636664312.49297,114.533261289597,9.18165183067322,123.720021476746,125.820804109573,0.3,132.223192920685,1.10040950775146,133.324692001343,3,right,1.08355188369751,133.323602428436,604.482641448975,607.242641448975,1636664429.77496,1636664429.77882,1636664438.96172,1636664438.9635,1636664441.0625,1636664447.46489,1636664447.46721,1636664448.56639,1636664448.5653,1636664919.72434,0
86,4,1,4,7,6,2,c2_WhyHand,2,helping?,35,H_159.jpg,1636664312.48169,1636664312.49297,114.533261289597,9.18165183067322,123.720021476746,125.820804109573,0.3,133.640387048721,1.23379302024841,134.875190010071,1,left,1.21253895759583,134.87418006897,604.482641448975,607.242641448975,1636664429.77496,1636664429.77882,1636664438.96172,1636664438.9635,1636664441.0625,1636664448.88208,1636664448.88392,1636664450.11688,1636664450.11588,1636664919.72434,0
86,4,1,4,7,7,2,c2_WhyHand,1,helping?,34,H_111.jpg,1636664312.48169,1636664312.49297,114.533261289597,9.18165183067322,123.720021476746,125.820804109573,0.3,135.190965881348,1.38384985923767,136.576647987366,3,right,1.36269998550415,136.574815740585,604.482641448975,607.242641448975,1636664429.77496,1636664429.77882,1636664438.96172,1636664438.9635,1636664441.0625,1636664450.43266,1636664450.43377,1636664451.81834,1636664451.81651,1636664919.72434,0
86,4,1,4,7,8,2,c2_WhyHand,2,helping?,40,H_012.jpg,1636664312.48169,1636664312.49297,114.533261289597,9.18165183067322,123.720021476746,125.820804109573,0.3,136.891599407196,1.25046706199646,138.154080142975,3,right,1.23926210403442,138.142066469193,604.482641448975,607.242641448975,1636664429.77496,1636664429.77882,1636664438.96172,1636664438.9635,1636664441.0625,1636664452.13329,1636664452.13525,1636664453.39578,1636664453.38376,1636664919.72434,0
86,4,1,4,8,1,4,c4_HowHand,1,both hands?,122,H_111.jpg,1636664312.48169,1636664312.49297,138.225430717468,3.01961636543274,141.259895076752,143.360678901672,2.10078382492065,143.510735502243,1.7173068523407,NaN,0,NA,0,145.228042354584,604.482641448975,607.242641448975,1636664453.46713,1636664453.46889,1636664456.50159,1636664456.50304,1636664458.60237,1636664458.75243,1636664458.75435,NaN,1636664460.46974,1636664919.72434,0
86,4,1,4,8,2,4,c4_HowHand,1,both hands?,128,H_027.jpg,1636664312.48169,1636664312.49297,138.225430717468,3.01961636543274,141.259895076752,143.360678901672,0.3,145.544826259613,0.616897344589233,146.162801971436,1,left,0.596925973892212,146.161723604202,604.482641448975,607.242641448975,1636664453.46713,1636664453.46889,1636664456.50159,1636664456.50304,1636664458.60237,1636664460.78652,1636664460.78781,1636664461.4045,1636664461.40342,1636664919.72434,1
86,4,1,4,8,3,4,c4_HowHand,2,both hands?,121,H_091.jpg,1636664312.48169,1636664312.49297,138.225430717468,3.01961636543274,141.259895076752,143.360678901672,0.3,146.478508224487,0.917007684707642,147.403504123688,3,right,0.906637907028198,147.395515909195,604.482641448975,607.242641448975,1636664453.46713,1636664453.46889,1636664456.50159,1636664456.50304,1636664458.60237,1636664461.7202,1636664461.72185,1636664462.6452,1636664462.63721,1636664919.72434,0
86,4,1,4,8,4,4,c4_HowHand,1,both hands?,123,H_167.jpg,1636664312.48169,1636664312.49297,138.225430717468,3.01961636543274,141.259895076752,143.360678901672,0.3,147.712301244736,1.06706500053406,148.78710817337,1,left,1.04995012283325,148.77936624527,604.482641448975,607.242641448975,1636664453.46713,1636664453.46889,1636664456.50159,1636664456.50304,1636664458.60237,1636664462.954,1636664462.9557,1636664464.0288,1636664464.02106,1636664919.72434,1
86,4,1,4,8,5,4,c4_HowHand,1,both hands?,124,H_581.jpg,1636664312.48169,1636664312.49297,138.225430717468,3.01961636543274,141.259895076752,143.360678901672,0.3,149.096151103973,0.917007923126221,150.020073165894,1,left,0.904199838638306,150.0131590271,604.482641448975,607.242641448975,1636664453.46713,1636664453.46889,1636664456.50159,1636664456.50304,1636664458.60237,1636664464.33785,1636664464.33949,1636664465.26177,1636664465.25485,1636664919.72434,1
86,4,1,4,8,6,4,c4_HowHand,2,both hands?,126,H_159.jpg,1636664312.48169,1636664312.49297,138.225430717468,3.01961636543274,141.259895076752,143.360678901672,0.3,150.329944601059,0.933681488037109,151.270637025833,3,right,0.923929929733276,151.263626089096,604.482641448975,607.242641448975,1636664453.46713,1636664453.46889,1636664456.50159,1636664456.50304,1636664458.60237,1636664465.57164,1636664465.57326,1636664466.51233,1636664466.50532,1636664919.72434,0
86,4,1,4,8,7,4,c4_HowHand,1,both hands?,127,H_349.jpg,1636664312.48169,1636664312.49297,138.225430717468,3.01961636543274,141.259895076752,143.360678901672,0.3,151.5804109478,0.816971302032471,152.403475990295,1,left,0.802689790725708,152.397382249832,604.482641448975,607.242641448975,1636664453.46713,1636664453.46889,1636664456.50159,1636664456.50304,1636664458.60237,1636664466.82211,1636664466.82416,1636664467.64517,1636664467.63908,1636664919.72434,1
86,4,1,4,8,8,4,c4_HowHand,2,both hands?,125,H_627.jpg,1636664312.48169,1636664312.49297,138.225430717468,3.01961636543274,141.259895076752,143.360678901672,0.3,152.714166870117,1.06706476211548,153.787036170959,3,right,1.05108404159546,153.781231632233,604.482641448975,607.242641448975,1636664453.46713,1636664453.46889,1636664456.50159,1636664456.50304,1636664458.60237,1636664467.95586,1636664467.95774,1636664469.02873,1636664469.02293,1636664919.72434,0
86,4,1,4,9,1,2,c2_WhyHand,1,healthy?,18,H_438.jpg,1636664312.48169,1636664312.49297,153.847922554016,4.92714047431946,158.783097019196,160.883880844116,2.10078382492065,161.033936491013,0.933680772781372,161.970651140213,1,left,0.917831897735596,161.967617263794,604.482641448975,607.242641448975,1636664469.08962,1636664469.09551,1636664474.02479,1636664474.02907,1636664476.12558,1636664476.27563,1636664476.27924,1636664477.21235,1636664477.20931,1636664919.72434,1
86,4,1,4,9,2,2,c2_WhyHand,1,healthy?,23,H_364.jpg,1636664312.48169,1636664312.49297,153.847922554016,4.92714047431946,158.783097019196,160.883880844116,0.3,162.284402599335,1.71730709075928,164.167673101425,1,left,1.86232204437256,164.001709690094,604.482641448975,607.242641448975,1636664469.08962,1636664469.09551,1636664474.02479,1636664474.02907,1636664476.12558,1636664477.5261,1636664477.52916,1636664479.40937,1636664479.2434,1636664919.72434,1
86,4,1,4,9,3,2,c2_WhyHand,1,healthy?,17,H_362.jpg,1636664312.48169,1636664312.49297,153.847922554016,4.92714047431946,158.783097019196,160.883880844116,0.3,164.318494310379,0.0166726112365723,164.337468137741,1,left,0.000246047973632812,164.335166921616,604.482641448975,607.242641448975,1636664469.08962,1636664469.09551,1636664474.02479,1636664474.02907,1636664476.12558,1636664479.56019,1636664479.5621,1636664479.57916,1636664479.57686,1636664919.72434,1
86,4,1,4,9,4,2,c2_WhyHand,2,healthy?,24,H_019.jpg,1636664312.48169,1636664312.49297,153.847922554016,4.92714047431946,158.783097019196,160.883880844116,0.3,164.651951780319,1.25046610832214,165.903488149643,3,right,1.23678803443909,165.902417888641,604.482641448975,607.242641448975,1636664469.08962,1636664469.09551,1636664474.02479,1636664474.02907,1636664476.12558,1636664479.89365,1636664479.89557,1636664481.14518,1636664481.14411,1636664919.72434,0
86,4,1,4,9,5,2,c2_WhyHand,1,healthy?,19,H_167.jpg,1636664312.48169,1636664312.49297,153.847922554016,4.92714047431946,158.783097019196,160.883880844116,0.3,166.219203462601,1.00037288665771,167.221168031693,1,left,0.981014966964722,167.219576349258,604.482641448975,607.242641448975,1636664469.08962,1636664469.09551,1636664474.02479,1636664474.02907,1636664476.12558,1636664481.4609,1636664481.46246,1636664482.46286,1636664482.46127,1636664919.72434,1
86,4,1,4,9,6,2,c2_WhyHand,2,healthy?,20,H_007.jpg,1636664312.48169,1636664312.49297,153.847922554016,4.92714047431946,158.783097019196,160.883880844116,0.3,167.536361207962,1.2838122844696,168.821763029099,3,right,1.26364898681641,168.820173492432,604.482641448975,607.242641448975,1636664469.08962,1636664469.09551,1636664474.02479,1636664474.02907,1636664476.12558,1636664482.77806,1636664482.77941,1636664484.06346,1636664484.06187,1636664919.72434,0
86,4,1,4,9,7,2,c2_WhyHand,1,healthy?,21,H_627.jpg,1636664312.48169,1636664312.49297,153.847922554016,4.92714047431946,158.783097019196,160.883880844116,0.3,169.136959066391,1.18377280235291,170.321748962402,1,left,1.17181015014648,170.320731868744,604.482641448975,607.242641448975,1636664469.08962,1636664469.09551,1636664474.02479,1636664474.02907,1636664476.12558,1636664484.37865,1636664484.37992,1636664485.56344,1636664485.56243,1636664919.72434,1
86,4,1,4,9,8,2,c2_WhyHand,2,healthy?,22,H_130.jpg,1636664312.48169,1636664312.49297,153.847922554016,4.92714047431946,158.783097019196,160.883880844116,0.3,170.637516965866,1.217120885849,171.855694999695,3,right,1.19786596298218,171.854637851715,604.482641448975,607.242641448975,1636664469.08962,1636664469.09551,1636664474.02479,1636664474.02907,1636664476.12558,1636664485.87921,1636664485.88069,1636664487.09739,1636664487.09633,1636664919.72434,0
86,4,1,4,10,1,4,c4_HowHand,1,pressing button?,82,H_126.jpg,1636664312.48169,1636664312.49297,171.921329011917,5.52974915504456,177.456726779938,179.557510843277,2.10078406333923,179.707566728592,0.816972017288208,180.525629034042,1,left,0.791428804397583,180.52453874588,604.482641448975,607.242641448975,1636664487.16302,1636664487.16402,1636664492.69842,1636664492.7126,1636664494.79921,1636664494.94926,1636664494.96223,1636664495.76732,1636664495.76623,1636664919.72434,1
86,4,1,4,10,2,4,c4_HowHand,2,pressing button?,85,H_130.jpg,1636664312.48169,1636664312.49297,171.921329011917,5.52974915504456,177.456726779938,179.557510843277,0.3,180.841323366165,0.833642721176147,181.676781167984,3,right,0.814769983291626,181.674966087341,604.482641448975,607.242641448975,1636664487.16302,1636664487.16402,1636664492.69842,1636664492.7126,1636664494.79921,1636664496.08302,1636664496.08471,1636664496.91848,1636664496.91666,1636664919.72434,0
86,4,1,4,10,3,4,c4_HowHand,1,pressing button?,84,H_483.jpg,1636664312.48169,1636664312.49297,171.921329011917,5.52974915504456,177.456726779938,179.557510843277,0.3,181.991752614975,0.88366174697876,182.876535167694,1,left,0.865256786346436,182.875414361954,604.482641448975,607.242641448975,1636664487.16302,1636664487.16402,1636664492.69842,1636664492.7126,1636664494.79921,1636664497.23345,1636664497.23522,1636664498.11823,1636664498.11711,1636664919.72434,1
86,4,1,4,10,4,4,c4_HowHand,2,pressing button?,87,H_024.jpg,1636664312.48169,1636664312.49297,171.921329011917,5.52974915504456,177.456726779938,179.557510843277,0.3,183.192199935913,1.01704525947571,184.210298051834,3,right,0.996617078781128,184.209245195389,604.482641448975,607.242641448975,1636664487.16302,1636664487.16402,1636664492.69842,1636664492.7126,1636664494.79921,1636664498.43389,1636664498.43581,1636664499.45199,1636664499.45094,1636664919.72434,0
86,4,1,4,10,5,4,c4_HowHand,1,pressing button?,86,H_332.jpg,1636664312.48169,1636664312.49297,171.921329011917,5.52974915504456,177.456726779938,179.557510843277,0.3,184.526030054092,0.933682441711426,185.470391025543,1,left,0.924670934677124,185.459712495804,604.482641448975,607.242641448975,1636664487.16302,1636664487.16402,1636664492.69842,1636664492.7126,1636664494.79921,1636664499.76772,1636664499.76906,1636664500.71209,1636664500.70141,1636664919.72434,1
86,4,1,4,10,6,4,c4_HowHand,1,pressing button?,88,H_019.jpg,1636664312.48169,1636664312.49297,171.921329011917,5.52974915504456,177.456726779938,179.557510843277,0.3,185.776489486694,1.71731328964233,NaN,0,NA,0,187.493802776337,604.482641448975,607.242641448975,1636664487.16302,1636664487.16402,1636664492.69842,1636664492.7126,1636664494.79921,1636664501.01818,1636664501.01987,NaN,1636664502.7355,1636664919.72434,0
86,4,1,4,10,7,4,c4_HowHand,2,pressing button?,81,H_261.jpg,1636664312.48169,1636664312.49297,171.921329011917,5.52974915504456,177.456726779938,179.557510843277,0.3,187.810588111877,1.71730732917786,NaN,0,NA,0,189.527895441055,604.482641448975,607.242641448975,1636664487.16302,1636664487.16402,1636664492.69842,1636664492.7126,1636664494.79921,1636664503.05228,1636664503.05326,NaN,1636664504.76959,1636664919.72434,0
86,4,1,4,10,8,4,c4_HowHand,1,pressing button?,83,H_502.jpg,1636664312.48169,1636664312.49297,171.921329011917,5.52974915504456,177.456726779938,179.557510843277,0.3,189.844680299759,1.71730732917786,NaN,0,NA,0,191.561987628937,604.482641448975,607.242641448975,1636664487.16302,1636664487.16402,1636664492.69842,1636664492.7126,1636664494.79921,1636664505.08638,1636664505.08787,NaN,1636664506.80368,1636664919.72434,0
86,4,1,4,11,1,3,c3_HowFace,1,looking at camera?,60,F_618.jpg,1636664312.48169,1636664312.49297,191.912118902206,7.01921510696411,198.948075284958,201.048858633041,2.1007833480835,201.198914279938,0.883661985397339,202.087242116928,1,left,0.87048602104187,202.082576265335,604.482641448975,607.242641448975,1636664507.15381,1636664507.15586,1636664514.18977,1636664514.1922,1636664516.29055,1636664516.44061,1636664516.44407,1636664517.32894,1636664517.32427,1636664919.72434,1
86,4,1,4,11,2,3,c3_HowFace,2,looking at camera?,58,F_754.jpg,1636664312.48169,1636664312.49297,191.912118902206,7.01921510696411,198.948075284958,201.048858633041,0.3,202.399362077713,0.73360800743103,203.137489070892,3,right,0.710720062255859,203.132970085144,604.482641448975,607.242641448975,1636664507.15381,1636664507.15586,1636664514.18977,1636664514.1922,1636664516.29055,1636664517.64106,1636664517.64572,1636664518.37918,1636664518.37467,1636664919.72434,0
86,4,1,4,11,3,3,c3_HowFace,1,looking at camera?,59,F_129.jpg,1636664312.48169,1636664312.49297,191.912118902206,7.01921510696411,198.948075284958,201.048858633041,0.3,203.449754467011,0.78362512588501,204.23658703804,1,left,0.773071050643921,204.233379592896,604.482641448975,607.242641448975,1636664507.15381,1636664507.15586,1636664514.18977,1636664514.1922,1636664516.29055,1636664518.69145,1636664518.69572,1636664519.47828,1636664519.47507,1636664919.72434,1
86,4,1,4,11,4,3,c3_HowFace,1,looking at camera?,62,F_598.jpg,1636664312.48169,1636664312.49297,191.912118902206,7.01921510696411,198.948075284958,201.048858633041,0.3,204.550164213181,0.5668785572052,205.118520011902,1,left,0.542042016983032,205.117042770386,604.482641448975,607.242641448975,1636664507.15381,1636664507.15586,1636664514.18977,1636664514.1922,1636664516.29055,1636664519.79186,1636664519.7956,1636664520.36021,1636664520.35874,1636664919.72434,1
86,4,1,4,11,5,3,c3_HowFace,1,looking at camera?,64,F_128.jpg,1636664312.48169,1636664312.49297,191.912118902206,7.01921510696411,198.948075284958,201.048858633041,0.3,205.433827629089,0.766952753067017,206.203484048843,1,left,0.750845193862915,206.200780382156,604.482641448975,607.242641448975,1636664507.15381,1636664507.15586,1636664514.18977,1636664514.1922,1636664516.29055,1636664520.67552,1636664520.679,1636664521.44518,1636664521.44248,1636664919.72434,1
86,4,1,4,11,6,3,c3_HowFace,2,looking at camera?,57,F_582.jpg,1636664312.48169,1636664312.49297,191.912118902206,7.01921510696411,198.948075284958,201.048858633041,0.3,206.517565717697,1.00037121772766,207.520537128448,3,right,0.986002922058105,207.517936935425,604.482641448975,607.242641448975,1636664507.15381,1636664507.15586,1636664514.18977,1636664514.1922,1636664516.29055,1636664521.75926,1636664521.76187,1636664522.76223,1636664522.75963,1636664919.72434,0
86,4,1,4,11,7,3,c3_HowFace,1,looking at camera?,61,F_774.jpg,1636664312.48169,1636664312.49297,191.912118902206,7.01921510696411,198.948075284958,201.048858633041,0.3,207.834722509384,1.15042924880981,208.986617078781,1,left,1.13890194892883,208.985151758194,604.482641448975,607.242641448975,1636664507.15381,1636664507.15586,1636664514.18977,1636664514.1922,1636664516.29055,1636664523.07642,1636664523.0789,1636664524.22831,1636664524.22685,1636664919.72434,1
86,4,1,4,11,8,3,c3_HowFace,2,looking at camera?,63,F_743.jpg,1636664312.48169,1636664312.49297,191.912118902206,7.01921510696411,198.948075284958,201.048858633041,0.3,209.301935901642,1.71730756759644,211.158719053268,3,right,1.83617420196533,211.019243469238,604.482641448975,607.242641448975,1636664507.15381,1636664507.15586,1636664514.18977,1636664514.1922,1636664516.29055,1636664524.54363,1636664524.54579,1636664526.40041,1636664526.26094,1636664919.72434,0
86,4,1,4,12,1,1,c1_WhyFace,1,self-doubt?,25,F_798.jpg,1636664312.48169,1636664312.49297,211.252663841248,6.46828532218933,217.738416662216,219.839199056625,2.10078239440918,219.989255418777,0.816971063613892,220.808122148514,1,left,0.799460887908936,220.806226482391,604.482641448975,607.242641448975,1636664526.49436,1636664526.49592,1636664532.98011,1636664532.98188,1636664535.08089,1636664535.23095,1636664535.23297,1636664536.04982,1636664536.04792,1636664919.72434,1
86,4,1,4,12,2,1,c1_WhyFace,2,self-doubt?,27,F_086.jpg,1636664312.48169,1636664312.49297,211.252663841248,6.46828532218933,217.738416662216,219.839199056625,0.3,221.123011102676,1.35050392150879,222.487390985489,3,right,1.34055089950562,222.473515024185,604.482641448975,607.242641448975,1636664526.49436,1636664526.49592,1636664532.98011,1636664532.98188,1636664535.08089,1636664536.36471,1636664536.36671,1636664537.72909,1636664537.71521,1636664919.72434,0
86,4,1,4,12,3,1,c1_WhyFace,1,self-doubt?,29,F_544.jpg,1636664312.48169,1636664312.49297,211.252663841248,6.46828532218933,217.738416662216,219.839199056625,0.3,222.790299406052,0.850317001342773,223.642312994003,1,left,0.833988904953003,223.640616407394,604.482641448975,607.242641448975,1636664526.49436,1636664526.49592,1636664532.98011,1636664532.98188,1636664535.08089,1636664538.03199,1636664538.0332,1636664538.88401,1636664538.88231,1636664919.72434,1
86,4,1,4,12,4,1,c1_WhyFace,1,self-doubt?,28,F_754.jpg,1636664312.48169,1636664312.49297,211.252663841248,6.46828532218933,217.738416662216,219.839199056625,0.3,223.957401981354,0.666914939880371,224.625442018509,1,left,0.652392864227295,224.624316921234,604.482641448975,607.242641448975,1636664526.49436,1636664526.49592,1636664532.98011,1636664532.98188,1636664535.08089,1636664539.1991,1636664539.20096,1636664539.86714,1636664539.86601,1636664919.72434,1
86,4,1,4,12,5,1,c1_WhyFace,1,self-doubt?,26,F_111.jpg,1636664312.48169,1636664312.49297,211.252663841248,6.46828532218933,217.738416662216,219.839199056625,0.3,224.941102495193,0.750279188156128,225.70405005455,1,left,0.740544080734253,225.69138168335,604.482641448975,607.242641448975,1636664526.49436,1636664526.49592,1636664532.98011,1636664532.98188,1636664535.08089,1636664540.1828,1636664540.18438,1636664540.94574,1636664540.93308,1636664919.72434,1
86,4,1,4,12,6,1,c1_WhyFace,1,self-doubt?,30,F_584.jpg,1636664312.48169,1636664312.49297,211.252663841248,6.46828532218933,217.738416662216,219.839199056625,0.3,226.008166542053,0.933681726455688,226.954032173157,3,right,0.924111843109131,226.941848268509,604.482641448975,607.242641448975,1636664526.49436,1636664526.49592,1636664532.98011,1636664532.98188,1636664535.08089,1636664541.24986,1636664541.25171,1636664542.19573,1636664542.18354,1636664919.72434,0
86,4,1,4,12,7,1,c1_WhyFace,2,self-doubt?,32,F_128.jpg,1636664312.48169,1636664312.49297,211.252663841248,6.46828532218933,217.738416662216,219.839199056625,0.3,227.25863193512,1.41719508171082,228.677623023987,3,right,1.3945951461792,228.67582701683,604.482641448975,607.242641448975,1636664526.49436,1636664526.49592,1636664532.98011,1636664532.98188,1636664535.08089,1636664542.50033,1636664542.50195,1636664543.91932,1636664543.91752,1636664919.72434,0
86,4,1,4,12,8,1,c1_WhyFace,2,self-doubt?,31,F_774.jpg,1636664312.48169,1636664312.49297,211.252663841248,6.46828532218933,217.738416662216,219.839199056625,0.3,228.992613306046,0.81697154045105,229.820369949341,1,left,0.809644937515259,229.809584846497,604.482641448975,607.242641448975,1636664526.49436,1636664526.49592,1636664532.98011,1636664532.98188,1636664535.08089,1636664544.23431,1636664544.23631,1636664545.06206,1636664545.05128,1636664919.72434,0
86,4,1,4,13,1,2,c2_WhyHand,1,self-protection?,91,H_581.jpg,1636664312.48169,1636664312.49297,229.892947902679,5.35812306404114,235.261617174149,237.362400283813,2.10078310966492,237.51245593071,1.35050487518311,238.8647651577,3,right,1.32492113113403,238.862960805893,604.482641448975,607.242641448975,1636664545.13464,1636664545.13612,1636664550.50331,1636664550.51249,1636664552.6041,1636664552.75415,1636664552.76257,1636664554.10646,1636664554.10466,1636664919.72434,0
86,4,1,4,13,2,2,c2_WhyHand,1,self-protection?,89,H_443.jpg,1636664312.48169,1636664312.49297,229.892947902679,5.35812306404114,235.261617174149,237.362400283813,0.3,239.179746141434,1.43386697769165,240.620028009415,3,right,1.41937112808228,240.613613119125,604.482641448975,607.242641448975,1636664545.13464,1636664545.13612,1636664550.50331,1636664550.51249,1636664552.6041,1636664554.42144,1636664554.42342,1636664555.86172,1636664555.85531,1636664919.72434,0
86,4,1,4,13,3,2,c2_WhyHand,2,self-protection?,95,H_332.jpg,1636664312.48169,1636664312.49297,229.892947902679,5.35812306404114,235.261617174149,237.362400283813,0.3,240.93039773941,1.23379349708557,242.170072069168,3,right,1.21927690505981,242.164191236496,604.482641448975,607.242641448975,1636664545.13464,1636664545.13612,1636664550.50331,1636664550.51249,1636664552.6041,1636664556.17209,1636664556.17427,1636664557.41177,1636664557.40589,1636664919.72434,0
86,4,1,4,13,4,2,c2_WhyHand,1,self-protection?,96,H_027.jpg,1636664312.48169,1636664312.49297,229.892947902679,5.35812306404114,235.261617174149,237.362400283813,0.3,242.480976810455,1.36717557907104,243.853435983658,1,left,1.35993313789368,243.848152389526,604.482641448975,607.242641448975,1636664545.13464,1636664545.13612,1636664550.50331,1636664550.51249,1636664552.6041,1636664557.72267,1636664557.72449,1636664559.09513,1636664559.08985,1636664919.72434,1
86,4,1,4,13,5,2,c2_WhyHand,2,self-protection?,92,H_532.jpg,1636664312.48169,1636664312.49297,229.892947902679,5.35812306404114,235.261617174149,237.362400283813,0.3,244.16493724823,1.217120885849,245.386998167038,3,right,1.20866322517395,245.382058134079,604.482641448975,607.242641448975,1636664545.13464,1636664545.13612,1636664550.50331,1636664550.51249,1636664552.6041,1636664559.40663,1636664559.40817,1636664560.62869,1636664560.62375,1636664919.72434,0
86,4,1,4,13,6,2,c2_WhyHand,1,self-protection?,94,H_189.jpg,1636664312.48169,1636664312.49297,229.892947902679,5.35812306404114,235.261617174149,237.362400283813,0.3,245.698842992783,1.71730709075928,NaN,0,NA,0,247.416150083542,604.482641448975,607.242641448975,1636664545.13464,1636664545.13612,1636664550.50331,1636664550.51249,1636664552.6041,1636664560.94054,1636664560.94236,NaN,1636664562.65785,1636664919.72434,0
86,4,1,4,13,7,2,c2_WhyHand,2,self-protection?,90,H_006.jpg,1636664312.48169,1636664312.49297,229.892947902679,5.35812306404114,235.261617174149,237.362400283813,0.3,247.732934942245,1.71730637550354,NaN,0,NA,0,249.450241317749,604.482641448975,607.242641448975,1636664545.13464,1636664545.13612,1636664550.50331,1636664550.51249,1636664552.6041,1636664562.97463,1636664562.97907,NaN,1636664564.69194,1636664919.72434,0
86,4,1,4,13,8,2,c2_WhyHand,1,self-protection?,93,H_038.jpg,1636664312.48169,1636664312.49297,229.892947902679,5.35812306404114,235.261617174149,237.362400283813,0.3,249.767026414871,0.866989374160767,250.637232055664,1,left,0.847472906112671,250.634015789032,604.482641448975,607.242641448975,1636664545.13464,1636664545.13612,1636664550.50331,1636664550.51249,1636664552.6041,1636664565.00872,1636664565.01237,1636664565.87893,1636664565.87571,1636664919.72434,1
86,4,1,4,14,1,4,c4_HowHand,1,lifting?,50,H_443.jpg,1636664312.48169,1636664312.49297,250.700707902908,2.42518711090088,253.134949674606,255.235733499527,2.10078382492065,255.385789146423,1.03371810913086,256.420663108826,1,left,1.02170586585999,256.419507255554,604.482641448975,607.242641448975,1636664565.9424,1636664565.94597,1636664568.37664,1636664568.37879,1636664570.47743,1636664570.62748,1636664570.6288,1636664571.66236,1636664571.6612,1636664919.72434,1
86,4,1,4,14,2,4,c4_HowHand,2,lifting?,51,H_038.jpg,1636664312.48169,1636664312.49297,250.700707902908,2.42518711090088,253.134949674606,255.235733499527,0.3,256.736292352676,1.26713991165161,258.005052080154,3,right,1.25205898284912,258.003432264328,604.482641448975,607.242641448975,1636664565.9424,1636664565.94597,1636664568.37664,1636664568.37879,1636664570.47743,1636664571.97799,1636664571.97953,1636664573.24675,1636664573.24513,1636664919.72434,0
86,4,1,4,14,3,4,c4_HowHand,1,lifting?,56,H_136.jpg,1636664312.48169,1636664312.49297,250.700707902908,2.42518711090088,253.134949674606,255.235733499527,0.3,258.320216884613,1.06706428527832,259.388724079132,1,left,1.05130910873413,259.387281169891,604.482641448975,607.242641448975,1636664565.9424,1636664565.94597,1636664568.37664,1636664568.37879,1636664570.47743,1636664573.56191,1636664573.56346,1636664574.63042,1636664574.62898,1636664919.72434,1
86,4,1,4,14,4,4,c4_HowHand,2,lifting?,55,H_012.jpg,1636664312.48169,1636664312.49297,250.700707902908,2.42518711090088,253.134949674606,255.235733499527,0.3,259.704066505432,1.20044732093811,260.906270017624,3,right,1.18198800086975,260.90451382637,604.482641448975,607.242641448975,1636664565.9424,1636664565.94597,1636664568.37664,1636664568.37879,1636664570.47743,1636664574.94576,1636664574.9473,1636664576.14796,1636664576.14621,1636664919.72434,0
86,4,1,4,14,5,4,c4_HowHand,1,lifting?,49,H_362.jpg,1636664312.48169,1636664312.49297,250.700707902908,2.42518711090088,253.134949674606,255.235733499527,0.3,261.221297969818,0.833643913269043,262.056323041916,1,left,0.823303937911987,262.054941883087,604.482641448975,607.242641448975,1636664565.9424,1636664565.94597,1636664568.37664,1636664568.37879,1636664570.47743,1636664576.46299,1636664576.46452,1636664577.29802,1636664577.29664,1636664919.72434,1
86,4,1,4,14,6,4,c4_HowHand,1,lifting?,52,H_189.jpg,1636664312.48169,1636664312.49297,250.700707902908,2.42518711090088,253.134949674606,255.235733499527,0.3,262.371727695465,1.01704549789429,263.403423061371,1,left,1.00889897346497,263.388773193359,604.482641448975,607.242641448975,1636664565.9424,1636664565.94597,1636664568.37664,1636664568.37879,1636664570.47743,1636664577.61342,1636664577.61512,1636664578.64512,1636664578.63047,1636664919.72434,1
86,4,1,4,14,7,4,c4_HowHand,1,lifting?,54,H_170.jpg,1636664312.48169,1636664312.49297,250.700707902908,2.42518711090088,253.134949674606,255.235733499527,0.3,263.705558052063,1.18377375602722,264.891054143906,1,left,1.16281390190125,264.88933180809,604.482641448975,607.242641448975,1636664565.9424,1636664565.94597,1636664568.37664,1636664568.37879,1636664570.47743,1636664578.94725,1636664578.94902,1636664580.13275,1636664580.13103,1636664919.72434,1
86,4,1,4,14,8,4,c4_HowHand,2,lifting?,53,H_077.jpg,1636664312.48169,1636664312.49297,250.700707902908,2.42518711090088,253.134949674606,255.235733499527,0.3,265.206117620468,1.71730709075928,266.939907064438,3,right,1.71314401626587,266.923424711227,604.482641448975,607.242641448975,1636664565.9424,1636664565.94597,1636664568.37664,1636664568.37879,1636664570.47743,1636664580.44781,1636664580.44952,1636664582.1816,1636664582.16512,1636664919.72434,0
86,4,1,4,15,1,3,c3_HowFace,1,looking to side?,67,F_716.jpg,1636664312.48169,1636664312.49297,267.006789674759,3.99428939819336,271.008281459808,273.109065523148,2.10078406333923,273.259121646881,1.01704621315002,274.277979125977,3,right,0.987959146499634,274.276167860031,604.482641448975,607.242641448975,1636664582.24848,1636664582.24953,1636664586.24998,1636664586.26273,1636664588.35076,1636664588.50082,1636664588.51362,1636664589.51967,1636664589.51786,1636664919.72434,0
86,4,1,4,15,2,3,c3_HowFace,2,looking to side?,65,F_798.jpg,1636664312.48169,1636664312.49297,267.006789674759,3.99428939819336,271.008281459808,273.109065523148,0.3,274.592950334549,1.56725335121155,276.161899080276,3,right,1.54614996910095,276.160203685761,604.482641448975,607.242641448975,1636664582.24848,1636664582.24953,1636664586.24998,1636664586.26273,1636664588.35076,1636664589.83465,1636664589.8366,1636664591.40359,1636664591.4019,1636664919.72434,0
86,4,1,4,15,3,3,c3_HowFace,1,looking to side?,68,F_760.jpg,1636664312.48169,1636664312.49297,267.006789674759,3.99428939819336,271.008281459808,273.109065523148,0.3,276.476987113953,1.5339047908783,278.020795097351,1,left,1.51913905143738,278.010891904831,604.482641448975,607.242641448975,1636664582.24848,1636664582.24953,1636664586.24998,1636664586.26273,1636664588.35076,1636664591.71868,1636664591.72047,1636664593.26249,1636664593.25259,1636664919.72434,1
86,4,1,4,15,4,3,c3_HowFace,1,looking to side?,69,F_110.jpg,1636664312.48169,1636664312.49297,267.006789674759,3.99428939819336,271.008281459808,273.109065523148,0.3,278.327676048279,1.21712231636047,279.553440084457,1,left,1.20789289474487,279.544798364639,604.482641448975,607.242641448975,1636664582.24848,1636664582.24953,1636664586.24998,1636664586.26273,1636664588.35076,1636664593.56937,1636664593.57097,1636664594.79514,1636664594.78649,1636664919.72434,1
86,4,1,4,15,5,3,c3_HowFace,2,looking to side?,70,F_779.jpg,1636664312.48169,1636664312.49297,267.006789674759,3.99428939819336,271.008281459808,273.109065523148,0.3,279.861583461761,1.0337188243866,280.896924009323,1,left,1.01412987709045,280.895302286148,604.482641448975,607.242641448975,1636664582.24848,1636664582.24953,1636664586.24998,1636664586.26273,1636664588.35076,1636664595.10328,1636664595.10486,1636664596.13862,1636664596.137,1636664919.72434,0
86,4,1,4,15,6,3,c3_HowFace,1,looking to side?,72,F_590.jpg,1636664312.48169,1636664312.49297,267.006789674759,3.99428939819336,271.008281459808,273.109065523148,0.3,281.212086668015,0.850316286087036,282.07068394661,1,left,0.837690114974976,282.062402954102,604.482641448975,607.242641448975,1636664582.24848,1636664582.24953,1636664586.24998,1636664586.26273,1636664588.35076,1636664596.45378,1636664596.45557,1636664597.31238,1636664597.3041,1636664919.72434,1
86,4,1,4,15,7,3,c3_HowFace,2,looking to side?,66,F_111.jpg,1636664312.48169,1636664312.49297,267.006789674759,3.99428939819336,271.008281459808,273.109065523148,0.3,282.379188051224,1.1837751865387,283.564082136154,3,right,1.16468596458435,283.562963237762,604.482641448975,607.242641448975,1636664582.24848,1636664582.24953,1636664586.24998,1636664586.26273,1636664588.35076,1636664597.62088,1636664597.62301,1636664598.80578,1636664598.80466,1636664919.72434,0
86,4,1,4,15,8,3,c3_HowFace,1,looking to side?,71,F_433.jpg,1636664312.48169,1636664312.49297,267.006789674759,3.99428939819336,271.008281459808,273.109065523148,0.3,283.879748573303,0.866989850997925,284.748335113525,1,left,0.845878124237061,284.746738424301,604.482641448975,607.242641448975,1636664582.24848,1636664582.24953,1636664586.24998,1636664586.26273,1636664588.35076,1636664599.12144,1636664599.1233,1636664599.99003,1636664599.98843,1636664919.72434,1
86,4,1,4,16,1,1,c1_WhyFace,1,proud?,101,F_083.jpg,1636664312.48169,1636664312.49297,284.830101957321,3.70080709457397,288.548155298233,290.648939599991,2.10078430175781,290.798995008469,1.71730709075928,NaN,0,NA,0,292.516302099228,604.482641448975,607.242641448975,1636664600.0718,1636664600.07911,1636664603.78985,1636664603.79206,1636664605.89063,1636664606.04069,1636664606.04256,NaN,1636664607.758,1636664919.72434,0
86,4,1,4,16,2,1,c1_WhyFace,1,proud?,97,F_582.jpg,1636664312.48169,1636664312.49297,284.830101957321,3.70080709457397,288.548155298233,290.648939599991,0.3,292.833087434769,1.71730709075928,NaN,0,NA,0,294.550394525528,604.482641448975,607.242641448975,1636664600.0718,1636664600.07911,1636664603.78985,1636664603.79206,1636664605.89063,1636664608.07478,1636664608.07895,NaN,1636664609.79209,1636664919.72434,0
86,4,1,4,16,3,1,c1_WhyFace,1,proud?,103,F_618.jpg,1636664312.48169,1636664312.49297,284.830101957321,3.70080709457397,288.548155298233,290.648939599991,0.3,294.867179384232,0.88366174697876,295.753621091843,1,left,0.872597932815552,295.75084113121,604.482641448975,607.242641448975,1636664600.0718,1636664600.07911,1636664603.78985,1636664603.79206,1636664605.89063,1636664610.10887,1636664610.11229,1636664610.99532,1636664610.99254,1636664919.72434,1
86,4,1,4,16,4,1,c1_WhyFace,2,proud?,100,F_776.jpg,1636664312.48169,1636664312.49297,284.830101957321,3.70080709457397,288.548155298233,290.648939599991,0.3,296.067625989914,1.33383131027222,297.403460969925,3,right,1.32102799415588,297.401457300186,604.482641448975,607.242641448975,1636664600.0718,1636664600.07911,1636664603.78985,1636664603.79206,1636664605.89063,1636664611.30932,1636664611.31236,1636664612.64516,1636664612.64315,1636664919.72434,0
86,4,1,4,16,5,1,c1_WhyFace,1,proud?,104,F_598.jpg,1636664312.48169,1636664312.49297,284.830101957321,3.70080709457397,288.548155298233,290.648939599991,0.3,297.718242635727,1.58392381668091,299.303449144363,1,left,1.56046795845032,299.302166452408,604.482641448975,607.242641448975,1636664600.0718,1636664600.07911,1636664603.78985,1636664603.79206,1636664605.89063,1636664612.95994,1636664612.96228,1636664614.54514,1636664614.54386,1636664919.72434,1
86,4,1,4,16,6,1,c1_WhyFace,2,proud?,102,F_760.jpg,1636664312.48169,1636664312.49297,284.830101957321,3.70080709457397,288.548155298233,290.648939599991,0.3,299.618951072693,1.45054078102112,301.07126616478,3,right,1.43436694145203,301.069491853714,604.482641448975,607.242641448975,1636664600.0718,1636664600.07911,1636664603.78985,1636664603.79206,1636664605.89063,1636664614.86065,1636664614.86248,1636664616.31296,1636664616.31119,1636664919.72434,0
86,4,1,4,16,7,1,c1_WhyFace,2,proud?,98,F_412.jpg,1636664312.48169,1636664312.49297,284.830101957321,3.70080709457397,288.548155298233,290.648939599991,0.3,301.38627623558,1.23379421234131,302.621366968155,3,right,1.22235608100891,302.620070447922,604.482641448975,607.242641448975,1636664600.0718,1636664600.07911,1636664603.78985,1636664603.79206,1636664605.89063,1636664616.62797,1636664616.62954,1636664617.86306,1636664617.86177,1636664919.72434,0
86,4,1,4,16,8,1,c1_WhyFace,1,proud?,99,F_695.jpg,1636664312.48169,1636664312.49297,284.830101957321,3.70080709457397,288.548155298233,290.648939599991,0.3,302.936855068207,1.21712040901184,304.155076971054,1,left,1.19896912574768,304.153975477219,604.482641448975,607.242641448975,1636664600.0718,1636664600.07911,1636664603.78985,1636664603.79206,1636664605.89063,1636664618.17855,1636664618.18027,1636664619.39677,1636664619.39567,1636664919.72434,1
86,4,1,4,17,1,3,c3_HowFace,1,smiling?,115,F_695.jpg,1636664312.48169,1636664312.49297,304.23734044075,2.0837345123291,306.338122596741,308.438907136917,2.10078454017639,308.588962306976,1.71730804443359,NaN,0,NA,0,310.30627035141,604.482641448975,607.242641448975,1636664619.47904,1636664619.48073,1636664621.57982,1636664621.58232,1636664623.6806,1636664623.83066,1636664623.83258,NaN,1636664625.54797,1636664919.72434,0
86,4,1,4,17,2,3,c3_HowFace,2,smiling?,114,F_412.jpg,1636664312.48169,1636664312.49297,304.23734044075,2.0837345123291,306.338122596741,308.438907136917,0.3,310.623054018021,1.00037360191345,311.624552955627,1,left,0.978643894195557,311.623427619934,604.482641448975,607.242641448975,1636664619.47904,1636664619.48073,1636664621.57982,1636664621.58232,1636664623.6806,1636664625.86475,1636664625.86625,1636664626.86625,1636664626.86512,1636664919.72434,0
86,4,1,4,17,3,3,c3_HowFace,1,smiling?,117,F_593.jpg,1636664312.48169,1636664312.49297,304.23734044075,2.0837345123291,306.338122596741,308.438907136917,0.3,311.940212717056,1.03371906280518,312.975574960709,3,right,1.01557493209839,312.973931779861,604.482641448975,607.242641448975,1636664619.47904,1636664619.48073,1636664621.57982,1636664621.58232,1636664623.6806,1636664627.18191,1636664627.18348,1636664628.21727,1636664628.21563,1636664919.72434,0
86,4,1,4,17,4,3,c3_HowFace,1,smiling?,119,F_139.jpg,1636664312.48169,1636664312.49297,304.23734044075,2.0837345123291,306.338122596741,308.438907136917,0.3,313.290716400146,0.616896629333496,313.909342041016,1,left,0.601909875869751,313.90761302948,604.482641448975,607.242641448975,1636664619.47904,1636664619.48073,1636664621.57982,1636664621.58232,1636664623.6806,1636664628.53241,1636664628.53392,1636664629.15104,1636664629.14931,1636664919.72434,1
86,4,1,4,17,5,3,c3_HowFace,2,smiling?,113,F_712.jpg,1636664312.48169,1636664312.49297,304.23734044075,2.0837345123291,306.338122596741,308.438907136917,0.3,314.224397411346,0.816972017288208,315.05404709816,3,right,0.80501389503479,315.041369428635,604.482641448975,607.242641448975,1636664619.47904,1636664619.48073,1636664621.57982,1636664621.58232,1636664623.6806,1636664629.46609,1636664629.46772,1636664630.29574,1636664630.28306,1636664919.72434,0
86,4,1,4,17,6,3,c3_HowFace,1,smiling?,118,F_759.jpg,1636664312.48169,1636664312.49297,304.23734044075,2.0837345123291,306.338122596741,308.438907136917,0.3,315.35815404892,0.733606100082397,316.093554010391,1,left,0.71602201461792,316.091760149002,604.482641448975,607.242641448975,1636664619.47904,1636664619.48073,1636664621.57982,1636664621.58232,1636664623.6806,1636664630.59985,1636664630.60182,1636664631.33525,1636664631.33346,1636664919.72434,1
86,4,1,4,17,7,3,c3_HowFace,2,smiling?,120,F_758.jpg,1636664312.48169,1636664312.49297,304.23734044075,2.0837345123291,306.338122596741,308.438907136917,0.3,316.408545484543,0.783625364303589,317.193948974609,3,right,0.76630687713623,317.192170848846,604.482641448975,607.242641448975,1636664619.47904,1636664619.48073,1636664621.57982,1636664621.58232,1636664623.6806,1636664631.65024,1636664631.65221,1636664632.43564,1636664632.43387,1636664919.72434,0
86,4,1,4,17,8,3,c3_HowFace,1,smiling?,116,F_083.jpg,1636664312.48169,1636664312.49297,304.23734044075,2.0837345123291,306.338122596741,308.438907136917,0.3,317.508956422806,0.683587551116943,318.194205036163,1,left,0.661075830459595,318.192543973923,604.482641448975,607.242641448975,1636664619.47904,1636664619.48073,1636664621.57982,1636664621.58232,1636664623.6806,1636664632.75065,1636664632.75247,1636664633.4359,1636664633.43424,1636664919.72434,1
86,4,1,4,18,1,1,c1_WhyFace,1,admiring?,4,F_779.jpg,1636664312.48169,1636664312.49297,318.259235372543,7.11575078964233,325.378557910919,327.479341259003,2.1007833480835,327.629396429062,0.783626317977905,328.414175024033,1,left,0.75837779045105,328.41302274704,604.482641448975,607.242641448975,1636664633.50093,1636664633.51224,1636664640.62025,1636664640.62884,1636664642.72104,1636664642.87109,1636664642.87936,1636664643.65587,1636664643.65472,1636664919.72434,1
86,4,1,4,18,2,1,c1_WhyFace,2,admiring?,3,F_110.jpg,1636664312.48169,1636664312.49297,318.259235372543,7.11575078964233,325.378557910919,327.479341259003,0.3,328.729807128906,0.78362512588501,329.520025005341,3,right,0.767778873443604,329.513432254791,604.482641448975,607.242641448975,1636664633.50093,1636664633.51224,1636664640.62025,1636664640.62884,1636664642.72104,1636664643.9715,1636664643.97295,1636664644.76172,1636664644.75513,1636664919.72434,0
86,4,1,4,18,3,1,c1_WhyFace,1,admiring?,8,F_590.jpg,1636664312.48169,1636664312.49297,318.259235372543,7.11575078964233,325.378557910919,327.479341259003,0.3,329.830217351913,0.833643436431885,330.670032968521,1,left,0.824522018432617,330.663860788345,604.482641448975,607.242641448975,1636664633.50093,1636664633.51224,1636664640.62025,1636664640.62884,1636664642.72104,1636664645.07191,1636664645.07372,1636664645.91173,1636664645.90556,1636664919.72434,1
86,4,1,4,18,4,1,c1_WhyFace,1,admiring?,7,F_648.jpg,1636664312.48169,1636664312.49297,318.259235372543,7.11575078964233,325.378557910919,327.479341259003,0.3,330.980645885468,0.783626556396484,331.765684118271,1,left,0.763631820678711,331.764272441864,604.482641448975,607.242641448975,1636664633.50093,1636664633.51224,1636664640.62025,1636664640.62884,1636664642.72104,1636664646.22234,1636664646.22431,1636664647.00738,1636664647.00597,1636664919.72434,1
86,4,1,4,18,5,1,c1_WhyFace,1,admiring?,5,F_759.jpg,1636664312.48169,1636664312.49297,318.259235372543,7.11575078964233,325.378557910919,327.479341259003,0.3,332.081057062149,0.816971302032471,332.903805961609,1,left,0.802473068237305,332.898028364182,604.482641448975,607.242641448975,1636664633.50093,1636664633.51224,1636664640.62025,1636664640.62884,1636664642.72104,1636664647.32275,1636664647.32436,1636664648.1455,1636664648.13972,1636664919.72434,1
86,4,1,4,18,6,1,c1_WhyFace,2,admiring?,2,F_129.jpg,1636664312.48169,1636664312.49297,318.259235372543,7.11575078964233,325.378557910919,327.479341259003,0.3,333.214813461304,1.38384914398193,334.603862037659,3,right,1.37463903427124,334.598662605286,604.482641448975,607.242641448975,1636664633.50093,1636664633.51224,1636664640.62025,1636664640.62884,1636664642.72104,1636664648.45651,1636664648.45805,1636664649.84556,1636664649.84036,1636664919.72434,0
86,4,1,4,18,7,1,c1_WhyFace,1,admiring?,1,F_593.jpg,1636664312.48169,1636664312.49297,318.259235372543,7.11575078964233,325.378557910919,327.479341259003,0.3,334.915447463989,1.26713991165161,336.186709156036,1,left,1.25327301025391,336.182587375641,604.482641448975,607.242641448975,1636664633.50093,1636664633.51224,1636664640.62025,1636664640.62884,1636664642.72104,1636664650.15714,1636664650.15894,1636664651.4284,1636664651.42428,1636664919.72434,1
86,4,1,4,18,8,1,c1_WhyFace,2,admiring?,6,F_692.jpg,1636664312.48169,1636664312.49297,318.259235372543,7.11575078964233,325.378557910919,327.479341259003,0.3,336.49937128067,1.03371906280518,337.534147014618,3,right,1.00769686698914,337.533090343475,604.482641448975,607.242641448975,1636664633.50093,1636664633.51224,1636664640.62025,1636664640.62884,1636664642.72104,1636664651.74107,1636664651.74575,1636664652.77584,1636664652.77479,1636664919.72434,0
86,4,1,4,19,1,2,c2_WhyHand,1,healthy?,23,H_364.jpg,1636664312.48169,1636664312.49297,337.599781265259,5.8454327583313,343.451964845657,345.552747001648,2.1007821559906,345.7028033638,1.71730661392212,NaN,0,NA,0,347.420109977722,604.482641448975,607.242641448975,1636664652.84148,1636664652.84496,1636664658.69366,1636664658.69589,1636664660.79444,1636664660.9445,1636664660.94607,NaN,1636664662.6618,1636664919.72434,0
86,4,1,4,19,2,2,c2_WhyHand,2,healthy?,20,H_007.jpg,1636664312.48169,1636664312.49297,337.599781265259,5.8454327583313,343.451964845657,345.552747001648,0.3,347.736895074844,1.11708378791809,348.855828037262,3,right,1.09987211227417,348.853978862762,604.482641448975,607.242641448975,1636664652.84148,1636664652.84496,1636664658.69366,1636664658.69589,1636664660.79444,1636664662.97859,1636664662.97984,1636664664.09752,1636664664.09567,1636664919.72434,0
86,4,1,4,19,3,2,c2_WhyHand,1,healthy?,19,H_167.jpg,1636664312.48169,1636664312.49297,337.599781265259,5.8454327583313,343.451964845657,345.552747001648,0.3,349.170763483047,0.800297498703003,349.972490062714,1,left,0.782346963882446,349.97106098175,604.482641448975,607.242641448975,1636664652.84148,1636664652.84496,1636664658.69366,1636664658.69589,1636664660.79444,1636664664.41246,1636664664.41415,1636664665.21418,1636664665.21276,1636664919.72434,1
86,4,1,4,19,4,2,c2_WhyHand,2,healthy?,22,H_130.jpg,1636664312.48169,1636664312.49297,337.599781265259,5.8454327583313,343.451964845657,345.552747001648,0.3,350.287846078873,0.933682441711426,351.223345985413,3,right,0.91644811630249,351.221528520584,604.482641448975,607.242641448975,1636664652.84148,1636664652.84496,1636664658.69366,1636664658.69589,1636664660.79444,1636664665.52954,1636664665.53115,1636664666.46504,1636664666.46322,1636664919.72434,0
86,4,1,4,19,5,2,c2_WhyHand,1,healthy?,18,H_438.jpg,1636664312.48169,1636664312.49297,337.599781265259,5.8454327583313,343.451964845657,345.552747001648,0.3,351.538312187195,0.950355291366577,352.490102043152,1,left,0.939113855361938,352.488667478561,604.482641448975,607.242641448975,1636664652.84148,1636664652.84496,1636664658.69366,1636664658.69589,1636664660.79444,1636664666.78001,1636664666.78186,1636664667.7318,1636664667.73036,1636664919.72434,1
86,4,1,4,19,6,2,c2_WhyHand,2,healthy?,24,H_019.jpg,1636664312.48169,1636664312.49297,337.599781265259,5.8454327583313,343.451964845657,345.552747001648,0.3,352.805452337265,0.967026948928833,353.787151088715,3,right,0.957602024078369,353.772479286194,604.482641448975,607.242641448975,1636664652.84148,1636664652.84496,1636664658.69366,1636664658.69589,1636664660.79444,1636664668.04715,1636664668.04894,1636664669.02885,1636664669.01417,1636664919.72434,0
86,4,1,4,19,7,2,c2_WhyHand,1,healthy?,17,H_362.jpg,1636664312.48169,1636664312.49297,337.599781265259,5.8454327583313,343.451964845657,345.552747001648,0.3,354.089264860153,0.933680534362793,355.024614086151,1,left,0.910698890686035,355.022945394516,604.482641448975,607.242641448975,1636664652.84148,1636664652.84496,1636664658.69366,1636664658.69589,1636664660.79444,1636664669.33096,1636664669.3326,1636664670.26631,1636664670.26464,1636664919.72434,1
86,4,1,4,19,8,2,c2_WhyHand,1,healthy?,21,H_627.jpg,1636664312.48169,1636664312.49297,337.599781265259,5.8454327583313,343.451964845657,345.552747001648,0.3,355.33973025322,1.2838122844696,356.624691953659,3,right,1.27025103569031,356.623542537689,604.482641448975,607.242641448975,1636664652.84148,1636664652.84496,1636664658.69366,1636664658.69589,1636664660.79444,1636664670.58143,1636664670.58309,1636664671.86639,1636664671.86524,1636664919.72434,0
86,4,1,4,20,1,4,c4_HowHand,1,pressing button?,82,H_126.jpg,1636664312.48169,1636664312.49297,356.706907501221,4.25502252578735,360.97516535759,363.075948944092,2.10078358650208,363.226005783081,1.25046586990356,364.487054100037,1,left,1.23946595191956,364.476471652985,604.482641448975,607.242641448975,1636664671.9486,1636664671.9501,1636664676.21686,1636664676.21854,1636664678.31764,1636664678.4677,1636664678.46993,1636664679.72875,1636664679.71817,1636664919.72434,1
86,4,1,4,20,2,4,c4_HowHand,1,pressing button?,86,H_332.jpg,1636664312.48169,1636664312.49297,356.706907501221,4.25502252578735,360.97516535759,363.075948944092,0.3,364.793255558014,0.950354814529419,365.753445138931,1,left,0.942936897277832,365.743610372543,604.482641448975,607.242641448975,1636664671.9486,1636664671.9501,1636664676.21686,1636664676.21854,1636664678.31764,1636664680.03495,1636664680.0364,1636664680.99514,1636664680.98531,1636664919.72434,1
86,4,1,4,20,3,4,c4_HowHand,2,pressing button?,81,H_261.jpg,1636664312.48169,1636664312.49297,356.706907501221,4.25502252578735,360.97516535759,363.075948944092,0.3,366.060395231247,1.25046586990356,367.312395086288,3,right,1.2279360294342,367.310861101151,604.482641448975,607.242641448975,1636664671.9486,1636664671.9501,1636664676.21686,1636664676.21854,1636664678.31764,1636664681.30209,1636664681.30382,1636664682.55409,1636664682.55256,1636664919.72434,0
86,4,1,4,20,4,4,c4_HowHand,2,pressing button?,87,H_024.jpg,1636664312.48169,1636664312.49297,356.706907501221,4.25502252578735,360.97516535759,363.075948944092,0.3,367.627646436691,1.55057740211487,369.186757078171,1,left,1.54149794578552,369.178223838806,604.482641448975,607.242641448975,1636664671.9486,1636664671.9501,1636664676.21686,1636664676.21854,1636664678.31764,1636664682.86934,1636664682.87117,1636664684.42845,1636664684.41992,1636664919.72434,0
86,4,1,4,20,5,4,c4_HowHand,1,pressing button?,83,H_502.jpg,1636664312.48169,1636664312.49297,356.706907501221,4.25502252578735,360.97516535759,363.075948944092,0.3,369.495007982254,1.41719603538513,370.920968046188,1,left,1.40817499160767,370.912204017639,604.482641448975,607.242641448975,1636664671.9486,1636664671.9501,1636664676.21686,1636664676.21854,1636664678.31764,1636664684.7367,1636664684.73839,1636664686.16266,1636664686.1539,1636664919.72434,1
86,4,1,4,20,6,4,c4_HowHand,2,pressing button?,85,H_130.jpg,1636664312.48169,1636664312.49297,356.706907501221,4.25502252578735,360.97516535759,363.075948944092,0.3,371.228988161087,1.71730804443359,NaN,0,NA,0,372.946296205521,604.482641448975,607.242641448975,1636664671.9486,1636664671.9501,1636664676.21686,1636664676.21854,1636664678.31764,1636664686.47068,1636664686.47219,NaN,1636664688.18799,1636664919.72434,0
86,4,1,4,20,7,4,c4_HowHand,1,pressing button?,88,H_019.jpg,1636664312.48169,1636664312.49297,356.706907501221,4.25502252578735,360.97516535759,363.075948944092,0.3,373.263081541061,0.300111770629883,373.570374956131,1,left,0.2933349609375,373.563193311691,604.482641448975,607.242641448975,1636664671.9486,1636664671.9501,1636664676.21686,1636664676.21854,1636664678.31764,1636664688.50478,1636664688.50633,1636664688.81207,1636664688.80489,1636664919.72434,1
86,4,1,4,20,8,4,c4_HowHand,1,pressing button?,84,H_483.jpg,1636664312.48169,1636664312.49297,356.706907501221,4.25502252578735,360.97516535759,363.075948944092,0.3,373.879976978302,1.40052390098572,375.282109012604,1,left,1.38033390045166,375.280500879288,604.482641448975,607.242641448975,1636664671.9486,1636664671.9501,1636664676.21686,1636664676.21854,1636664678.31764,1636664689.12167,1636664689.12333,1636664690.5238,1636664690.5222,1636664919.72434,1
86,4,1,4,21,1,3,c3_HowFace,1,looking to side?,72,F_590.jpg,1636664312.48169,1636664312.49297,375.363864173889,3.48805594444275,378.865170707703,380.965954294205,2.10078358650208,381.116008987427,1.51723313331604,382.637444963455,1,left,1.49273800849915,382.633242120743,604.482641448975,607.242641448975,1636664690.60556,1636664690.61238,1636664694.10687,1636664694.11219,1636664696.20765,1636664696.3577,1636664696.36312,1636664697.87914,1636664697.87494,1636664919.72434,1
86,4,1,4,21,2,3,c3_HowFace,1,looking to side?,69,F_110.jpg,1636664312.48169,1636664312.49297,375.363864173889,3.48805594444275,378.865170707703,380.965954294205,0.3,382.950026979446,1.61726927757263,384.568502178192,1,left,1.5928270816803,384.567296257019,604.482641448975,607.242641448975,1636664690.60556,1636664690.61238,1636664694.10687,1636664694.11219,1636664696.20765,1636664698.19172,1636664698.19575,1636664699.8102,1636664699.80899,1636664919.72434,1
86,4,1,4,21,3,3,c3_HowFace,1,looking to side?,68,F_760.jpg,1636664312.48169,1636664312.49297,375.363864173889,3.48805594444275,378.865170707703,380.965954294205,0.3,384.88408159256,1.53390502929688,386.420036067963,3,right,1.52136301994324,386.417986621857,604.482641448975,607.242641448975,1636664690.60556,1636664690.61238,1636664694.10687,1636664694.11219,1636664696.20765,1636664700.12578,1636664700.12892,1636664701.66173,1636664701.65968,1636664919.72434,0
86,4,1,4,21,4,3,c3_HowFace,2,looking to side?,70,F_779.jpg,1636664312.48169,1636664312.49297,375.363864173889,3.48805594444275,378.865170707703,380.965954294205,0.3,386.734771242142,1.13375616073608,387.869626989365,1,left,1.10952711105347,387.868527402878,604.482641448975,607.242641448975,1636664690.60556,1636664690.61238,1636664694.10687,1636664694.11219,1636664696.20765,1636664701.97647,1636664701.97922,1636664703.11132,1636664703.11022,1636664919.72434,0
86,4,1,4,21,5,3,c3_HowFace,1,looking to side?,71,F_433.jpg,1636664312.48169,1636664312.49297,375.363864173889,3.48805594444275,378.865170707703,380.965954294205,0.3,388.185312261581,0.666915893554688,388.854092111588,1,left,0.648526906967163,388.852228155136,604.482641448975,607.242641448975,1636664690.60556,1636664690.61238,1636664694.10687,1636664694.11219,1636664696.20765,1636664703.42701,1636664703.42894,1636664704.09579,1636664704.09392,1636664919.72434,1
86,4,1,4,21,6,3,c3_HowFace,2,looking to side?,65,F_798.jpg,1636664312.48169,1636664312.49297,375.363864173889,3.48805594444275,378.865170707703,380.965954294205,0.3,389.169013490677,1.46721339225769,390.637973060608,3,right,1.44915294647217,390.636226882935,604.482641448975,607.242641448975,1636664690.60556,1636664690.61238,1636664694.10687,1636664694.11219,1636664696.20765,1636664704.41071,1636664704.4124,1636664705.87967,1636664705.87792,1636664919.72434,0
86,4,1,4,21,7,3,c3_HowFace,1,looking to side?,67,F_716.jpg,1636664312.48169,1636664312.49297,375.363864173889,3.48805594444275,378.865170707703,380.965954294205,0.3,390.953011264801,1.06706523895264,392.021144142151,1,left,1.04473400115967,392.020076503754,604.482641448975,607.242641448975,1636664690.60556,1636664690.61238,1636664694.10687,1636664694.11219,1636664696.20765,1636664706.19471,1636664706.19639,1636664707.26284,1636664707.26177,1636664919.72434,1
86,4,1,4,21,8,3,c3_HowFace,2,looking to side?,66,F_111.jpg,1636664312.48169,1636664312.49297,375.363864173889,3.48805594444275,378.865170707703,380.965954294205,0.3,392.336860170364,1.46721410751343,393.805510034561,3,right,1.45663213729858,393.804074277878,604.482641448975,607.242641448975,1636664690.60556,1636664690.61238,1636664694.10687,1636664694.11219,1636664696.20765,1636664707.57856,1636664707.5803,1636664709.0472,1636664709.04577,1636664919.72434,0
86,4,1,4,22,1,1,c1_WhyFace,1,argument?,42,F_403.jpg,1636664312.48169,1636664312.49297,393.887439002991,2.80453014373779,396.705156078339,398.805940380096,2.10078430175781,398.955995311737,1.16710162162781,400.137186994553,1,left,1.15794587135315,400.123096933365,604.482641448975,607.242641448975,1636664709.12913,1636664709.13048,1636664711.94685,1636664711.94917,1636664714.04764,1636664714.19769,1636664714.19989,1636664715.37888,1636664715.36479,1636664919.72434,1
86,4,1,4,22,2,1,c1_WhyFace,2,argument?,44,F_139.jpg,1636664312.48169,1636664312.49297,393.887439002991,2.80453014373779,396.705156078339,398.805940380096,0.3,400.439883460999,0.983698844909668,401.425224056244,3,right,0.968215942382812,401.423582305908,604.482641448975,607.242641448975,1636664709.12913,1636664709.13048,1636664711.94685,1636664711.94917,1636664714.04764,1636664715.68158,1636664715.68382,1636664716.66692,1636664716.66528,1636664919.72434,0
86,4,1,4,22,3,1,c1_WhyFace,1,argument?,47,F_743.jpg,1636664312.48169,1636664312.49297,393.887439002991,2.80453014373779,396.705156078339,398.805940380096,0.3,401.74036740303,1.71730804443359,NaN,0,NA,0,403.457675447464,604.482641448975,607.242641448975,1636664709.12913,1636664709.13048,1636664711.94685,1636664711.94917,1636664714.04764,1636664716.98206,1636664716.98397,NaN,1636664718.69937,1636664919.72434,0
86,4,1,4,22,4,1,c1_WhyFace,2,argument?,45,F_433.jpg,1636664312.48169,1636664312.49297,393.887439002991,2.80453014373779,396.705156078339,398.805940380096,0.3,403.774459114075,1.71730804443359,NaN,0,NA,0,405.491767158508,604.482641448975,607.242641448975,1636664709.12913,1636664709.13048,1636664711.94685,1636664711.94917,1636664714.04764,1636664719.01615,1636664719.01735,NaN,1636664720.73346,1636664919.72434,0
86,4,1,4,22,5,1,c1_WhyFace,1,argument?,43,F_716.jpg,1636664312.48169,1636664312.49297,393.887439002991,2.80453014373779,396.705156078339,398.805940380096,0.3,405.808551301956,1.38384914398193,407.193827142715,1,left,1.36885595321655,407.192400445938,604.482641448975,607.242641448975,1636664709.12913,1636664709.13048,1636664711.94685,1636664711.94917,1636664714.04764,1636664721.05025,1636664721.05194,1636664722.43552,1636664722.4341,1636664919.72434,1
86,4,1,4,22,6,1,c1_WhyFace,1,argument?,48,F_758.jpg,1636664312.48169,1636664312.49297,393.887439002991,2.80453014373779,396.705156078339,398.805940380096,0.3,407.509185066223,0.833645105361938,408.343906154633,1,left,0.817464113235474,408.342830171585,604.482641448975,607.242641448975,1636664709.12913,1636664709.13048,1636664711.94685,1636664711.94917,1636664714.04764,1636664722.75088,1636664722.75252,1636664723.5856,1636664723.58453,1636664919.72434,1
86,4,1,4,22,7,1,c1_WhyFace,2,argument?,46,F_844.jpg,1636664312.48169,1636664312.49297,393.887439002991,2.80453014373779,396.705156078339,398.805940380096,0.3,408.659614315033,0.766952991485596,409.436750164032,3,right,0.755007028579712,409.426567306519,604.482641448975,607.242641448975,1636664709.12913,1636664709.13048,1636664711.94685,1636664711.94917,1636664714.04764,1636664723.90131,1636664723.90288,1636664724.67845,1636664724.66826,1636664919.72434,0
86,4,1,4,22,8,1,c1_WhyFace,1,argument?,41,F_712.jpg,1636664312.48169,1636664312.49297,393.887439002991,2.80453014373779,396.705156078339,398.805940380096,0.3,409.743352165222,0.783624887466431,410.528391113281,1,left,0.761018037796021,410.526977052689,604.482641448975,607.242641448975,1636664709.12913,1636664709.13048,1636664711.94685,1636664711.94917,1636664714.04764,1636664724.98505,1636664724.98675,1636664725.77009,1636664725.76867,1636664919.72434,1
86,4,1,4,23,1,2,c2_WhyHand,1,self-protection?,94,H_189.jpg,1636664312.48169,1636664312.49297,410.610342254639,3.92156982421875,414.54514216423,416.64592622757,2.10078406333923,416.795981397629,1.08373761177063,417.886721124649,1,left,1.06613087654114,417.879719009399,604.482641448975,607.242641448975,1636664725.85204,1636664725.85373,1636664729.78684,1636664729.78849,1636664731.88762,1636664732.03768,1636664732.03983,1636664733.12842,1636664733.12141,1636664919.72434,1
86,4,1,4,23,2,2,c2_WhyHand,1,self-protection?,93,H_038.jpg,1636664312.48169,1636664312.49297,410.610342254639,3.92156982421875,414.54514216423,416.64592622757,0.3,418.196504583359,1.21712112426758,419.415114154816,3,right,1.19876098632812,419.413625707626,604.482641448975,607.242641448975,1636664725.85204,1636664725.85373,1636664729.78684,1636664729.78849,1636664731.88762,1636664733.4382,1636664733.43995,1636664734.65681,1636664734.65532,1636664919.72434,0
86,4,1,4,23,3,2,c2_WhyHand,1,self-protection?,91,H_581.jpg,1636664312.48169,1636664312.49297,410.610342254639,3.92156982421875,414.54514216423,416.64592622757,0.3,419.730409612656,1.33383083343506,421.06594704628,3,right,1.31395101547241,421.064240446091,604.482641448975,607.242641448975,1636664725.85204,1636664725.85373,1636664729.78684,1636664729.78849,1636664731.88762,1636664734.9721,1636664734.97386,1636664736.30764,1636664736.30594,1636664919.72434,0
86,4,1,4,23,4,2,c2_WhyHand,2,self-protection?,90,H_006.jpg,1636664312.48169,1636664312.49297,410.610342254639,3.92156982421875,414.54514216423,416.64592622757,0.3,421.381025066376,1.03371906280518,422.420147171021,3,right,1.02099204063416,422.414744129181,604.482641448975,607.242641448975,1636664725.85204,1636664725.85373,1636664729.78684,1636664729.78849,1636664731.88762,1636664736.62272,1636664736.62429,1636664737.66184,1636664737.65644,1636664919.72434,0
86,4,1,4,23,5,2,c2_WhyHand,1,self-protection?,96,H_027.jpg,1636664312.48169,1636664312.49297,410.610342254639,3.92156982421875,414.54514216423,416.64592622757,0.3,422.731529226303,1.71730732917786,424.691790094376,1,left,1.936652135849,424.448836555481,604.482641448975,607.242641448975,1636664725.85204,1636664725.85373,1636664729.78684,1636664729.78849,1636664731.88762,1636664737.97322,1636664737.975,1636664739.93349,1636664739.69053,1636664919.72434,1
86,4,1,4,23,6,2,c2_WhyHand,2,self-protection?,95,H_332.jpg,1636664312.48169,1636664312.49297,410.610342254639,3.92156982421875,414.54514216423,416.64592622757,0.3,424.765621652603,0.0166726112365723,424.787240018845,1,left,0.000232219696044922,424.78229426384,604.482641448975,607.242641448975,1636664725.85204,1636664725.85373,1636664729.78684,1636664729.78849,1636664731.88762,1636664740.00732,1636664740.00885,1636664740.02893,1636664740.02399,1636664919.72434,0
86,4,1,4,23,7,2,c2_WhyHand,1,self-protection?,89,H_443.jpg,1636664312.48169,1636664312.49297,410.610342254639,3.92156982421875,414.54514216423,416.64592622757,0.3,425.099078168869,0.883663415908813,425.987437000275,3,right,0.868881225585938,425.982741584778,604.482641448975,607.242641448975,1636664725.85204,1636664725.85373,1636664729.78684,1636664729.78849,1636664731.88762,1636664740.34077,1636664740.34577,1636664741.22913,1636664741.22444,1636664919.72434,0
86,4,1,4,23,8,2,c2_WhyHand,2,self-protection?,92,H_532.jpg,1636664312.48169,1636664312.49297,410.610342254639,3.92156982421875,414.54514216423,416.64592622757,0.3,426.299526443481,1.7173068523407,428.264271011353,3,right,1.9416307926178,428.016833295822,604.482641448975,607.242641448975,1636664725.85204,1636664725.85373,1636664729.78684,1636664729.78849,1636664731.88762,1636664741.54122,1636664741.54583,1636664743.50597,1636664743.25853,1636664919.72434,0
86,4,1,4,24,1,4,c4_HowHand,1,both hands?,124,H_581.jpg,1636664312.48169,1636664312.49297,428.333618154526,3.7153639793396,432.068344345093,434.152454843521,2.08411049842834,434.30251168251,1.71730709075928,NaN,0,NA,0,436.01981877327,604.482641448975,607.242641448975,1636664743.57531,1636664743.57908,1636664747.31004,1636664747.31254,1636664749.39415,1636664749.54421,1636664749.54592,NaN,1636664751.26151,1636664919.72434,0
86,4,1,4,24,2,4,c4_HowHand,1,both hands?,127,H_349.jpg,1636664312.48169,1636664312.49297,428.333618154526,3.7153639793396,432.068344345093,434.152454843521,0.3,436.336601963043,0.983701705932617,437.321647157669,1,left,0.964104890823364,437.320303668976,604.482641448975,607.242641448975,1636664743.57531,1636664743.57908,1636664747.31004,1636664747.31254,1636664749.39415,1636664751.5783,1636664751.5794,1636664752.56334,1636664752.562,1636664919.72434,1
86,4,1,4,24,3,4,c4_HowHand,2,both hands?,126,H_159.jpg,1636664312.48169,1636664312.49297,428.333618154526,3.7153639793396,432.068344345093,434.152454843521,0.3,437.637087335587,0.950355291366577,438.588943948746,3,right,0.927999019622803,438.587442626953,604.482641448975,607.242641448975,1636664743.57531,1636664743.57908,1636664747.31004,1636664747.31254,1636664749.39415,1636664752.87878,1636664752.88082,1636664753.83064,1636664753.82914,1636664919.72434,0
86,4,1,4,24,4,4,c4_HowHand,1,both hands?,122,H_111.jpg,1636664312.48169,1636664312.49297,428.333618154526,3.7153639793396,432.068344345093,434.152454843521,0.3,438.904227962494,0.833643436431885,439.738826980591,1,left,0.821614027023315,439.737871398926,604.482641448975,607.242641448975,1636664743.57531,1636664743.57908,1636664747.31004,1636664747.31254,1636664749.39415,1636664754.14592,1636664754.14775,1636664754.98052,1636664754.97957,1636664919.72434,1
86,4,1,4,24,5,4,c4_HowHand,2,both hands?,125,H_627.jpg,1636664312.48169,1636664312.49297,428.333618154526,3.7153639793396,432.068344345093,434.152454843521,0.3,440.054655542374,1.0337188243866,441.09001707077,3,right,1.01828598976135,441.08837436676,604.482641448975,607.242641448975,1636664743.57531,1636664743.57908,1636664747.31004,1636664747.31254,1636664749.39415,1636664755.29635,1636664755.29834,1636664756.33171,1636664756.33007,1636664919.72434,0
86,4,1,4,24,6,4,c4_HowHand,1,both hands?,123,H_167.jpg,1636664312.48169,1636664312.49297,428.333618154526,3.7153639793396,432.068344345093,434.152454843521,0.3,441.405159225464,1.71730661392212,NaN,0,NA,0,443.122465839386,604.482641448975,607.242641448975,1636664743.57531,1636664743.57908,1636664747.31004,1636664747.31254,1636664749.39415,1636664756.64685,1636664756.64862,NaN,1636664758.36416,1636664919.72434,0
86,4,1,4,24,7,4,c4_HowHand,1,both hands?,128,H_027.jpg,1636664312.48169,1636664312.49297,428.333618154526,3.7153639793396,432.068344345093,434.152454843521,0.3,443.439251413345,1.7173068523407,NaN,0,NA,0,445.156558265686,604.482641448975,607.242641448975,1636664743.57531,1636664743.57908,1636664747.31004,1636664747.31254,1636664749.39415,1636664758.68095,1636664758.68274,NaN,1636664760.39825,1636664919.72434,0
86,4,1,4,24,8,4,c4_HowHand,2,both hands?,121,H_091.jpg,1636664312.48169,1636664312.49297,428.333618154526,3.7153639793396,432.068344345093,434.152454843521,0.3,445.473343362808,1.41719555854797,446.903794994354,1,left,1.40992999076843,446.890538921356,604.482641448975,607.242641448975,1636664743.57531,1636664743.57908,1636664747.31004,1636664747.31254,1636664749.39415,1636664760.71504,1636664760.7165,1636664762.14549,1636664762.13223,1636664919.72434,0
86,4,1,4,25,1,2,c2_WhyHand,1,competing?,15,H_170.jpg,1636664312.48169,1636664312.49297,446.973903646469,2.86502933502197,449.858312597275,451.942422380447,2.08410978317261,452.092478742599,0.700261116027832,452.804068078995,1,left,0.682678937911987,452.792739858627,604.482641448975,607.242641448975,1636664762.2156,1636664762.229,1636664765.10001,1636664765.10234,1636664767.18412,1636664767.33417,1636664767.34597,1636664768.04576,1636664768.03443,1636664919.72434,1
86,4,1,4,25,2,2,c2_WhyHand,1,competing?,14,H_132.jpg,1636664312.48169,1636664312.49297,446.973903646469,2.86502933502197,449.858312597275,451.942422380447,0.3,453.109524717331,0.750280141830444,453.870597114563,1,left,0.735907793045044,453.859804859161,604.482641448975,607.242641448975,1636664762.2156,1636664762.229,1636664765.10001,1636664765.10234,1636664767.18412,1636664768.35122,1636664768.35297,1636664769.11229,1636664769.1015,1636664919.72434,1
86,4,1,4,25,3,2,c2_WhyHand,2,competing?,10,H_126.jpg,1636664312.48169,1636664312.49297,446.973903646469,2.86502933502197,449.858312597275,451.942422380447,0.3,454.176589479446,0.833643674850464,455.012003173828,3,right,0.814912080764771,455.010233154297,604.482641448975,607.242641448975,1636664762.2156,1636664762.229,1636664765.10001,1636664765.10234,1636664767.18412,1636664769.41828,1636664769.41986,1636664770.2537,1636664770.25193,1636664919.72434,0
86,4,1,4,25,4,2,c2_WhyHand,1,competing?,13,H_003.jpg,1636664312.48169,1636664312.49297,446.973903646469,2.86502933502197,449.858312597275,451.942422380447,0.3,455.327018728256,1.7173068523407,NaN,0,NA,0,457.044325580597,604.482641448975,607.242641448975,1636664762.2156,1636664762.229,1636664765.10001,1636664765.10234,1636664767.18412,1636664770.56871,1636664770.57074,NaN,1636664772.28602,1636664919.72434,0
86,4,1,4,25,5,2,c2_WhyHand,2,competing?,11,H_502.jpg,1636664312.48169,1636664312.49297,446.973903646469,2.86502933502197,449.858312597275,451.942422380447,0.3,457.361109962463,0.800298452377319,458.170879116058,3,right,0.784287929534912,458.161408414841,604.482641448975,607.242641448975,1636664762.2156,1636664762.229,1636664765.10001,1636664765.10234,1636664767.18412,1636664772.6028,1636664772.60433,1636664773.41257,1636664773.4031,1636664919.72434,0
86,4,1,4,25,6,2,c2_WhyHand,1,competing?,16,H_136.jpg,1636664312.48169,1636664312.49297,446.973903646469,2.86502933502197,449.858312597275,451.942422380447,0.3,458.478192796707,1.71730756759644,NaN,0,NA,0,460.195500364304,604.482641448975,607.242641448975,1636664762.2156,1636664762.229,1636664765.10001,1636664765.10234,1636664767.18412,1636664773.71989,1636664773.72182,NaN,1636664775.4372,1636664919.72434,0
86,4,1,4,25,7,2,c2_WhyHand,2,competing?,12,H_483.jpg,1636664312.48169,1636664312.49297,446.973903646469,2.86502933502197,449.858312597275,451.942422380447,0.3,460.512285223007,1.71730661392212,NaN,0,NA,0,462.229591836929,604.482641448975,607.242641448975,1636664762.2156,1636664762.229,1636664765.10001,1636664765.10234,1636664767.18412,1636664775.75398,1636664775.75559,NaN,1636664777.47129,1636664919.72434,0
86,4,1,4,25,8,2,c2_WhyHand,1,competing?,9,H_261.jpg,1636664312.48169,1636664312.49297,446.973903646469,2.86502933502197,449.858312597275,451.942422380447,0.3,462.546375980377,0.650243282318115,463.198055019379,1,left,0.630362033843994,463.196619262695,604.482641448975,607.242641448975,1636664762.2156,1636664762.229,1636664765.10001,1636664765.10234,1636664767.18412,1636664777.78807,1636664777.78976,1636664778.43975,1636664778.43831,1636664919.72434,1
86,4,1,4,26,1,4,c4_HowHand,1,lifting?,49,H_362.jpg,1636664312.48169,1636664312.49297,463.279982795715,4.44899320602417,467.748317232132,469.832426776886,2.08410954475403,469.982483139038,1.71730709075928,NaN,0,NA,0,471.699790229797,604.482641448975,607.242641448975,1636664778.52168,1636664778.52893,1636664782.99001,1636664782.99249,1636664785.07412,1636664785.22418,1636664785.22934,NaN,1636664786.94149,1636664919.72434,0
86,4,1,4,26,2,4,c4_HowHand,2,lifting?,55,H_012.jpg,1636664312.48169,1636664312.49297,463.279982795715,4.44899320602417,467.748317232132,469.832426776886,0.3,472.01657532692,1.16710186004639,473.186755170822,3,right,1.15356612205505,473.183677186966,604.482641448975,607.242641448975,1636664778.52168,1636664778.52893,1636664782.99001,1636664782.99249,1636664785.07412,1636664787.25827,1636664787.26248,1636664788.42845,1636664788.42537,1636664919.72434,0
86,4,1,4,26,3,4,c4_HowHand,1,lifting?,56,H_136.jpg,1636664312.48169,1636664312.49297,463.279982795715,4.44899320602417,467.748317232132,469.832426776886,0.3,473.500462284088,0.866989374160767,474.369022121429,1,left,0.841678857803345,474.367451658249,604.482641448975,607.242641448975,1636664778.52168,1636664778.52893,1636664782.99001,1636664782.99249,1636664785.07412,1636664788.74216,1636664788.74576,1636664789.61072,1636664789.60915,1636664919.72434,1
86,4,1,4,26,4,4,c4_HowHand,1,lifting?,52,H_189.jpg,1636664312.48169,1636664312.49297,463.279982795715,4.44899320602417,467.748317232132,469.832426776886,0.3,474.684236516953,1.18377494812012,475.870751132965,1,left,1.16707587242126,475.868011465073,604.482641448975,607.242641448975,1636664778.52168,1636664778.52893,1636664782.99001,1636664782.99249,1636664785.07412,1636664789.92593,1636664789.92906,1636664791.11245,1636664791.10971,1636664919.72434,1
86,4,1,4,26,5,4,c4_HowHand,1,lifting?,54,H_170.jpg,1636664312.48169,1636664312.49297,463.279982795715,4.44899320602417,467.748317232132,469.832426776886,0.3,476.184796085358,1.71730756759644,NaN,0,NA,0,477.902103652954,604.482641448975,607.242641448975,1636664778.52168,1636664778.52893,1636664782.99001,1636664782.99249,1636664785.07412,1636664791.42649,1636664791.42915,NaN,1636664793.1438,1636664919.72434,0
86,4,1,4,26,6,4,c4_HowHand,2,lifting?,53,H_077.jpg,1636664312.48169,1636664312.49297,463.279982795715,4.44899320602417,467.748317232132,469.832426776886,0.3,478.218888511658,1.1337559223175,479.354124059677,1,left,1.12247705459595,479.352644433975,604.482641448975,607.242641448975,1636664778.52168,1636664778.52893,1636664782.99001,1636664782.99249,1636664785.07412,1636664793.46058,1636664793.46221,1636664794.59582,1636664794.59434,1636664919.72434,0
86,4,1,4,26,7,4,c4_HowHand,1,lifting?,50,H_443.jpg,1636664312.48169,1636664312.49297,463.279982795715,4.44899320602417,467.748317232132,469.832426776886,0.3,479.669429292679,1.10041046142578,480.771380176544,1,left,1.08362293243408,480.769839754105,604.482641448975,607.242641448975,1636664778.52168,1636664778.52893,1636664782.99001,1636664782.99249,1636664785.07412,1636664794.91112,1636664794.91275,1636664796.01308,1636664796.01153,1636664919.72434,1
86,4,1,4,26,8,4,c4_HowHand,2,lifting?,51,H_038.jpg,1636664312.48169,1636664312.49297,463.279982795715,4.44899320602417,467.748317232132,469.832426776886,0.3,481.08662437439,1.11708331108093,482.205512037277,3,right,1.09834599494934,482.203707685471,604.482641448975,607.242641448975,1636664778.52168,1636664778.52893,1636664782.99001,1636664782.99249,1636664785.07412,1636664796.32832,1636664796.32995,1636664797.44721,1636664797.4454,1636664919.72434,0
86,4,1,4,27,1,3,c3_HowFace,1,open mouth?,73,F_403.jpg,1636664312.48169,1636664312.49297,482.303744068146,3.49517893791199,485.805050840378,487.905833950043,2.10078310966492,488.055890789032,1.71730661392212,NaN,0,NA,0,489.773197402954,604.482641448975,607.242641448975,1636664797.54544,1636664797.54649,1636664801.04675,1636664801.04838,1636664803.14753,1636664803.29759,1636664803.29928,NaN,1636664805.01489,1636664919.72434,0
86,4,1,4,27,2,3,c3_HowFace,1,open mouth?,75,F_086.jpg,1636664312.48169,1636664312.49297,482.303744068146,3.49517893791199,485.805050840378,487.905833950043,0.3,490.089981069565,1.71730828285217,NaN,0,NA,0,491.807289352417,604.482641448975,607.242641448975,1636664797.54544,1636664797.54649,1636664801.04675,1636664801.04838,1636664803.14753,1636664805.33168,1636664805.33305,NaN,1636664807.04898,1636664919.72434,0
86,4,1,4,27,3,3,c3_HowFace,1,open mouth?,80,F_844.jpg,1636664312.48169,1636664312.49297,482.303744068146,3.49517893791199,485.805050840378,487.905833950043,0.3,492.124074687958,0.61689567565918,492.742688169479,1,left,0.595767021179199,492.740970363617,604.482641448975,607.242641448975,1636664797.54544,1636664797.54649,1636664801.04675,1636664801.04838,1636664803.14753,1636664807.36577,1636664807.36722,1636664807.98438,1636664807.98267,1636664919.72434,1
86,4,1,4,27,4,3,c3_HowFace,2,open mouth?,76,F_544.jpg,1636664312.48169,1636664312.49297,482.303744068146,3.49517893791199,485.805050840378,487.905833950043,0.3,493.057754983902,0.816972255706787,493.876302947998,3,right,0.793506145477295,493.874727239609,604.482641448975,607.242641448975,1636664797.54544,1636664797.54649,1636664801.04675,1636664801.04838,1636664803.14753,1636664808.29945,1636664808.30143,1636664809.118,1636664809.11642,1636664919.72434,0
86,4,1,4,27,5,3,c3_HowFace,1,open mouth?,74,F_776.jpg,1636664312.48169,1636664312.49297,482.303744068146,3.49517893791199,485.805050840378,487.905833950043,0.3,494.191511144638,0.917009115219116,495.11028503418,1,left,0.89470100402832,495.108520259857,604.482641448975,607.242641448975,1636664797.54544,1636664797.54649,1636664801.04675,1636664801.04838,1636664803.14753,1636664809.43321,1636664809.43514,1636664810.35198,1636664810.35022,1636664919.72434,1
86,4,1,4,27,6,3,c3_HowFace,2,open mouth?,79,F_648.jpg,1636664312.48169,1636664312.49297,482.303744068146,3.49517893791199,485.805050840378,487.905833950043,0.3,495.425305356979,1.71730756759644,NaN,0,NA,0,497.142612924576,604.482641448975,607.242641448975,1636664797.54544,1636664797.54649,1636664801.04675,1636664801.04838,1636664803.14753,1636664810.667,1636664810.66888,NaN,1636664812.38431,1636664919.72434,0
86,4,1,4,27,7,3,c3_HowFace,1,open mouth?,78,F_692.jpg,1636664312.48169,1636664312.49297,482.303744068146,3.49517893791199,485.805050840378,487.905833950043,0.3,497.459396352768,1.71730780601501,NaN,0,NA,0,499.176704158783,604.482641448975,607.242641448975,1636664797.54544,1636664797.54649,1636664801.04675,1636664801.04838,1636664803.14753,1636664812.70109,1636664812.70255,NaN,1636664814.4184,1636664919.72434,0
86,4,1,4,27,8,3,c3_HowFace,2,open mouth?,77,F_584.jpg,1636664312.48169,1636664312.49297,482.303744068146,3.49517893791199,485.805050840378,487.905833950043,0.3,499.493488540649,1.71730661392212,NaN,0,NA,0,501.210795154572,604.482641448975,607.242641448975,1636664797.54544,1636664797.54649,1636664801.04675,1636664801.04838,1636664803.14753,1636664814.73518,1636664814.73677,NaN,1636664816.45249,1636664919.72434,0
86,4,1,4,28,1,1,c1_WhyFace,1,proud?,97,F_582.jpg,1636664312.48169,1636664312.49297,501.577599277496,2.44138669967651,504.028513422012,506.129297485352,2.10078406333923,506.279352655411,0.600224018096924,506.887384166718,1,left,0.584683895111084,506.879576673508,604.482641448975,607.242641448975,1636664816.81929,1636664816.82089,1636664819.27021,1636664819.27934,1636664821.37099,1636664821.52105,1636664821.52914,1636664822.12908,1636664822.12127,1636664919.72434,1
86,4,1,4,28,2,1,c1_WhyFace,2,proud?,100,F_776.jpg,1636664312.48169,1636664312.49297,501.577599277496,2.44138669967651,504.028513422012,506.129297485352,0.3,507.196361055374,1.51723289489746,508.714672079086,3,right,1.49526119232178,508.713593950272,604.482641448975,607.242641448975,1636664816.81929,1636664816.82089,1636664819.27021,1636664819.27934,1636664821.37099,1636664822.43806,1636664822.43975,1636664823.95637,1636664823.95529,1636664919.72434,0
