onset	duration	trial_type	pmod_accuracy
6.87385320663452	0.688743543624878	cue_valid	1
20.7456939220428	0.577676248550415	cue_valid	1
28.7153315544128	0.517192316055298	cue_valid	1
36.5849335193634	0.574588012695312	cue_valid	1
48.4226822853088	0.536666345596313	cue_valid	1
55.8921329975128	0.512596321105957	cue_valid	1
63.2615482807159	0.508759212493896	cue_valid	1
70.1974687576294	0.535930347442627	cue_valid	1
80.7347309589386	0.48700590133667	cue_valid	1
88.2708745002747	0.489068460464478	cue_valid	1
91.3386857509613	0.492126417160034	cue_valid	1
99.2749783992767	0.542875719070435	cue_valid	1
102.642900705338	0.49697060585022	cue_valid	1
109.578821897507	0.47991080284118703	cue_valid	1
117.048273086548	0.577680778503418	cue_valid	1
120.416195869446	0.480035018920898	cue_valid	1
127.885647773743	0.495481204986572	cue_valid	1
156.429625988007	0.493534755706787	cue_valid	1
159.697511196136	0.45190281867981	cue_valid	1
162.965396404266	0.511953783035278	cue_valid	1
178.63790845871	0.591463756561279	cue_valid	1
193.176663160324	0.479808521270752	cue_valid	1
197.1448097229	0.486153316497803	cue_valid	1
205.5812895298	0.496808958053589	cue_valid	1
216.318625926971	0.467244338989258	cue_valid	1
224.288264513016	0.495146942138672	cue_valid	1
234.825528860092	0.533456516265869	cue_valid	1
241.561373233795	0.640112352371216	cue_valid	1
246.830005645752	0.54104323387146	cue_valid	1
253.099009037018	0.48308200836181603	cue_valid	1
265.136832475662	0.6023070335388181	cue_valid	1
269.104978322983	0.5046464920043949	cue_valid	1
281.14280128479	0.514739942550659	cue_valid	1
286.611507415771	0.511318159103394	cue_valid	1
301.016879081726	0.501925182342529	cue_valid	1
320.29073381424	0.558585357666016	cue_valid	1
332.995471715927	0.612890434265137	cue_valid	1
344.182976007462	0.566552352905273	cue_valid	1
351.652428627014	0.464778614044189	cue_valid	1
359.121881484985	0.516979169845581	cue_valid	1
362.489803314209	0.648573112487793	cue_valid	1
365.657650709152	0.5159956932067871	cue_valid	1
403.655155897141	0.508346748352051	cue_valid	1
407.623301744461	0.483475160598755	cue_valid	1
415.092754602432	0.59337682723999	cue_valid	1
419.160937547684	0.502327632904053	cue_valid	1
430.665228366852	0.505227279663086	cue_valid	1
441.2691822052	0.529124212265015	cue_valid	1
450.339231729507	0.476841402053833	cue_valid	1
474.014727115631	0.569142532348633	cue_valid	1
477.98287320137	0.535923433303833	cue_valid	1
491.654639482498	0.559196424484253	cue_valid	1
516.563926458359	0.610709381103516	cue_valid	1
541.439871072769	0.555575084686279	cue_valid	1
545.608092308044	0.492370557785034	cue_valid	1
551.376909732819	0.463656616210938	cue_valid	1
556.345430850983	0.498538684844971	cue_valid	1
559.713352203369	0.523437929153442	cue_valid	1
563.8815741539	0.5490107059478759	cue_valid	1
571.351026535034	0.5089625835418701	cue_valid	1
580.087617397308	0.544816923141479	cue_valid	1
593.225850105286	0.563257884979248	cue_valid	1
598.994668245316	0.49018402099609404	cue_valid	1
10.1417379379272	0.6121985435485839	cue_invalid	1
13.5096611976624	0.5507435321807861	cue_invalid	1
17.0776581764221	0.540065717697144	cue_invalid	1
41.8535640239716	0.5517589569091801	cue_invalid	1
66.7295088768005	0.617677640914917	cue_invalid	1
73.2652785778046	0.530078125	cue_invalid	1
84.1026530265808	0.543341588973999	cue_invalid	1
94.3064589500427	0.565907669067383	cue_invalid	1
106.010823726654	0.573159646987915	cue_invalid	1
132.053869247437	0.619643878936768	cue_invalid	1
135.721903562546	0.533598136901855	cue_invalid	1
144.191729545593	0.53911657333374	cue_invalid	1
151.66118144989	0.49892754554748503	cue_invalid	1
165.933169841766	0.560200643539429	cue_invalid	1
170.001353502274	0.520156574249268	cue_invalid	1
174.069537401199	0.531084489822388	cue_invalid	1
186.107360839844	0.543873739242554	cue_invalid	1
200.112582921982	0.672150087356567	cue_invalid	1
213.050741434097	0.573261213302612	cue_invalid	1
231.757717609406	0.570804071426392	cue_invalid	1
237.993376255035	0.5903896808624269	cue_invalid	1
260.56846165657	0.489603233337402	cue_invalid	1
276.574429750443	0.571020555496216	cue_invalid	1
292.580399990082	0.5324530124664311	cue_invalid	1
295.848285913467	0.528490018844604	cue_invalid	1
305.685286998749	0.551483583450317	cue_invalid	1
311.153993606567	0.547402334213257	cue_invalid	1
314.221803188324	0.565097761154175	cue_invalid	1
326.659774780273	0.560439538955688	cue_invalid	1
330.027698278427	0.563729953765869	cue_invalid	1
336.063282489777	0.6348058700561521	cue_invalid	1
341.231876850128	0.574521970748901	cue_invalid	1
370.125985622406	0.46691460609436003	cue_invalid	0
377.59543633461	0.551422786712646	cue_invalid	1
381.66362118721	0.547935199737549	cue_invalid	1
389.13307261467	0.537900638580322	cue_invalid	1
396.185703277588	0.524113845825195	cue_invalid	1
422.22874879837	0.6202432632446291	cue_invalid	1
426.196892738342	0.582807970046997	cue_invalid	1
433.633001089096	0.5239140510559079	cue_invalid	1
438.201371192932	0.5450508117675781	cue_invalid	1
456.008012533188	0.40953440666198704	cue_invalid	0
460.276270389557	0.539978694915771	cue_invalid	1
467.645685195923	0.5470435142517089	cue_invalid	1
482.651281356812	0.5672378063201899	cue_invalid	1
485.619055986404	0.555480909347534	cue_invalid	1
488.58682847023	0.65694637298584	cue_invalid	1
499.124091625214	0.580332946777344	cue_invalid	1
502.391976594925	0.548181247711182	cue_invalid	1
505.859935998917	0.589126777648926	cue_invalid	1
509.127821445465	0.567701530456543	cue_invalid	1
512.395706415176	0.589924287796021	cue_invalid	1
521.03226184845	0.586048793792725	cue_invalid	1
526.500966787338	0.557018709182739	cue_invalid	1
533.970419645309	0.49908561706543003	cue_invalid	1
576.619657039642	0.589141798019409	cue_invalid	1
585.756397724152	0.5473448753356931	cue_invalid	1
