src_subject_id,session_id,run_id,param_counterbalance_ver,param_block_num,param_trial_num,param_cond_type_num,param_cond_type_string,param_normative_response,param_ques_type_string,param_image_num,param_image_filename,param_trigger_onset,param_start_biopac,event01_fixation,event01_fixation_dur,event01_blockquestion_onset,event01_block_isi_blacksreen,event01_blockquestion_dur,event02_image_onset,event02_image_dur,event03_response_onset,event03_response_key,event03_response_keyname,event03_RT,event04_shortquestion_onset,param_end_instruct_onset,param_experiment_duration,RAW_e1_fixation,RAW_e1_fixation_biopac,RAW_e1_blockquestion_onset,RAW_e1_blockquestion_onset_biopac,RAW_e1_block_isi_blacksreen,RAW_e2_image_onset,RAW_e2_image_onset_biopac,RAW_e3_response_onset,RAW_e4_shortquestion_onset,RAW_param_end_instruct_onset,accuracy
46,4,2,3,1,1,4,c4_HowHand,1,reaching?,107,H_007.jpg,1628798174.17367,1628798174.17559,0.014320602416992,0.0384674072265625,0.0643398666381834,2.11510442733765,2.05076456069946,2.26516078948975,1.00037288665771,3.27112602233887,1,left,0.964647054672241,3.26553367614746,604.473069658279,607.233069658279,1628798176.94799,1628798176.95867,1628798176.99801,1628798177.00515,1628798179.04878,1628798179.19883,1628798179.20505,1628798180.2048,1628798180.19921,1628798781.40674,1
46,4,2,3,1,2,4,c4_HowHand,2,reaching?,108,H_532.jpg,1628798174.17367,1628798174.17559,0.014320602416992,0.0384674072265625,0.0643398666381834,2.11510442733765,0.3,3.58231925010681,0.816969871520996,4.40149711608887,1,left,0.794435024261475,4.39928912162781,604.473069658279,607.233069658279,1628798176.94799,1628798176.95867,1628798176.99801,1628798177.00515,1628798179.04878,1628798180.51599,1628798180.51799,1628798181.33517,1628798181.33296,1628798781.40674,0
46,4,2,3,1,3,4,c4_HowHand,1,reaching?,109,H_474.jpg,1628798174.17367,1628798174.17559,0.014320602416992,0.0384674072265625,0.0643398666381834,2.11510442733765,0.3,4.71607350349426,0.983700752258301,5.70444892883301,3,right,0.965644121170044,5.69977425575256,604.473069658279,607.233069658279,1628798176.94799,1628798176.95867,1628798176.99801,1628798177.00515,1628798179.04878,1628798181.64975,1628798181.65444,1628798182.63812,1628798182.63345,1628798781.40674,0
46,4,2,3,1,4,4,c4_HowHand,2,reaching?,105,H_438.jpg,1628798174.17367,1628798174.17559,0.014320602416992,0.0384674072265625,0.0643398666381834,2.11510442733765,0.3,6.01655935287476,0.950354337692261,6.97137807846069,3,right,0.925951957702637,6.96691369056702,604.473069658279,607.233069658279,1628798176.94799,1628798176.95867,1628798176.99801,1628798177.00515,1628798179.04878,1628798182.95023,1628798182.95453,1628798183.90505,1628798183.90059,1628798781.40674,0
46,4,2,3,1,5,4,c4_HowHand,1,reaching?,110,H_364.jpg,1628798174.17367,1628798174.17559,0.014320602416992,0.0384674072265625,0.0643398666381834,2.11510442733765,0.3,7.28369926452637,0.883662700653076,8.17346309661865,1,left,0.857633113861084,8.16736196517944,604.473069658279,607.233069658279,1628798176.94799,1628798176.95867,1628798176.99801,1628798177.00515,1628798179.04878,1628798184.21737,1628798184.22271,1628798185.10714,1628798185.10103,1628798781.40674,1
46,4,2,3,1,6,4,c4_HowHand,1,reaching?,106,H_006.jpg,1628798174.17367,1628798174.17559,0.014320602416992,0.0384674072265625,0.0643398666381834,2.11510442733765,0.3,8.48414563179016,0.850318670272827,9.33740114212036,1,left,0.827782869338989,9.33446430206299,604.473069658279,607.233069658279,1628798176.94799,1628798176.95867,1628798176.99801,1628798177.00515,1628798179.04878,1628798185.41782,1628798185.42125,1628798186.27107,1628798186.26814,1628798781.40674,1
46,4,2,3,1,7,4,c4_HowHand,1,reaching?,111,H_003.jpg,1628798174.17367,1628798174.17559,0.014320602416992,0.0384674072265625,0.0643398666381834,2.11510442733765,0.3,9.65124844551086,0.883662223815918,10.5371720695496,1,left,0.86912202835083,10.5349106693268,604.473069658279,607.233069658279,1628798176.94799,1628798176.95867,1628798176.99801,1628798177.00515,1628798179.04878,1628798186.58492,1628798186.58802,1628798187.47084,1628798187.46858,1628798781.40674,1
46,4,2,3,1,8,4,c4_HowHand,2,reaching?,112,H_132.jpg,1628798174.17367,1628798174.17559,0.014320602416992,0.0384674072265625,0.0643398666381834,2.11510442733765,0.3,10.8516960048676,1.03371858596802,11.8874030017853,3,right,1.02151083946228,11.8854145908356,604.473069658279,607.233069658279,1628798176.94799,1628798176.95867,1628798176.99801,1628798177.00515,1628798179.04878,1628798187.78537,1628798187.78791,1628798188.82107,1628798188.81909,1628798781.40674,0
46,4,2,3,2,1,2,c2_WhyHand,1,healthy?,21,H_627.jpg,1628798174.17367,1628798174.17559,12.0021245384216,5.52895259857178,17.5375227832794,19.6383054161072,2.10078263282776,19.7883620166779,0.816970348358154,20.621138086319,1,left,0.807255029678345,20.605332365036,604.473069658279,607.233069658279,1628798188.9358,1628798188.93787,1628798194.47119,1628798194.4731,1628798196.57198,1628798196.72203,1628798196.72388,1628798197.55481,1628798197.539,1628798781.40674,1
46,4,2,3,2,2,2,c2_WhyHand,1,healthy?,18,H_438.jpg,1628798174.17367,1628798174.17559,12.0021245384216,5.52895259857178,17.5375227832794,19.6383054161072,0.3,20.9221174621582,1.10041117668152,22.0237200164795,1,left,1.0889458656311,22.0225286388397,604.473069658279,607.233069658279,1628798188.9358,1628798188.93787,1628798194.47119,1628798194.4731,1628798196.57198,1628798197.85579,1628798197.85718,1628798198.95739,1628798198.9562,1628798781.40674,1
46,4,2,3,2,3,2,c2_WhyHand,1,healthy?,23,H_364.jpg,1628798174.17367,1628798174.17559,12.0021245384216,5.52895259857178,17.5375227832794,19.6383054161072,0.3,22.3393137359619,1.16710090637207,23.5206169986725,3,right,1.16019892692566,23.506414642334,604.473069658279,607.233069658279,1628798188.9358,1628798188.93787,1628798194.47119,1628798194.4731,1628798196.57198,1628798199.27299,1628798199.2748,1628798200.45429,1628798200.44009,1628798781.40674,0
46,4,2,3,2,4,2,c2_WhyHand,2,healthy?,22,H_130.jpg,1628798174.17367,1628798174.17559,12.0021245384216,5.52895259857178,17.5375227832794,19.6383054161072,0.3,23.8231997394562,1.11708283424377,24.9416639709473,3,right,1.09940409660339,24.9402825736999,604.473069658279,607.233069658279,1628798188.9358,1628798188.93787,1628798194.47119,1628798194.4731,1628798196.57198,1628798200.75687,1628798200.75877,1628798201.87534,1628798201.87395,1628798781.40674,0
46,4,2,3,2,5,2,c2_WhyHand,1,healthy?,17,H_362.jpg,1628798174.17367,1628798174.17559,12.0021245384216,5.52895259857178,17.5375227832794,19.6383054161072,0.3,25.2570679092407,0.883662223815918,26.1535060310364,1,left,0.872584104537964,26.1407301330566,604.473069658279,607.233069658279,1628798188.9358,1628798188.93787,1628798194.47119,1628798194.4731,1628798196.57198,1628798202.19074,1628798202.19246,1628798203.08718,1628798203.0744,1628798781.40674,1
46,4,2,3,2,6,2,c2_WhyHand,2,healthy?,20,H_007.jpg,1628798174.17367,1628798174.17559,12.0021245384216,5.52895259857178,17.5375227832794,19.6383054161072,0.3,26.4575154685974,1.1337583065033,27.592756023407,3,right,1.11999702453613,27.5912737751007,604.473069658279,607.233069658279,1628798188.9358,1628798188.93787,1628798194.47119,1628798194.4731,1628798196.57198,1628798203.39119,1628798203.39255,1628798204.52643,1628798204.52495,1628798781.40674,0
46,4,2,3,2,7,2,c2_WhyHand,1,healthy?,19,H_167.jpg,1628798174.17367,1628798174.17559,12.0021245384216,5.52895259857178,17.5375227832794,19.6383054161072,0.3,27.9080562496185,0.866989850997925,28.7760491275787,1,left,0.852168083190918,28.7750461006165,604.473069658279,607.233069658279,1628798188.9358,1628798188.93787,1628798194.47119,1628798194.4731,1628798196.57198,1628798204.84173,1628798204.84329,1628798205.70972,1628798205.70872,1628798781.40674,1
46,4,2,3,2,8,2,c2_WhyHand,2,healthy?,24,H_019.jpg,1628798174.17367,1628798174.17559,12.0021245384216,5.52895259857178,17.5375227832794,19.6383054161072,0.3,29.0918309593201,0.917008876800537,30.0201730632782,3,right,0.908448934555054,30.0088398361206,604.473069658279,607.233069658279,1628798188.9358,1628798188.93787,1628798194.47119,1628798194.4731,1628798196.57198,1628798206.0255,1628798206.02712,1628798206.95385,1628798206.94251,1628798781.40674,0
46,4,2,3,3,1,1,c1_WhyFace,1,admiring?,4,F_779.jpg,1628798174.17367,1628798174.17559,30.0922038459778,6.54694128036499,36.6446475887299,38.7454309368134,2.1007833480835,38.895487537384,0.86698842048645,39.7710430526733,1,left,0.84479284286499,39.7624759578705,604.473069658279,607.233069658279,1628798207.02588,1628798207.02758,1628798213.57832,1628798213.5885,1628798215.6791,1628798215.82916,1628798215.83774,1628798216.70472,1628798216.69615,1628798781.40674,1
46,4,2,3,3,2,1,c1_WhyFace,1,admiring?,1,F_593.jpg,1628798174.17367,1628798174.17559,30.0922038459778,6.54694128036499,36.6446475887299,38.7454309368134,0.3,40.0792615318298,0.850316524505615,40.9313509368897,1,left,0.828452110290527,40.9295780563355,604.473069658279,607.233069658279,1628798207.02588,1628798207.02758,1628798213.57832,1628798213.5885,1628798215.6791,1628798217.01293,1628798217.01463,1628798217.86502,1628798217.86325,1628798781.40674,1
46,4,2,3,3,3,1,c1_WhyFace,2,admiring?,3,F_110.jpg,1628798174.17367,1628798174.17559,30.0922038459778,6.54694128036499,36.6446475887299,38.7454309368134,0.3,41.2463629150391,0.866990327835083,42.1205921077728,3,right,0.85625696182251,42.1133532428741,604.473069658279,607.233069658279,1628798207.02588,1628798207.02758,1628798213.57832,1628798213.5885,1628798215.6791,1628798218.18003,1628798218.18209,1628798219.05426,1628798219.04703,1628798781.40674,0
46,4,2,3,3,4,1,c1_WhyFace,1,admiring?,8,F_590.jpg,1628798174.17367,1628798174.17559,30.0922038459778,6.54694128036499,36.6446475887299,38.7454309368134,0.3,42.4301388168335,1.05039238929749,43.4868559741974,3,right,1.0338249206543,43.480531206131,604.473069658279,607.233069658279,1628798207.02588,1628798207.02758,1628798213.57832,1628798213.5885,1628798215.6791,1628798219.36381,1628798219.36618,1628798220.42053,1628798220.4142,1628798781.40674,0
46,4,2,3,3,5,1,c1_WhyFace,2,admiring?,6,F_692.jpg,1628798174.17367,1628798174.17559,30.0922038459778,6.54694128036499,36.6446475887299,38.7454309368134,0.3,43.7973146343231,1.00037431716919,44.7990920448303,3,right,0.979542970657349,44.7976889514923,604.473069658279,607.233069658279,1628798207.02588,1628798207.02758,1628798213.57832,1628798213.5885,1628798215.6791,1628798220.73099,1628798220.73262,1628798221.73276,1628798221.73136,1628798781.40674,0
46,4,2,3,3,6,1,c1_WhyFace,1,admiring?,5,F_759.jpg,1628798174.17367,1628798174.17559,30.0922038459778,6.54694128036499,36.6446475887299,38.7454309368134,0.3,45.1144728565216,0.800298929214478,45.9201791191101,1,left,0.7900390625,45.9147717857361,604.473069658279,607.233069658279,1628798207.02588,1628798207.02758,1628798213.57832,1628798213.5885,1628798215.6791,1628798222.04814,1628798222.04972,1628798222.85385,1628798222.84844,1628798781.40674,1
46,4,2,3,3,7,1,c1_WhyFace,1,admiring?,7,F_648.jpg,1628798174.17367,1628798174.17559,30.0922038459778,6.54694128036499,36.6446475887299,38.7454309368134,0.3,46.2315571212769,0.783624649047852,47.0205531024933,1,left,0.77337384223938,47.0151817703247,604.473069658279,607.233069658279,1628798207.02588,1628798207.02758,1628798213.57832,1628798213.5885,1628798215.6791,1628798223.16523,1628798223.16704,1628798223.95423,1628798223.94885,1628798781.40674,1
46,4,2,3,3,8,1,c1_WhyFace,2,admiring?,2,F_129.jpg,1628798174.17367,1628798174.17559,30.0922038459778,6.54694128036499,36.6446475887299,38.7454309368134,0.3,47.3319666290283,0.850317478179932,48.18748711586,3,right,0.842190027236938,48.1822841072083,604.473069658279,607.233069658279,1628798207.02588,1628798207.02758,1628798213.57832,1628798213.5885,1628798215.6791,1628798224.26564,1628798224.26726,1628798225.12116,1628798225.11596,1628798781.40674,0
46,4,2,3,4,1,3,c3_HowFace,1,smiling?,119,F_139.jpg,1628798174.17367,1628798174.17559,48.2656485939026,7.33750748634338,55.6183903121948,57.7191738986969,2.10078358650208,57.8692297840118,0.816970825195312,58.6872019672394,1,left,0.808845996856689,58.6862006092072,604.473069658279,607.233069658279,1628798225.19932,1628798225.20117,1628798232.55206,1628798232.55475,1628798234.65285,1628798234.8029,1628798234.80501,1628798235.62087,1628798235.61987,1628798781.40674,1
46,4,2,3,4,2,3,c3_HowFace,2,smiling?,113,F_712.jpg,1628798174.17367,1628798174.17559,48.2656485939026,7.33750748634338,55.6183903121948,57.7191738986969,0.3,59.0029854679108,0.700261116027832,59.704870929718,3,right,0.678932189941406,59.7032465839386,604.473069658279,607.233069658279,1628798225.19932,1628798225.20117,1628798232.55206,1628798232.55475,1628798234.65285,1628798235.93666,1628798235.93821,1628798236.63854,1628798236.63692,1628798781.40674,0
46,4,2,3,4,3,3,c3_HowFace,1,smiling?,115,F_695.jpg,1628798174.17367,1628798174.17559,48.2656485939026,7.33750748634338,55.6183903121948,57.7191738986969,0.3,60.0200319194794,0.750279903411865,60.7719919586182,1,left,0.735013961791992,60.7703118228912,604.473069658279,607.233069658279,1628798225.19932,1628798225.20117,1628798232.55206,1628798232.55475,1628798234.65285,1628798236.9537,1628798236.95521,1628798237.70566,1628798237.70398,1628798781.40674,1
46,4,2,3,4,4,3,c3_HowFace,2,smiling?,120,F_758.jpg,1628798174.17367,1628798174.17559,48.2656485939026,7.33750748634338,55.6183903121948,57.7191738986969,0.3,61.0870964431763,0.716933965682983,61.8048999214172,3,right,0.706839084625244,61.8040304088593,604.473069658279,607.233069658279,1628798225.19932,1628798225.20117,1628798232.55206,1628798232.55475,1628798234.65285,1628798238.02077,1628798238.02302,1628798238.73857,1628798238.7377,1628798781.40674,0
46,4,2,3,4,5,3,c3_HowFace,1,smiling?,116,F_083.jpg,1628798174.17367,1628798174.17559,48.2656485939026,7.33750748634338,55.6183903121948,57.7191738986969,0.3,62.1208155059814,0.833644390106201,62.9709679985046,1,left,0.825819969177246,62.9544598960876,604.473069658279,607.233069658279,1628798225.19932,1628798225.20117,1628798232.55206,1628798232.55475,1628798234.65285,1628798239.05449,1628798239.05598,1628798239.90464,1628798239.88813,1628798781.40674,1
46,4,2,3,4,6,3,c3_HowFace,1,smiling?,118,F_759.jpg,1628798174.17367,1628798174.17559,48.2656485939026,7.33750748634338,55.6183903121948,57.7191738986969,0.3,63.2712447547913,0.683587789535522,63.95670794487,1,left,0.668434143066406,63.9548325443268,604.473069658279,607.233069658279,1628798225.19932,1628798225.20117,1628798232.55206,1628798232.55475,1628798234.65285,1628798240.20492,1628798240.20663,1628798240.89038,1628798240.8885,1628798781.40674,1
46,4,2,3,4,7,3,c3_HowFace,2,smiling?,114,F_412.jpg,1628798174.17367,1628798174.17559,48.2656485939026,7.33750748634338,55.6183903121948,57.7191738986969,0.3,64.2716166877747,0.683588743209839,64.9566209220886,3,right,0.669718980789185,64.9552054309845,604.473069658279,607.233069658279,1628798225.19932,1628798225.20117,1628798232.55206,1628798232.55475,1628798234.65285,1628798241.20529,1628798241.20709,1628798241.89029,1628798241.88888,1628798781.40674,0
46,4,2,3,4,8,3,c3_HowFace,1,smiling?,117,F_593.jpg,1628798174.17367,1628798174.17559,48.2656485939026,7.33750748634338,55.6183903121948,57.7191738986969,0.3,65.2719905281067,0.883660554885864,66.1567380332947,3,right,0.86176609992981,66.1556510829925,604.473069658279,607.233069658279,1628798225.19932,1628798225.20117,1628798232.55206,1628798232.55475,1628798234.65285,1628798242.20566,1628798242.20724,1628798243.09041,1628798243.08932,1628798781.40674,0
46,4,2,3,5,1,4,c4_HowHand,1,lifting?,56,H_136.jpg,1628798174.17367,1628798174.17559,66.2223441505432,6.9114727973938,73.1415910625458,75.2423758411407,2.10078477859497,75.3924314880371,0.967024803161621,76.3615109825134,1,left,0.934903144836426,76.3594562911987,604.473069658279,607.233069658279,1628798243.15602,1628798243.15873,1628798250.07526,1628798250.08929,1628798252.17605,1628798252.3261,1628798252.33846,1628798253.29518,1628798253.29313,1628798781.40674,1
46,4,2,3,5,2,4,c4_HowHand,2,lifting?,51,H_038.jpg,1628798174.17367,1628798174.17559,66.2223441505432,6.9114727973938,73.1415910625458,75.2423758411407,0.3,76.6762423419952,1.06706547737122,77.7539701366425,3,right,1.05739402770996,77.7433078193664,604.473069658279,607.233069658279,1628798243.15602,1628798243.15873,1628798250.07526,1628798250.08929,1628798252.17605,1628798253.60991,1628798253.61132,1628798254.68764,1628798254.67698,1628798781.40674,0
46,4,2,3,5,3,4,c4_HowHand,1,lifting?,52,H_189.jpg,1628798174.17367,1628798174.17559,66.2223441505432,6.9114727973938,73.1415910625458,75.2423758411407,0.3,78.0600924396515,1.13375616073608,79.2041120433807,3,right,1.12074398994446,79.1938486003876,604.473069658279,607.233069658279,1628798243.15602,1628798243.15873,1628798250.07526,1628798250.08929,1628798252.17605,1628798254.99376,1628798254.99533,1628798256.13778,1628798256.12752,1628798781.40674,0
46,4,2,3,5,4,4,c4_HowHand,2,lifting?,53,H_077.jpg,1628798174.17367,1628798174.17559,66.2223441505432,6.9114727973938,73.1415910625458,75.2423758411407,0.3,79.5106334590912,1.20044732093811,80.7206749820709,1,left,1.19011902809143,80.7110807800293,604.473069658279,607.233069658279,1628798243.15602,1628798243.15873,1628798250.07526,1628798250.08929,1628798252.17605,1628798256.44431,1628798256.44575,1628798257.65435,1628798257.64475,1628798781.40674,0
46,4,2,3,5,5,4,c4_HowHand,1,lifting?,50,H_443.jpg,1628798174.17367,1628798174.17559,66.2223441505432,6.9114727973938,73.1415910625458,75.2423758411407,0.3,81.0278656387329,0.95035457611084,81.9874479675293,1,left,0.939236879348755,81.9782202148437,604.473069658279,607.233069658279,1628798243.15602,1628798243.15873,1628798250.07526,1628798250.08929,1628798252.17605,1628798257.96154,1628798257.96297,1628798258.92112,1628798258.91189,1628798781.40674,1
46,4,2,3,5,6,4,c4_HowHand,2,lifting?,55,H_012.jpg,1628798174.17367,1628798174.17559,66.2223441505432,6.9114727973938,73.1415910625458,75.2423758411407,0.3,82.2950048351288,0.933682203292847,83.2373840713501,3,right,0.921226978302002,83.2286870384216,604.473069658279,607.233069658279,1628798243.15602,1628798243.15873,1628798250.07526,1628798250.08929,1628798252.17605,1628798259.22868,1628798259.23052,1628798260.17106,1628798260.16236,1628798781.40674,0
46,4,2,3,5,7,4,c4_HowHand,1,lifting?,49,H_362.jpg,1628798174.17367,1628798174.17559,66.2223441505432,6.9114727973938,73.1415910625458,75.2423758411407,0.3,83.5454711818695,0.883663654327393,84.4374680423737,1,left,0.874847173690796,84.4291348361969,604.473069658279,607.233069658279,1628798243.15602,1628798243.15873,1628798250.07526,1628798250.08929,1628798252.17605,1628798260.47914,1628798260.48121,1628798261.37114,1628798261.36281,1628798781.40674,1
46,4,2,3,5,8,4,c4_HowHand,1,lifting?,54,H_170.jpg,1628798174.17367,1628798174.17559,66.2223441505432,6.9114727973938,73.1415910625458,75.2423758411407,0.3,84.7459199333191,0.950353622436523,85.7036270999908,1,left,0.938342094421387,85.6962735557556,604.473069658279,607.233069658279,1628798243.15602,1628798243.15873,1628798250.07526,1628798250.08929,1628798252.17605,1628798261.67959,1628798261.6815,1628798262.6373,1628798262.62995,1628798781.40674,1
46,4,2,3,6,1,2,c2_WhyHand,1,helping?,38,H_077.jpg,1628798174.17367,1628798174.17559,85.762965669632,9.85196542739868,95.6333126926422,97.7174236679077,2.0841109752655,97.8841514492035,0.766952276229858,98.6543669605255,1,left,0.751065969467163,98.6511037254333,604.473069658279,607.233069658279,1628798262.69664,1628798262.70404,1628798272.56698,1628798272.56895,1628798274.6511,1628798274.81782,1628798274.81961,1628798275.58804,1628798275.58478,1628798781.40674,1
46,4,2,3,6,2,2,c2_WhyHand,1,helping?,36,H_349.jpg,1628798174.17367,1628798174.17559,85.762965669632,9.85196542739868,95.6333126926422,97.7174236679077,0.3,98.9678895378113,0.816970825195312,99.7867529296875,1,left,0.808774948120117,99.7848603630066,604.473069658279,607.233069658279,1628798262.69664,1628798262.70404,1628798272.56698,1628798272.56895,1628798274.6511,1628798275.90156,1628798275.90455,1628798276.72042,1628798276.71853,1628798781.40674,1
46,4,2,3,6,3,2,c2_WhyHand,1,helping?,37,H_474.jpg,1628798174.17367,1628798174.17559,85.762965669632,9.85196542739868,95.6333126926422,97.7174236679077,0.3,100.101645698547,0.967026948928833,101.070785989761,3,right,0.954754114151001,101.068672647476,604.473069658279,607.233069658279,1628798262.69664,1628798262.70404,1628798272.56698,1628798272.56895,1628798274.6511,1628798277.03532,1628798277.03773,1628798278.00446,1628798278.00234,1628798781.40674,0
46,4,2,3,6,4,2,c2_WhyHand,1,helping?,39,H_024.jpg,1628798174.17367,1628798174.17559,85.762965669632,9.85196542739868,95.6333126926422,97.7174236679077,0.3,101.385457267761,1.31715822219849,102.720203151703,1,left,1.3099148273468,102.70261548996,604.473069658279,607.233069658279,1628798262.69664,1628798262.70404,1628798272.56698,1628798272.56895,1628798274.6511,1628798278.31913,1628798278.32116,1628798279.65388,1628798279.63629,1628798781.40674,1
46,4,2,3,6,5,2,c2_WhyHand,2,helping?,40,H_012.jpg,1628798174.17367,1628798174.17559,85.762965669632,9.85196542739868,95.6333126926422,97.7174236679077,0.3,103.019399871826,1.18377494812012,104.204550018311,3,right,1.16621518135071,104.203174819946,604.473069658279,607.233069658279,1628798262.69664,1628798262.70404,1628798272.56698,1628798272.56895,1628798274.6511,1628798279.95307,1628798279.95453,1628798281.13822,1628798281.13685,1628798781.40674,0
46,4,2,3,6,6,2,c2_WhyHand,2,helping?,35,H_159.jpg,1628798174.17367,1628798174.17559,85.762965669632,9.85196542739868,95.6333126926422,97.7174236679077,0.3,104.519959917068,1.03371834754944,105.554705133438,3,right,1.01294708251953,105.553678264618,604.473069658279,607.233069658279,1628798262.69664,1628798262.70404,1628798272.56698,1628798272.56895,1628798274.6511,1628798281.45363,1628798281.45516,1628798282.48838,1628798282.48735,1628798781.40674,0
46,4,2,3,6,7,2,c2_WhyHand,1,helping?,34,H_111.jpg,1628798174.17367,1628798174.17559,85.762965669632,9.85196542739868,95.6333126926422,97.7174236679077,0.3,105.87046336174,1.11708354949951,106.989221086502,1,left,1.09599494934082,106.98754691124,604.473069658279,607.233069658279,1628798262.69664,1628798262.70404,1628798272.56698,1628798272.56895,1628798274.6511,1628798282.80414,1628798282.80604,1628798283.92289,1628798283.92122,1628798781.40674,1
46,4,2,3,6,8,2,c2_WhyHand,2,helping?,33,H_091.jpg,1628798174.17367,1628798174.17559,85.762965669632,9.85196542739868,95.6333126926422,97.7174236679077,0.3,107.304331531525,1.05039215087891,108.355690946579,3,right,1.04049396514893,108.354723682404,604.473069658279,607.233069658279,1628798262.69664,1628798262.70404,1628798272.56698,1628798272.56895,1628798274.6511,1628798284.238,1628798284.23931,1628798285.28936,1628798285.2884,1628798781.40674,0
46,4,2,3,7,1,1,c1_WhyFace,1,proud?,104,F_598.jpg,1628798174.17367,1628798174.17559,108.421414365768,5.06855463981628,113.506644716263,115.607428779602,2.10078406333923,115.75748418808,0.866989135742188,116.637094011307,1,left,0.858274936676025,116.624473323822,604.473069658279,607.233069658279,1628798285.35509,1628798285.35667,1628798290.44032,1628798290.44215,1628798292.5411,1628798292.69116,1628798292.69411,1628798293.57077,1628798293.55815,1628798781.40674,1
46,4,2,3,7,2,1,c1_WhyFace,2,proud?,102,F_760.jpg,1628798174.17367,1628798174.17559,108.421414365768,5.06855463981628,113.506644716263,115.607428779602,0.3,116.941258897781,1.21712112426758,118.170279016495,1,left,1.21036982536316,118.158380022049,604.473069658279,607.233069658279,1628798285.35509,1628798285.35667,1628798290.44032,1628798290.44215,1628798292.5411,1628798293.87493,1628798293.87647,1628798295.10395,1628798295.09205,1628798781.40674,0
46,4,2,3,7,3,1,c1_WhyFace,1,proud?,97,F_582.jpg,1628798174.17367,1628798174.17559,108.421414365768,5.06855463981628,113.506644716263,115.607428779602,0.3,118.475164403915,1.71730709075928,120.386458148956,1,left,1.88923497200012,120.192471494675,604.473069658279,607.233069658279,1628798285.35509,1628798285.35667,1628798290.44032,1628798290.44215,1628798292.5411,1628798295.40884,1628798295.41053,1628798297.32013,1628798297.12614,1628798781.40674,1
46,4,2,3,7,4,1,c1_WhyFace,2,proud?,98,F_412.jpg,1628798174.17367,1628798174.17559,108.421414365768,5.06855463981628,113.506644716263,115.607428779602,0.3,120.509256353378,1.06706404685974,121.586929073334,3,right,1.05356907844543,121.576320400238,604.473069658279,607.233069658279,1628798285.35509,1628798285.35667,1628798290.44032,1628798290.44215,1628798292.5411,1628798297.44293,1628798297.44454,1628798298.5206,1628798298.50999,1628798781.40674,0
46,4,2,3,7,5,1,c1_WhyFace,1,proud?,101,F_083.jpg,1628798174.17367,1628798174.17559,108.421414365768,5.06855463981628,113.506644716263,115.607428779602,0.3,121.893106212616,1.08373618125916,122.978789081573,1,left,1.06092596054077,122.976842393875,604.473069658279,607.233069658279,1628798285.35509,1628798285.35667,1628798290.44032,1628798290.44215,1628798292.5411,1628798298.82678,1628798298.82867,1628798299.91246,1628798299.91051,1628798781.40674,1
46,4,2,3,7,6,1,c1_WhyFace,2,proud?,100,F_776.jpg,1628798174.17367,1628798174.17559,108.421414365768,5.06855463981628,113.506644716263,115.607428779602,0.3,123.293627490997,1.13375568389893,124.436835041046,3,right,1.12675809860229,124.427383174896,604.473069658279,607.233069658279,1628798285.35509,1628798285.35667,1628798290.44032,1628798290.44215,1628798292.5411,1628798300.2273,1628798300.22914,1628798301.37051,1628798301.36106,1628798781.40674,0
46,4,2,3,7,7,1,c1_WhyFace,1,proud?,103,F_618.jpg,1628798174.17367,1628798174.17559,108.421414365768,5.06855463981628,113.506644716263,115.607428779602,0.3,124.744168748856,0.883663177490234,125.636902084351,1,left,0.870106935501099,125.627831926346,604.473069658279,607.233069658279,1628798285.35509,1628798285.35667,1628798290.44032,1628798290.44215,1628798292.5411,1628798301.67784,1628798301.67973,1628798302.57057,1628798302.5615,1628798781.40674,1
46,4,2,3,7,8,1,c1_WhyFace,1,proud?,99,F_695.jpg,1628798174.17367,1628798174.17559,108.421414365768,5.06855463981628,113.506644716263,115.607428779602,0.3,125.944616069794,0.800298452377319,126.754024972916,1,left,0.792648792266846,126.744914522171,604.473069658279,607.233069658279,1628798285.35509,1628798285.35667,1628798290.44032,1628798290.44215,1628798292.5411,1628798302.87829,1628798302.88035,1628798303.6877,1628798303.67859,1628798781.40674,1
46,4,2,3,8,1,3,c3_HowFace,1,looking to side?,72,F_590.jpg,1628798174.17367,1628798174.17559,126.828280200958,4.19167184829712,131.029846658707,133.130630245209,2.10078358650208,133.280685176849,0.750280857086182,134.037230005264,1,left,0.735388994216919,134.030966033936,604.473069658279,607.233069658279,1628798303.76195,1628798303.76352,1628798307.96352,1628798307.97141,1628798310.0643,1628798310.21436,1628798310.22163,1628798310.9709,1628798310.96464,1628798781.40674,1
46,4,2,3,8,2,3,c3_HowFace,1,looking to side?,71,F_433.jpg,1628798174.17367,1628798174.17559,126.828280200958,4.19167184829712,131.029846658707,133.130630245209,0.3,134.347749700546,0.716934442520142,135.070657958984,1,left,0.701578855514526,135.064684143066,604.473069658279,607.233069658279,1628798303.76195,1628798303.76352,1628798307.96352,1628798307.97141,1628798310.0643,1628798311.28142,1628798311.283,1628798312.00433,1628798311.99836,1628798781.40674,1
46,4,2,3,8,3,3,c3_HowFace,1,looking to side?,67,F_716.jpg,1628798174.17367,1628798174.17559,126.828280200958,4.19167184829712,131.029846658707,133.130630245209,0.3,135.381469240189,0.716932535171509,136.104310979843,1,left,0.706702947616577,136.09840177536,604.473069658279,607.233069658279,1628798303.76195,1628798303.76352,1628798307.96352,1628798307.97141,1628798310.0643,1628798312.31514,1628798312.31703,1628798313.03798,1628798313.03207,1628798781.40674,1
46,4,2,3,8,4,3,c3_HowFace,2,looking to side?,70,F_779.jpg,1628798174.17367,1628798174.17559,126.828280200958,4.19167184829712,131.029846658707,133.130630245209,0.3,136.415187349319,0.967028141021729,137.386831989288,1,left,0.9596848487854,137.382215490341,604.473069658279,607.233069658279,1628798303.76195,1628798303.76352,1628798307.96352,1628798307.97141,1628798310.0643,1628798313.34886,1628798313.35037,1628798314.3205,1628798314.31589,1628798781.40674,0
46,4,2,3,8,5,3,c3_HowFace,1,looking to side?,68,F_760.jpg,1628798174.17367,1628798174.17559,126.828280200958,4.19167184829712,131.029846658707,133.130630245209,0.3,137.698999156952,1.28381204605103,138.984441986084,3,right,1.26078200340271,138.982811203003,604.473069658279,607.233069658279,1628798303.76195,1628798303.76352,1628798307.96352,1628798307.97141,1628798310.0643,1628798314.63267,1628798314.63426,1628798315.91811,1628798315.91648,1628798781.40674,0
46,4,2,3,8,6,3,c3_HowFace,2,looking to side?,66,F_111.jpg,1628798174.17367,1628798174.17559,126.828280200958,4.19167184829712,131.029846658707,133.130630245209,0.3,139.299596776962,0.98369836807251,140.287673940659,3,right,0.972151041030884,140.283295145035,604.473069658279,607.233069658279,1628798303.76195,1628798303.76352,1628798307.96352,1628798307.97141,1628798310.0643,1628798316.23327,1628798316.23777,1628798317.22135,1628798317.21697,1628798781.40674,0
46,4,2,3,8,7,3,c3_HowFace,1,looking to side?,69,F_110.jpg,1628798174.17367,1628798174.17559,126.828280200958,4.19167184829712,131.029846658707,133.130630245209,0.3,140.60008143425,0.933681726455688,141.537251939774,1,left,0.923848867416382,141.533763160706,604.473069658279,607.233069658279,1628798303.76195,1628798303.76352,1628798307.96352,1628798307.97141,1628798310.0643,1628798317.53375,1628798317.53764,1628798318.47092,1628798318.46744,1628798781.40674,1
46,4,2,3,8,8,3,c3_HowFace,2,looking to side?,65,F_798.jpg,1628798174.17367,1628798174.17559,126.828280200958,4.19167184829712,131.029846658707,133.130630245209,0.3,141.850548734665,1.1504282951355,143.003755083084,3,right,1.13427996635437,143.0009770298,604.473069658279,607.233069658279,1628798303.76195,1628798303.76352,1628798307.96352,1628798307.97141,1628798310.0643,1628798318.78422,1628798318.78754,1628798319.93743,1628798319.93465,1628798781.40674,0
46,4,2,3,9,1,1,c1_WhyFace,1,argument?,43,F_716.jpg,1628798174.17367,1628798174.17559,143.067668428421,7.06028461456299,150.136972179413,152.237756242752,2.10078406333923,152.387811412811,0.93368124961853,153.322555055618,1,left,0.913547992706299,153.32149266243,604.473069658279,607.233069658279,1628798320.00134,1628798320.00453,1628798327.07064,1628798327.07258,1628798329.17143,1628798329.32148,1628798329.32318,1628798330.25623,1628798330.25516,1628798781.40674,1
46,4,2,3,9,2,1,c1_WhyFace,2,argument?,44,F_139.jpg,1628798174.17367,1628798174.17559,143.067668428421,7.06028461456299,150.136972179413,152.237756242752,0.3,153.638276567459,0.750280857086182,154.403666963577,3,right,0.742151021957397,154.388557424545,604.473069658279,607.233069658279,1628798320.00134,1628798320.00453,1628798327.07064,1628798327.07258,1628798329.17143,1628798330.57195,1628798330.57342,1628798331.33734,1628798331.32223,1628798781.40674,0
46,4,2,3,9,3,1,c1_WhyFace,1,argument?,41,F_712.jpg,1628798174.17367,1628798174.17559,143.067668428421,7.06028461456299,150.136972179413,152.237756242752,0.3,154.705341329575,0.783626556396484,155.490460147858,1,left,0.772395133972168,155.488967885971,604.473069658279,607.233069658279,1628798320.00134,1628798320.00453,1628798327.07064,1628798327.07258,1628798329.17143,1628798331.63901,1628798331.64075,1628798332.42413,1628798332.42264,1628798781.40674,1
46,4,2,3,9,4,1,c1_WhyFace,2,argument?,45,F_433.jpg,1628798174.17367,1628798174.17559,143.067668428421,7.06028461456299,150.136972179413,152.237756242752,0.3,155.805751552582,0.917009115219116,156.724203100204,3,right,0.89767599105835,156.722760667801,604.473069658279,607.233069658279,1628798320.00134,1628798320.00453,1628798327.07064,1628798327.07258,1628798329.17143,1628798332.73942,1628798332.74131,1628798333.65788,1628798333.65643,1628798781.40674,0
46,4,2,3,9,5,1,c1_WhyFace,1,argument?,42,F_403.jpg,1628798174.17367,1628798174.17559,143.067668428421,7.06028461456299,150.136972179413,152.237756242752,0.3,157.039545526505,0.816970348358154,157.857547988892,1,left,0.795702934265137,157.856515874863,604.473069658279,607.233069658279,1628798320.00134,1628798320.00453,1628798327.07064,1628798327.07258,1628798329.17143,1628798333.97322,1628798333.97476,1628798334.79122,1628798334.79019,1628798781.40674,1
46,4,2,3,9,6,1,c1_WhyFace,2,argument?,46,F_844.jpg,1628798174.17367,1628798174.17559,143.067668428421,7.06028461456299,150.136972179413,152.237756242752,0.3,158.173301687241,0.900335550308228,159.087550153732,3,right,0.889594078063965,159.073637237549,604.473069658279,607.233069658279,1628798320.00134,1628798320.00453,1628798327.07064,1628798327.07258,1628798329.17143,1628798335.10697,1628798335.10918,1628798336.02122,1628798336.00731,1628798781.40674,0
46,4,2,3,9,7,1,c1_WhyFace,1,argument?,47,F_743.jpg,1628798174.17367,1628798174.17559,143.067668428421,7.06028461456299,150.136972179413,152.237756242752,0.3,159.390422334671,0.800297498703003,160.203746070862,1,left,0.789834976196289,160.190719833374,604.473069658279,607.233069658279,1628798320.00134,1628798320.00453,1628798327.07064,1628798327.07258,1628798329.17143,1628798336.32409,1628798336.32545,1628798337.13742,1628798337.12439,1628798781.40674,1
46,4,2,3,9,8,1,c1_WhyFace,1,argument?,48,F_758.jpg,1628798174.17367,1628798174.17559,143.067668428421,7.06028461456299,150.136972179413,152.237756242752,0.3,160.507505407333,0.883662700653076,161.392544021606,1,left,0.871446132659912,161.391168107986,604.473069658279,607.233069658279,1628798320.00134,1628798320.00453,1628798327.07064,1628798327.07258,1628798329.17143,1628798337.44118,1628798337.44279,1628798338.32622,1628798338.32484,1628798781.40674,1
46,4,2,3,10,1,3,c3_HowFace,1,open mouth?,80,F_844.jpg,1628798174.17367,1628798174.17559,161.457859745026,6.51023936271667,167.97695731163,170.077741851807,2.10078454017639,170.227797498703,0.783624887466431,171.020524015427,1,left,0.762743949890137,171.011422386169,604.473069658279,607.233069658279,1628798338.39153,1628798338.39256,1628798344.91063,1628798344.9215,1628798347.01141,1628798347.16147,1628798347.17116,1628798347.9542,1628798347.94509,1628798781.40674,1
46,4,2,3,10,2,3,c3_HowFace,1,open mouth?,74,F_776.jpg,1628798174.17367,1628798174.17559,161.457859745026,6.51023936271667,167.97695731163,170.077741851807,0.3,171.32820772171,0.666914701461792,171.996839036942,1,left,0.64962100982666,171.995122423172,604.473069658279,607.233069658279,1628798338.39153,1628798338.39256,1628798344.91063,1628798344.9215,1628798347.01141,1628798348.26188,1628798348.2633,1628798348.93051,1628798348.92879,1628798781.40674,1
46,4,2,3,10,3,3,c3_HowFace,2,open mouth?,76,F_544.jpg,1628798174.17367,1628798174.17559,161.457859745026,6.51023936271667,167.97695731163,170.077741851807,0.3,172.311907758713,0.816970586776733,173.137036075592,3,right,0.808754920959473,173.12887834549,604.473069658279,607.233069658279,1628798338.39153,1628798338.39256,1628798344.91063,1628798344.9215,1628798347.01141,1628798349.24558,1628798349.24718,1628798350.07071,1628798350.06255,1628798781.40674,0
46,4,2,3,10,4,3,c3_HowFace,1,open mouth?,78,F_692.jpg,1628798174.17367,1628798174.17559,161.457859745026,6.51023936271667,167.97695731163,170.077741851807,0.3,173.44566368103,0.633569955825806,174.080956926346,1,left,0.61528205871582,174.079233636856,604.473069658279,607.233069658279,1628798338.39153,1628798338.39256,1628798344.91063,1628798344.9215,1628798347.01141,1628798350.37934,1628798350.38113,1628798351.01463,1628798351.01291,1628798781.40674,1
46,4,2,3,10,5,3,c3_HowFace,2,open mouth?,77,F_584.jpg,1628798174.17367,1628798174.17559,161.457859745026,6.51023936271667,167.97695731163,170.077741851807,0.3,174.396018733978,0.683588266372681,175.087547054291,3,right,0.674392938613892,175.079607000351,604.473069658279,607.233069658279,1628798338.39153,1628798338.39256,1628798344.91063,1628798344.9215,1628798347.01141,1628798351.32969,1628798351.3316,1628798352.02122,1628798352.01328,1628798781.40674,0
46,4,2,3,10,6,3,c3_HowFace,1,open mouth?,73,F_403.jpg,1628798174.17367,1628798174.17559,161.457859745026,6.51023936271667,167.97695731163,170.077741851807,0.3,175.396391143799,0.616896629333496,176.014332046509,1,left,0.594491958618164,176.013287773132,604.473069658279,607.233069658279,1628798338.39153,1628798338.39256,1628798344.91063,1628798344.9215,1628798347.01141,1628798352.33006,1628798352.33169,1628798352.948,1628798352.94696,1628798781.40674,1
46,4,2,3,10,7,3,c3_HowFace,1,open mouth?,75,F_086.jpg,1628798174.17367,1628798174.17559,161.457859745026,6.51023936271667,167.97695731163,170.077741851807,0.3,176.330072631836,0.716934442520142,177.053545942307,1,left,0.700151205062866,177.047007074356,604.473069658279,607.233069658279,1628798338.39153,1628798338.39256,1628798344.91063,1628798344.9215,1628798347.01141,1628798353.26374,1628798353.26562,1628798353.98722,1628798353.98068,1628798781.40674,1
46,4,2,3,10,8,3,c3_HowFace,2,open mouth?,79,F_648.jpg,1628798174.17367,1628798174.17559,161.457859745026,6.51023936271667,167.97695731163,170.077741851807,0.3,177.363790979385,0.683588981628418,178.053966989517,3,right,0.67120099067688,178.047379961014,604.473069658279,607.233069658279,1628798338.39153,1628798338.39256,1628798344.91063,1628798344.9215,1628798347.01141,1628798354.29746,1628798354.29899,1628798354.98764,1628798354.98105,1628798781.40674,0
46,4,2,3,11,1,4,c4_HowHand,1,pressing button?,88,H_019.jpg,1628798174.17367,1628798174.17559,178.114071121216,7.743891954422,185.866962423325,187.96774553299,2.10078310966492,188.117802848816,0.616895914077759,188.737455120087,1,left,0.595659971237183,188.734698762894,604.473069658279,607.233069658279,1628798355.04774,1628798355.05442,1628798362.80063,1628798362.80471,1628798364.90142,1628798365.05147,1628798365.05466,1628798365.67113,1628798365.66837,1628798781.40674,1
46,4,2,3,11,2,4,c4_HowHand,2,pressing button?,87,H_024.jpg,1628798174.17367,1628798174.17559,178.114071121216,7.743891954422,185.866962423325,187.96774553299,0.3,189.05148314476,0.766952991485596,189.820862045288,3,right,0.752824068069458,189.818436136246,604.473069658279,607.233069658279,1628798355.04774,1628798355.05442,1628798362.80063,1628798362.80471,1628798364.90142,1628798365.98516,1628798365.98791,1628798366.75453,1628798366.75211,1628798781.40674,0
46,4,2,3,11,3,4,c4_HowHand,2,pressing button?,85,H_130.jpg,1628798174.17367,1628798174.17559,178.114071121216,7.743891954422,185.866962423325,187.96774553299,0.3,190.135221471787,0.800297975540161,190.937147130966,3,right,0.781629085540771,190.935519447327,604.473069658279,607.233069658279,1628798355.04774,1628798355.05442,1628798362.80063,1628798362.80471,1628798364.90142,1628798367.06889,1628798367.07103,1628798367.87082,1628798367.86919,1628798781.40674,0
46,4,2,3,11,4,4,c4_HowHand,1,pressing button?,83,H_502.jpg,1628798174.17367,1628798174.17559,178.114071121216,7.743891954422,185.866962423325,187.96774553299,0.3,191.252305021286,0.733606576919556,191.986969938278,1,left,0.712018013000488,191.985911598206,604.473069658279,607.233069658279,1628798355.04774,1628798355.05442,1628798362.80063,1628798362.80471,1628798364.90142,1628798368.18598,1628798368.1877,1628798368.92064,1628798368.91958,1628798781.40674,1
46,4,2,3,11,5,4,c4_HowHand,2,pressing button?,81,H_261.jpg,1628798174.17367,1628798174.17559,178.114071121216,7.743891954422,185.866962423325,187.96774553299,0.3,192.302695741653,0.800298452377319,193.104366054535,3,right,0.778181076049805,193.102994194031,604.473069658279,607.233069658279,1628798355.04774,1628798355.05442,1628798362.80063,1628798362.80471,1628798364.90142,1628798369.23637,1628798369.23804,1628798370.03804,1628798370.03667,1628798781.40674,0
46,4,2,3,11,6,4,c4_HowHand,1,pressing button?,86,H_332.jpg,1628798174.17367,1628798174.17559,178.114071121216,7.743891954422,185.866962423325,187.96774553299,0.3,193.419779291153,0.900336027145386,194.321146001816,1,left,0.879292011260986,194.320115318298,604.473069658279,607.233069658279,1628798355.04774,1628798355.05442,1628798362.80063,1628798362.80471,1628798364.90142,1628798370.35345,1628798370.35502,1628798371.25482,1628798371.25379,1628798781.40674,1
46,4,2,3,11,7,4,c4_HowHand,1,pressing button?,82,H_126.jpg,1628798174.17367,1628798174.17559,178.114071121216,7.743891954422,185.866962423325,187.96774553299,0.3,194.636899938583,0.750279426574707,195.388231029511,1,left,0.733943939208984,195.387179365158,604.473069658279,607.233069658279,1628798355.04774,1628798355.05442,1628798362.80063,1628798362.80471,1628798364.90142,1628798371.57057,1628798371.57214,1628798372.3219,1628798372.32085,1628798781.40674,1
46,4,2,3,11,8,4,c4_HowHand,1,pressing button?,84,H_483.jpg,1628798174.17367,1628798174.17559,178.114071121216,7.743891954422,185.866962423325,187.96774553299,0.3,195.703964700699,0.80029821395874,196.50526594162,1,left,0.780673980712891,196.504262914658,604.473069658279,607.233069658279,1628798355.04774,1628798355.05442,1628798362.80063,1628798362.80471,1628798364.90142,1628798372.63764,1628798372.63951,1628798373.43894,1628798373.43793,1628798781.40674,1
46,4,2,3,12,1,2,c2_WhyHand,1,competing?,9,H_261.jpg,1628798174.17367,1628798174.17559,196.604300727844,7.04360842704773,203.656929721832,205.757713069916,2.1007833480835,205.907769432068,0.716933965682983,206.626390924454,1,left,0.694742918014526,206.624703397751,604.473069658279,607.233069658279,1628798373.53797,1628798373.53952,1628798380.5906,1628798380.5925,1628798382.69139,1628798382.84144,1628798382.84331,1628798383.56006,1628798383.55838,1628798781.40674,1
46,4,2,3,12,2,2,c2_WhyHand,2,competing?,12,H_483.jpg,1628798174.17367,1628798174.17559,196.604300727844,7.04360842704773,203.656929721832,205.757713069916,0.3,206.941487541199,0.750280857086182,207.692845096588,3,right,0.736064910888672,207.691768398285,604.473069658279,607.233069658279,1628798373.53797,1628798373.53952,1628798380.5906,1628798380.5925,1628798382.69139,1628798383.87516,1628798383.87703,1628798384.62652,1628798384.62544,1628798781.40674,0
46,4,2,3,12,3,2,c2_WhyHand,1,competing?,14,H_132.jpg,1628798174.17367,1628798174.17559,196.604300727844,7.04360842704773,203.656929721832,205.757713069916,0.3,208.008553733826,0.65024209022522,208.670820941925,1,left,0.637331008911133,208.658795824051,604.473069658279,607.233069658279,1628798373.53797,1628798373.53952,1628798380.5906,1628798380.5925,1628798382.69139,1628798384.94223,1628798384.94381,1628798385.60449,1628798385.59247,1628798781.40674,1
46,4,2,3,12,4,2,c2_WhyHand,2,competing?,10,H_126.jpg,1628798174.17367,1628798174.17559,196.604300727844,7.04360842704773,203.656929721832,205.757713069916,0.3,208.975580205917,0.750280380249023,209.727437009811,3,right,0.730497121810913,209.725860586166,604.473069658279,607.233069658279,1628798373.53797,1628798373.53952,1628798380.5906,1628798380.5925,1628798382.69139,1628798385.90925,1628798385.91103,1628798386.66111,1628798386.65953,1628798781.40674,0
46,4,2,3,12,5,2,c2_WhyHand,1,competing?,16,H_136.jpg,1628798174.17367,1628798174.17559,196.604300727844,7.04360842704773,203.656929721832,205.757713069916,0.3,210.042645683289,0.750279188156128,210.794414987564,1,left,0.733197927474976,210.792924871445,604.473069658279,607.233069658279,1628798373.53797,1628798373.53952,1628798380.5906,1628798380.5925,1628798382.69139,1628798386.97632,1628798386.97816,1628798387.72809,1628798387.7266,1628798781.40674,1
46,4,2,3,12,6,2,c2_WhyHand,2,competing?,11,H_502.jpg,1628798174.17367,1628798174.17559,196.604300727844,7.04360842704773,203.656929721832,205.757713069916,0.3,211.10970949173,0.850316762924194,211.970697154999,3,right,0.839020967483521,211.960026254654,604.473069658279,607.233069658279,1628798373.53797,1628798373.53952,1628798380.5906,1628798380.5925,1628798382.69139,1628798388.04338,1628798388.04479,1628798388.90437,1628798388.8937,1628798781.40674,0
46,4,2,3,12,7,2,c2_WhyHand,1,competing?,13,H_003.jpg,1628798174.17367,1628798174.17559,196.604300727844,7.04360842704773,203.656929721832,205.757713069916,0.3,212.276811351776,0.766953229904175,213.054299106598,1,left,0.759474992752075,213.04376458168,604.473069658279,607.233069658279,1628798373.53797,1628798373.53952,1628798380.5906,1628798380.5925,1628798382.69139,1628798389.21048,1628798389.21218,1628798389.98797,1628798389.97744,1628798781.40674,1
46,4,2,3,12,8,2,c2_WhyHand,1,competing?,15,H_170.jpg,1628798174.17367,1628798174.17559,196.604300727844,7.04360842704773,203.656929721832,205.757713069916,0.3,213.360549678802,0.733606576919556,214.095924129486,1,left,0.713885068893433,214.094156255722,604.473069658279,607.233069658279,1628798373.53797,1628798373.53952,1628798380.5906,1628798380.5925,1628798382.69139,1628798390.29422,1628798390.29578,1628798391.0296,1628798391.02783,1628798781.40674,1
46,4,2,3,13,1,1,c1_WhyFace,1,self-doubt?,29,F_544.jpg,1628798174.17367,1628798174.17559,214.160847654343,7.55701732635498,221.730336894989,223.831120481491,2.10078358650208,223.981176366806,0.816971778869629,224.804334154129,1,left,0.798595905303955,224.798148145676,604.473069658279,607.233069658279,1628798391.09452,1628798391.10452,1628798398.66401,1628798398.67123,1628798400.76479,1628798400.91485,1628798400.92198,1628798401.73801,1628798401.73182,1628798781.40674,1
46,4,2,3,13,2,1,c1_WhyFace,2,self-doubt?,27,F_086.jpg,1628798174.17367,1628798174.17559,214.160847654343,7.55701732635498,221.730336894989,223.831120481491,0.3,225.114932527542,0.900335550308228,226.020216932297,3,right,0.884091138839722,226.01526807785,604.473069658279,607.233069658279,1628798391.09452,1628798391.10452,1628798398.66401,1628798398.67123,1628798400.76479,1628798402.0486,1628798402.0502,1628798402.95389,1628798402.94894,1628798781.40674,0
46,4,2,3,13,3,1,c1_WhyFace,1,self-doubt?,25,F_798.jpg,1628798174.17367,1628798174.17559,214.160847654343,7.55701732635498,221.730336894989,223.831120481491,0.3,226.332052459717,0.716934680938721,227.054013004303,1,left,0.697319030761719,227.048987140656,604.473069658279,607.233069658279,1628798391.09452,1628798391.10452,1628798398.66401,1628798398.67123,1628798400.76479,1628798403.26572,1628798403.26747,1628798403.98768,1628798403.98266,1628798781.40674,1
46,4,2,3,13,4,1,c1_WhyFace,1,self-doubt?,26,F_111.jpg,1628798174.17367,1628798174.17559,214.160847654343,7.55701732635498,221.730336894989,223.831120481491,0.3,227.365771999359,0.683588743209839,228.051131954193,1,left,0.660099029541016,228.049360742569,604.473069658279,607.233069658279,1628798391.09452,1628798391.10452,1628798398.66401,1628798398.67123,1628798400.76479,1628798404.29944,1628798404.30126,1628798404.9848,1628798404.98303,1628798781.40674,1
46,4,2,3,13,5,1,c1_WhyFace,2,self-doubt?,31,F_774.jpg,1628798174.17367,1628798174.17559,214.160847654343,7.55701732635498,221.730336894989,223.831120481491,0.3,228.366144647598,0.733606815338135,229.103529920578,3,right,0.719999074935913,229.099751462936,604.473069658279,607.233069658279,1628798391.09452,1628798391.10452,1628798398.66401,1628798398.67123,1628798400.76479,1628798405.29982,1628798405.30441,1628798406.0372,1628798406.03342,1628798781.40674,0
46,4,2,3,13,6,1,c1_WhyFace,1,self-doubt?,28,F_754.jpg,1628798174.17367,1628798174.17559,214.160847654343,7.55701732635498,221.730336894989,223.831120481491,0.3,229.416536560059,0.733607053756714,230.153766145706,1,left,0.717647075653076,230.150143613815,604.473069658279,607.233069658279,1628798391.09452,1628798391.10452,1628798398.66401,1628798398.67123,1628798400.76479,1628798406.35021,1628798406.35433,1628798407.08744,1628798407.08382,1628798781.40674,1
46,4,2,3,13,7,1,c1_WhyFace,2,self-doubt?,32,F_128.jpg,1628798174.17367,1628798174.17559,214.160847654343,7.55701732635498,221.730336894989,223.831120481491,0.3,230.4669282341,0.983700037002563,231.453984966278,3,right,0.969817876815796,231.450628271103,604.473069658279,607.233069658279,1628798391.09452,1628798391.10452,1628798398.66401,1628798398.67123,1628798400.76479,1628798407.4006,1628798407.4043,1628798408.38766,1628798408.3843,1628798781.40674,0
46,4,2,3,13,8,1,c1_WhyFace,1,self-doubt?,30,F_584.jpg,1628798174.17367,1628798174.17559,214.160847654343,7.55701732635498,221.730336894989,223.831120481491,0.3,231.767412891388,0.900336980819702,232.670853128433,1,left,0.877958059310913,232.667749872208,604.473069658279,607.233069658279,1628798391.09452,1628798391.10452,1628798398.66401,1628798398.67123,1628798400.76479,1628798408.70108,1628798408.70454,1628798409.60453,1628798409.60142,1628798781.40674,1
46,4,2,3,14,1,3,c3_HowFace,1,looking at camera?,64,F_128.jpg,1628798174.17367,1628798174.17559,232.734440793991,8.03752613067627,240.787443389893,242.888226261139,2.10078287124634,243.038283576965,0.716933488845825,243.756680002213,1,left,0.706891059875488,243.755217065811,604.473069658279,607.233069658279,1628798409.66811,1628798409.67045,1628798417.72112,1628798417.72304,1628798419.8219,1628798419.97196,1628798419.97381,1628798420.69035,1628798420.68889,1628798781.40674,1
46,4,2,3,14,2,3,c3_HowFace,1,looking at camera?,60,F_618.jpg,1628798174.17367,1628798174.17559,232.734440793991,8.03752613067627,240.787443389893,242.888226261139,0.3,244.072002639771,0.633569002151489,244.707185020447,1,left,0.617379903793335,244.705571641922,604.473069658279,607.233069658279,1628798409.66811,1628798409.67045,1628798417.72112,1628798417.72304,1628798419.8219,1628798421.00567,1628798421.00777,1628798421.64086,1628798421.63924,1628798781.40674,1
46,4,2,3,14,3,3,c3_HowFace,1,looking at camera?,62,F_598.jpg,1628798174.17367,1628798174.17559,232.734440793991,8.03752613067627,240.787443389893,242.888226261139,0.3,245.022356739044,0.616895914077759,245.640980949402,1,left,0.591842174530029,245.639252653122,604.473069658279,607.233069658279,1628798409.66811,1628798409.67045,1628798417.72112,1628798417.72304,1628798419.8219,1628798421.95603,1628798421.95805,1628798422.57465,1628798422.57292,1628798781.40674,1
46,4,2,3,14,4,3,c3_HowFace,2,looking at camera?,63,F_743.jpg,1628798174.17367,1628798174.17559,232.734440793991,8.03752613067627,240.787443389893,242.888226261139,0.3,245.956037750244,0.650242567062378,246.607355108261,3,right,0.638052225112915,246.606280317307,604.473069658279,607.233069658279,1628798409.66811,1628798409.67045,1628798417.72112,1628798417.72304,1628798419.8219,1628798422.88971,1628798422.89159,1628798423.54103,1628798423.53995,1628798781.40674,0
46,4,2,3,14,5,3,c3_HowFace,1,looking at camera?,61,F_774.jpg,1628798174.17367,1628798174.17559,232.734440793991,8.03752613067627,240.787443389893,242.888226261139,0.3,246.923065891266,0.650240182876587,247.587507953644,1,left,0.641762971878052,247.573306074142,604.473069658279,607.233069658279,1628798409.66811,1628798409.67045,1628798417.72112,1628798417.72304,1628798419.8219,1628798423.85674,1628798423.85834,1628798424.52118,1628798424.50698,1628798781.40674,1
46,4,2,3,14,6,3,c3_HowFace,2,looking at camera?,57,F_582.jpg,1628798174.17367,1628798174.17559,232.734440793991,8.03752613067627,240.787443389893,242.888226261139,0.3,247.890092601776,0.733607292175293,248.625468959808,1,left,0.714476108551025,248.623699893951,604.473069658279,607.233069658279,1628798409.66811,1628798409.67045,1628798417.72112,1628798417.72304,1628798419.8219,1628798424.82376,1628798424.82556,1628798425.55914,1628798425.55737,1628798781.40674,0
46,4,2,3,14,7,3,c3_HowFace,2,looking at camera?,58,F_754.jpg,1628798174.17367,1628798174.17559,232.734440793991,8.03752613067627,240.787443389893,242.888226261139,0.3,248.940483560562,0.750280857086182,249.6925411129,3,right,0.732676982879639,249.690764417648,604.473069658279,607.233069658279,1628798409.66811,1628798409.67045,1628798417.72112,1628798417.72304,1628798419.8219,1628798425.87416,1628798425.87579,1628798426.62621,1628798426.62444,1628798781.40674,0
46,4,2,3,14,8,3,c3_HowFace,1,looking at camera?,59,F_129.jpg,1628798174.17367,1628798174.17559,232.734440793991,8.03752613067627,240.787443389893,242.888226261139,0.3,250.007548561096,0.716934442520142,250.72628115654,1,left,0.695147037506104,250.724483003616,604.473069658279,607.233069658279,1628798409.66811,1628798409.67045,1628798417.72112,1628798417.72304,1628798419.8219,1628798426.94122,1628798426.94302,1628798427.65995,1628798427.65815,1628798781.40674,1
46,4,2,3,15,1,4,c4_HowHand,1,both hands?,123,H_167.jpg,1628798174.17367,1628798174.17559,250.791174402237,8.77073955535889,259.577784767151,261.678566923141,2.1007821559906,261.828624000549,0.983700275421143,262.82026599884,1,left,0.972941160202026,262.81232427597,604.473069658279,607.233069658279,1628798427.72485,1628798427.7378,1628798436.51146,1628798436.51316,1628798438.61224,1628798438.7623,1628798438.76371,1628798439.75394,1628798439.746,1628798781.40674,1
46,4,2,3,15,2,4,c4_HowHand,2,both hands?,121,H_091.jpg,1628798174.17367,1628798174.17559,250.791174402237,8.77073955535889,259.577784767151,261.678566923141,0.3,263.129108181,0.850317239761353,263.987673034668,3,right,0.838611125946045,263.979425420761,604.473069658279,607.233069658279,1628798427.72485,1628798427.7378,1628798436.51146,1628798436.51316,1628798438.61224,1628798440.06278,1628798440.06443,1628798440.92134,1628798440.9131,1628798781.40674,0
46,4,2,3,15,3,4,c4_HowHand,2,both hands?,125,H_627.jpg,1628798174.17367,1628798174.17559,250.791174402237,8.77073955535889,259.577784767151,261.678566923141,0.3,264.296210756302,1.15042877197266,265.448156108856,3,right,1.12932395935059,265.446639528275,604.473069658279,607.233069658279,1628798427.72485,1628798427.7378,1628798436.51146,1628798436.51316,1628798438.61224,1628798441.22988,1628798441.23165,1628798442.38183,1628798442.38031,1628798781.40674,0
46,4,2,3,15,4,4,c4_HowHand,1,both hands?,128,H_027.jpg,1628798174.17367,1628798174.17559,250.791174402237,8.77073955535889,259.577784767151,261.678566923141,0.3,265.763424625397,0.933681964874268,266.70394610405,1,left,0.91919994354248,266.697106590271,604.473069658279,607.233069658279,1628798427.72485,1628798427.7378,1628798436.51146,1628798436.51316,1628798438.61224,1628798442.6971,1628798442.69872,1628798443.63762,1628798443.63078,1628798781.40674,1
46,4,2,3,15,5,4,c4_HowHand,1,both hands?,122,H_111.jpg,1628798174.17367,1628798174.17559,250.791174402237,8.77073955535889,259.577784767151,261.678566923141,0.3,267.013890256882,0.816971778869629,267.836876144409,1,left,0.809098958969116,267.830862035751,604.473069658279,607.233069658279,1628798427.72485,1628798427.7378,1628798436.51146,1628798436.51316,1628798438.61224,1628798443.94756,1628798443.94934,1628798444.77055,1628798444.76453,1628798781.40674,1
46,4,2,3,15,6,4,c4_HowHand,2,both hands?,126,H_159.jpg,1628798174.17367,1628798174.17559,250.791174402237,8.77073955535889,259.577784767151,261.678566923141,0.3,268.147647371292,1.05039072036743,269.203591098785,3,right,1.03242492675781,269.19803809166,604.473069658279,607.233069658279,1628798427.72485,1628798427.7378,1628798436.51146,1628798436.51316,1628798438.61224,1628798445.08132,1628798445.08311,1628798446.13726,1628798446.13171,1628798781.40674,0
46,4,2,3,15,7,4,c4_HowHand,1,both hands?,124,H_581.jpg,1628798174.17367,1628798174.17559,250.791174402237,8.77073955535889,259.577784767151,261.678566923141,0.3,269.514823188782,1.0170464515686,270.536874046326,1,left,0.998338937759399,270.53186964035,604.473069658279,607.233069658279,1628798427.72485,1628798427.7378,1628798436.51146,1628798436.51316,1628798438.61224,1628798446.4485,1628798446.45004,1628798447.47055,1628798447.46554,1628798781.40674,1
46,4,2,3,15,8,4,c4_HowHand,1,both hands?,127,H_349.jpg,1628798174.17367,1628798174.17559,250.791174402237,8.77073955535889,259.577784767151,261.678566923141,0.3,270.848654260635,0.733607292175293,271.587633123398,1,left,0.719773054122925,271.582261552811,604.473069658279,607.233069658279,1628798427.72485,1628798427.7378,1628798436.51146,1628798436.51316,1628798438.61224,1628798447.78233,1628798447.78402,1628798448.52131,1628798448.51593,1628798781.40674,1
46,4,2,3,16,1,2,c2_WhyHand,1,self-protection?,89,H_443.jpg,1628798174.17367,1628798174.17559,271.648952951431,6.7030041217804,278.368125667572,280.468908777237,2.10078310966492,280.61896490097,0.716932773590088,281.336974134445,1,left,0.696840047836304,281.335897674561,604.473069658279,607.233069658279,1628798448.58262,1628798448.58711,1628798455.3018,1628798455.3045,1628798457.40258,1628798457.55264,1628798457.55442,1628798458.27065,1628798458.26957,1628798781.40674,1
46,4,2,3,16,2,2,c2_WhyHand,2,self-protection?,90,H_006.jpg,1628798174.17367,1628798174.17559,271.648952951431,6.7030041217804,278.368125667572,280.468908777237,0.3,281.652683725357,0.833643436431885,282.487364044189,3,right,0.825814008712769,282.486327161789,604.473069658279,607.233069658279,1628798448.58262,1628798448.58711,1628798455.3018,1628798455.3045,1628798457.40258,1628798458.58636,1628798458.58804,1628798459.42104,1628798459.42,1628798781.40674,0
46,4,2,3,16,3,2,c2_WhyHand,1,self-protection?,91,H_581.jpg,1628798174.17367,1628798174.17559,271.648952951431,6.7030041217804,278.368125667572,280.468908777237,0.3,282.803112735748,0.783626317977905,283.587769021988,1,left,0.771622180938721,283.586739053726,604.473069658279,607.233069658279,1628798448.58262,1628798448.58711,1628798455.3018,1628798455.3045,1628798457.40258,1628798459.73678,1628798459.73828,1628798460.52144,1628798460.52041,1628798781.40674,1
46,4,2,3,16,4,2,c2_WhyHand,2,self-protection?,92,H_532.jpg,1628798174.17367,1628798174.17559,271.648952951431,6.7030041217804,278.368125667572,280.468908777237,0.3,283.903522958756,0.783625364303589,284.688147058487,3,right,0.766835927963257,284.687148323059,604.473069658279,607.233069658279,1628798448.58262,1628798448.58711,1628798455.3018,1628798455.3045,1628798457.40258,1628798460.83719,1628798460.83868,1628798461.62182,1628798461.62082,1628798781.40674,0
46,4,2,3,16,5,2,c2_WhyHand,1,self-protection?,96,H_027.jpg,1628798174.17367,1628798174.17559,271.648952951431,6.7030041217804,278.368125667572,280.468908777237,0.3,285.003932228088,0.917009115219116,285.922723999023,1,left,0.895802021026611,285.920941343308,604.473069658279,607.233069658279,1628798448.58262,1628798448.58711,1628798455.3018,1628798455.3045,1628798457.40258,1628798461.9376,1628798461.93935,1628798462.8564,1628798462.85461,1628798781.40674,1
46,4,2,3,16,6,2,c2_WhyHand,1,self-protection?,93,H_038.jpg,1628798174.17367,1628798174.17559,271.648952951431,6.7030041217804,278.368125667572,280.468908777237,0.3,286.237726678848,1.13375616073608,287.373235931396,3,right,1.115483045578,287.371482839584,604.473069658279,607.233069658279,1628798448.58262,1628798448.58711,1628798455.3018,1628798455.3045,1628798457.40258,1628798463.1714,1628798463.1731,1628798464.30691,1628798464.30515,1628798781.40674,0
46,4,2,3,16,7,2,c2_WhyHand,2,self-protection?,95,H_332.jpg,1628798174.17367,1628798174.17559,271.648952951431,6.7030041217804,278.368125667572,280.468908777237,0.3,287.688268413544,1.1837739944458,288.873145093918,3,right,1.16677403450012,288.87204240799,604.473069658279,607.233069658279,1628798448.58262,1628798448.58711,1628798455.3018,1628798455.3045,1628798457.40258,1628798464.62194,1628798464.62337,1628798465.80682,1628798465.80571,1628798781.40674,0
46,4,2,3,16,8,2,c2_WhyHand,1,self-protection?,94,H_189.jpg,1628798174.17367,1628798174.17559,271.648952951431,6.7030041217804,278.368125667572,280.468908777237,0.3,289.188827266693,1.13375544548035,290.323719968796,1,left,1.11912202835083,290.322582712173,604.473069658279,607.233069658279,1628798448.58262,1628798448.58711,1628798455.3018,1628798455.3045,1628798457.40258,1628798466.1225,1628798466.12413,1628798467.25739,1628798467.25625,1628798781.40674,1
46,4,2,3,17,1,3,c3_HowFace,1,smiling?,118,F_759.jpg,1628798174.17367,1628798174.17559,290.389274587631,9.442631483078,299.842800607681,301.943583478928,2.10078287124634,302.093639602661,0.733606815338135,302.836876144409,1,left,0.72405481338501,302.827246417999,604.473069658279,607.233069658279,1628798467.32295,1628798467.33777,1628798476.77647,1628798476.7781,1628798478.87726,1628798479.02731,1628798479.02922,1628798479.77055,1628798479.76092,1628798781.40674,1
46,4,2,3,17,2,3,c3_HowFace,2,smiling?,114,F_412.jpg,1628798174.17367,1628798174.17559,290.389274587631,9.442631483078,299.842800607681,301.943583478928,0.3,303.144031515121,0.683588266372681,303.82909702301,3,right,0.663928031921387,303.827619781494,604.473069658279,607.233069658279,1628798467.32295,1628798467.33777,1628798476.77647,1628798476.7781,1628798478.87726,1628798480.0777,1628798480.07951,1628798480.76277,1628798480.76129,1628798781.40674,0
46,4,2,3,17,3,3,c3_HowFace,1,smiling?,117,F_593.jpg,1628798174.17367,1628798174.17559,290.389274587631,9.442631483078,299.842800607681,301.943583478928,0.3,304.144404401779,0.666914939880371,304.820834150314,1,left,0.657519102096558,304.81131934166,604.473069658279,607.233069658279,1628798467.32295,1628798467.33777,1628798476.77647,1628798476.7781,1628798478.87726,1628798481.07808,1628798481.07961,1628798481.75451,1628798481.74499,1628798781.40674,1
46,4,2,3,17,4,3,c3_HowFace,2,smiling?,113,F_712.jpg,1628798174.17367,1628798174.17559,290.389274587631,9.442631483078,299.842800607681,301.943583478928,0.3,305.128104438782,0.833643674850464,305.963413944244,3,right,0.817007064819336,305.961748113632,604.473069658279,607.233069658279,1628798467.32295,1628798467.33777,1628798476.77647,1628798476.7781,1628798478.87726,1628798482.06178,1628798482.06412,1628798482.89709,1628798482.89542,1628798781.40674,0
46,4,2,3,17,5,3,c3_HowFace,1,smiling?,115,F_695.jpg,1628798174.17367,1628798174.17559,290.389274587631,9.442631483078,299.842800607681,301.943583478928,0.3,306.278533210754,0.683588266372681,306.963206043243,1,left,0.666139125823975,306.962121477127,604.473069658279,607.233069658279,1628798467.32295,1628798467.33777,1628798476.77647,1628798476.7781,1628798478.87726,1628798483.21221,1628798483.21351,1628798483.89688,1628798483.89579,1628798781.40674,1
46,4,2,3,17,6,3,c3_HowFace,1,smiling?,119,F_139.jpg,1628798174.17367,1628798174.17559,290.389274587631,9.442631483078,299.842800607681,301.943583478928,0.3,307.278905858994,0.650243043899536,307.930614938736,1,left,0.631038188934326,307.929148902893,604.473069658279,607.233069658279,1628798467.32295,1628798467.33777,1628798476.77647,1628798476.7781,1628798478.87726,1628798484.21258,1628798484.21438,1628798484.86429,1628798484.86282,1628798781.40674,1
46,4,2,3,17,7,3,c3_HowFace,1,smiling?,116,F_083.jpg,1628798174.17367,1628798174.17559,290.389274587631,9.442631483078,299.842800607681,301.943583478928,0.3,308.245934476852,0.583550214767456,308.837250938416,1,left,0.572832107543945,308.82948469162,604.473069658279,607.233069658279,1628798467.32295,1628798467.33777,1628798476.77647,1628798476.7781,1628798478.87726,1628798485.17961,1628798485.18141,1628798485.77092,1628798485.76316,1628798781.40674,1
46,4,2,3,17,8,3,c3_HowFace,2,smiling?,120,F_758.jpg,1628798174.17367,1628798174.17559,290.389274587631,9.442631483078,299.842800607681,301.943583478928,0.3,309.146269073486,0.666915893554688,309.820831050873,3,right,0.659879922866821,309.813184967041,604.473069658279,607.233069658279,1628798467.32295,1628798467.33777,1628798476.77647,1628798476.7781,1628798478.87726,1628798486.07994,1628798486.08169,1628798486.7545,1628798486.74686,1628798781.40674,0
46,4,2,3,18,1,1,c1_WhyFace,1,admiring?,1,F_593.jpg,1628798174.17367,1628798174.17559,309.896549930573,7.72541809082031,317.632767906189,319.73355173111,2.10078382492065,319.883608093262,0.750279426574707,320.637567033768,1,left,0.726444959640503,320.633887519836,604.473069658279,607.233069658279,1628798486.83022,1628798486.83782,1628798494.56644,1628798494.57112,1628798496.66722,1628798496.81728,1628798496.82152,1628798497.57124,1628798497.56756,1628798781.40674,1
46,4,2,3,18,2,1,c1_WhyFace,2,admiring?,2,F_129.jpg,1628798174.17367,1628798174.17559,309.896549930573,7.72541809082031,317.632767906189,319.73355173111,0.3,320.950671901703,0.750279664993286,321.703878154755,1,left,0.72872519493103,321.700951566696,604.473069658279,607.233069658279,1628798486.83022,1628798486.83782,1628798494.56644,1628798494.57112,1628798496.66722,1628798497.88434,1628798497.88776,1628798498.63755,1628798498.63462,1628798781.40674,0
46,4,2,3,18,3,1,c1_WhyFace,1,admiring?,5,F_759.jpg,1628798174.17367,1628798174.17559,309.896549930573,7.72541809082031,317.632767906189,319.73355173111,0.3,322.0177364254,0.750279664993286,322.77023314476,1,left,0.733435869216919,322.768016090393,604.473069658279,607.233069658279,1628798486.83022,1628798486.83782,1628798494.56644,1628798494.57112,1628798496.66722,1628798498.95141,1628798498.95466,1628798499.70391,1628798499.70169,1628798781.40674,1
46,4,2,3,18,4,1,c1_WhyFace,2,admiring?,6,F_692.jpg,1628798174.17367,1628798174.17559,309.896549930573,7.72541809082031,317.632767906189,319.73355173111,0.3,323.084800233841,0.750280380249023,323.837007989883,3,right,0.728754997253418,323.83508061409,604.473069658279,607.233069658279,1628798486.83022,1628798486.83782,1628798494.56644,1628798494.57112,1628798496.66722,1628798500.01847,1628798500.021,1628798500.77068,1628798500.76875,1628798781.40674,0
46,4,2,3,18,5,1,c1_WhyFace,1,admiring?,4,F_779.jpg,1628798174.17367,1628798174.17559,309.896549930573,7.72541809082031,317.632767906189,319.73355173111,0.3,324.151865711212,1.03371906280518,325.187063922882,1,left,1.0158679485321,325.185584774017,604.473069658279,607.233069658279,1628798486.83022,1628798486.83782,1628798494.56644,1628798494.57112,1628798496.66722,1628798501.08554,1628798501.08774,1628798502.12074,1628798502.11926,1628798781.40674,1
46,4,2,3,18,6,1,c1_WhyFace,1,admiring?,8,F_590.jpg,1628798174.17367,1628798174.17559,309.896549930573,7.72541809082031,317.632767906189,319.73355173111,0.3,325.502369394302,0.900335073471069,326.404375066757,1,left,0.88547420501709,326.402704467773,604.473069658279,607.233069658279,1628798486.83022,1628798486.83782,1628798494.56644,1628798494.57112,1628798496.66722,1628798502.43604,1628798502.43768,1628798503.33805,1628798503.33638,1628798781.40674,1
46,4,2,3,18,7,1,c1_WhyFace,1,admiring?,7,F_648.jpg,1628798174.17367,1628798174.17559,309.896549930573,7.72541809082031,317.632767906189,319.73355173111,0.3,326.719489564896,0.850317001342773,327.571573009491,1,left,0.837849855422974,327.569806566238,604.473069658279,607.233069658279,1628798486.83022,1628798486.83782,1628798494.56644,1628798494.57112,1628798496.66722,1628798503.65316,1628798503.65474,1628798504.50524,1628798504.50348,1628798781.40674,1
46,4,2,3,18,8,1,c1_WhyFace,2,admiring?,3,F_110.jpg,1628798174.17367,1628798174.17559,309.896549930573,7.72541809082031,317.632767906189,319.73355173111,0.3,327.886591186523,0.833644151687622,328.721287002563,3,right,0.81203293800354,328.720235338211,604.473069658279,607.233069658279,1628798486.83022,1628798486.83782,1628798494.56644,1628798494.57112,1628798496.66722,1628798504.82026,1628798504.82207,1628798505.65496,1628798505.65391,1628798781.40674,0
46,4,2,3,19,1,2,c2_WhyHand,1,competing?,9,H_261.jpg,1628798174.17367,1628798174.17559,328.786927452087,6.72496557235718,335.522773017883,337.623556365967,2.1007833480835,337.773612966537,0.61689567565918,338.391976108551,1,left,0.592424869537354,338.390508642197,604.473069658279,607.233069658279,1628798505.7206,1628798505.72211,1628798512.45644,1628798512.45819,1628798514.55723,1628798514.70728,1628798514.7091,1628798515.32565,1628798515.32418,1628798781.40674,1
46,4,2,3,19,2,2,c2_WhyHand,1,competing?,15,H_170.jpg,1628798174.17367,1628798174.17559,328.786927452087,6.72496557235718,335.522773017883,337.623556365967,0.3,338.707293262482,0.633569955825806,339.342324008942,1,left,0.614058017730713,339.340863218308,604.473069658279,607.233069658279,1628798505.7206,1628798505.72211,1628798512.45644,1628798512.45819,1628798514.55723,1628798515.64097,1628798515.64252,1628798516.276,1628798516.27454,1628798781.40674,1
46,4,2,3,19,3,2,c2_WhyHand,2,competing?,12,H_483.jpg,1628798174.17367,1628798174.17559,328.786927452087,6.72496557235718,335.522773017883,337.623556365967,0.3,339.657648553848,0.716933012008667,340.376171102524,3,right,0.701630115509033,340.374581565857,604.473069658279,607.233069658279,1628798505.7206,1628798505.72211,1628798512.45644,1628798512.45819,1628798514.55723,1628798516.59132,1628798516.5929,1628798517.30984,1628798517.30825,1628798781.40674,0
46,4,2,3,19,4,2,c2_WhyHand,1,competing?,14,H_132.jpg,1628798174.17367,1628798174.17559,328.786927452087,6.72496557235718,335.522773017883,337.623556365967,0.3,340.691366901398,0.650242805480957,341.343320121765,1,left,0.627563953399658,341.341609706879,604.473069658279,607.233069658279,1628798505.7206,1628798505.72211,1628798512.45644,1628798512.45819,1628798514.55723,1628798517.62504,1628798517.62674,1628798518.27699,1628798518.27528,1628798781.40674,1
46,4,2,3,19,5,2,c2_WhyHand,1,competing?,16,H_136.jpg,1628798174.17367,1628798174.17559,328.786927452087,6.72496557235718,335.522773017883,337.623556365967,0.3,341.658393611908,0.850317716598511,342.520889987946,1,left,0.843022108078003,342.508711328506,604.473069658279,607.233069658279,1628798505.7206,1628798505.72211,1628798512.45644,1628798512.45819,1628798514.55723,1628798518.59207,1628798518.59372,1628798519.45456,1628798519.44238,1628798781.40674,1
46,4,2,3,19,6,2,c2_WhyHand,1,competing?,13,H_003.jpg,1628798174.17367,1628798174.17559,328.786927452087,6.72496557235718,335.522773017883,337.623556365967,0.3,342.825495710373,0.68358850479126,343.510151138306,1,left,0.663393020629883,343.509084215164,604.473069658279,607.233069658279,1628798505.7206,1628798505.72211,1628798512.45644,1628798512.45819,1628798514.55723,1628798519.75917,1628798519.7614,1628798520.44382,1628798520.44276,1628798781.40674,1
46,4,2,3,19,7,2,c2_WhyHand,2,competing?,10,H_126.jpg,1628798174.17367,1628798174.17559,328.786927452087,6.72496557235718,335.522773017883,337.623556365967,0.3,343.825869073868,0.683588266372681,344.510498991013,3,right,0.666881084442139,344.50945734024,604.473069658279,607.233069658279,1628798505.7206,1628798505.72211,1628798512.45644,1628798512.45819,1628798514.55723,1628798520.75954,1628798520.7612,1628798521.44417,1628798521.44313,1628798781.40674,0
46,4,2,3,19,8,2,c2_WhyHand,2,competing?,11,H_502.jpg,1628798174.17367,1628798174.17559,328.786927452087,6.72496557235718,335.522773017883,337.623556365967,0.3,344.826241960526,0.616896390914917,345.444152107239,3,right,0.599122047424316,345.44313835144,604.473069658279,607.233069658279,1628798505.7206,1628798505.72211,1628798512.45644,1628798512.45819,1628798514.55723,1628798521.75991,1628798521.76173,1628798522.37782,1628798522.37681,1628798781.40674,0
46,4,2,3,20,1,4,c4_HowHand,1,reaching?,111,H_003.jpg,1628798174.17367,1628798174.17559,345.526503314972,11.4653866291046,356.997447957993,359.098231544495,2.10078358650208,359.248286476135,0.733608245849609,359.987648954391,1,left,0.717506170272827,359.981894721985,604.473069658279,607.233069658279,1628798522.46018,1628798522.46154,1628798533.93112,1628798533.9381,1628798536.0319,1628798536.18196,1628798536.18818,1628798536.92132,1628798536.91557,1628798781.40674,1
46,4,2,3,20,2,4,c4_HowHand,1,reaching?,110,H_364.jpg,1628798174.17367,1628798174.17559,345.526503314972,11.4653866291046,356.997447957993,359.098231544495,0.3,360.298678150177,0.716935873031616,361.017151107788,1,left,0.696175813674927,361.015614023209,604.473069658279,607.233069658279,1628798522.46018,1628798522.46154,1628798533.93112,1628798533.9381,1628798536.0319,1628798537.23235,1628798537.23389,1628798537.95082,1628798537.94929,1628798781.40674,1
46,4,2,3,20,3,4,c4_HowHand,2,reaching?,108,H_532.jpg,1628798174.17367,1628798174.17559,345.526503314972,11.4653866291046,356.997447957993,359.098231544495,0.3,361.332398166657,0.850316762924194,362.187325944901,3,right,0.836907148361206,362.182714929581,604.473069658279,607.233069658279,1628798522.46018,1628798522.46154,1628798533.93112,1628798533.9381,1628798536.0319,1628798538.26607,1628798538.27162,1628798539.121,1628798539.11639,1628798781.40674,0
46,4,2,3,20,4,4,c4_HowHand,1,reaching?,106,H_006.jpg,1628798174.17367,1628798174.17559,345.526503314972,11.4653866291046,356.997447957993,359.098231544495,0.3,362.499499549866,0.766952991485596,363.270935049057,1,left,0.754415035247803,363.266452541351,604.473069658279,607.233069658279,1628798522.46018,1628798522.46154,1628798533.93112,1628798533.9381,1628798536.0319,1628798539.43317,1628798539.43791,1628798540.20461,1628798540.20012,1628798781.40674,1
46,4,2,3,20,5,4,c4_HowHand,2,reaching?,105,H_438.jpg,1628798174.17367,1628798174.17559,345.526503314972,11.4653866291046,356.997447957993,359.098231544495,0.3,363.583237638474,0.950353622436523,364.537570943832,3,right,0.937538862228394,364.53359126091,604.473069658279,607.233069658279,1628798522.46018,1628798522.46154,1628798533.93112,1628798533.9381,1628798536.0319,1628798540.51691,1628798540.52121,1628798541.47124,1628798541.46726,1628798781.40674,0
46,4,2,3,20,6,4,c4_HowHand,1,reaching?,107,H_007.jpg,1628798174.17367,1628798174.17559,345.526503314972,11.4653866291046,356.997447957993,359.098231544495,0.3,364.850376119614,0.716934680938721,365.57062005043,1,left,0.705606937408447,365.567310800552,604.473069658279,607.233069658279,1628798522.46018,1628798522.46154,1628798533.93112,1628798533.9381,1628798536.0319,1628798541.78405,1628798541.7879,1628798542.50429,1628798542.50098,1628798781.40674,1
46,4,2,3,20,7,4,c4_HowHand,1,reaching?,109,H_474.jpg,1628798174.17367,1628798174.17559,345.526503314972,11.4653866291046,356.997447957993,359.098231544495,0.3,365.884094228745,0.850318193435669,366.736803045273,1,left,0.83947491645813,366.73441242218,604.473069658279,607.233069658279,1628798522.46018,1628798522.46154,1628798533.93112,1628798533.9381,1628798536.0319,1628798542.81777,1628798542.82216,1628798543.67048,1628798543.66808,1628798781.40674,1
46,4,2,3,20,8,4,c4_HowHand,2,reaching?,112,H_132.jpg,1628798174.17367,1628798174.17559,345.526503314972,11.4653866291046,356.997447957993,359.098231544495,0.3,367.051197757721,1.28381109237671,368.336852064133,1,left,1.27229309082031,368.335008850098,604.473069658279,607.233069658279,1628798522.46018,1628798522.46154,1628798533.93112,1628798533.9381,1628798536.0319,1628798543.98487,1628798543.98758,1628798545.27052,1628798545.26868,1628798781.40674,0
46,4,2,3,21,1,3,c3_HowFace,1,open mouth?,73,F_403.jpg,1628798174.17367,1628798174.17559,368.418372621536,6.4135913848877,374.837433567047,376.938217868805,2.10078430175781,377.088273515701,0.666914939880371,377.77027009964,1,left,0.660181999206543,377.755188455582,604.473069658279,607.233069658279,1628798545.35204,1628798545.35449,1628798551.77111,1628798551.7729,1628798553.87189,1628798554.02195,1628798554.02363,1628798554.70394,1628798554.68886,1628798781.40674,1
46,4,2,3,21,2,3,c3_HowFace,2,open mouth?,79,F_648.jpg,1628798174.17367,1628798174.17559,368.418372621536,6.4135913848877,374.837433567047,376.938217868805,0.3,378.071973075867,0.600224494934082,378.67358707428,3,right,0.590492010116577,378.672197570801,604.473069658279,607.233069658279,1628798545.35204,1628798545.35449,1628798551.77111,1628798551.7729,1628798553.87189,1628798555.00565,1628798555.00721,1628798555.60726,1628798555.60587,1628798781.40674,0
46,4,2,3,21,3,3,c3_HowFace,1,open mouth?,74,F_776.jpg,1628798174.17367,1628798174.17559,368.418372621536,6.4135913848877,374.837433567047,376.938217868805,0.3,378.988982429504,0.616896152496338,379.607048978806,1,left,0.597491025924683,379.605878582001,604.473069658279,607.233069658279,1628798545.35204,1628798545.35449,1628798551.77111,1628798551.7729,1628798553.87189,1628798555.92265,1628798555.92446,1628798556.54072,1628798556.53955,1628798781.40674,1
46,4,2,3,21,4,3,c3_HowFace,2,open mouth?,77,F_584.jpg,1628798174.17367,1628798174.17559,368.418372621536,6.4135913848877,374.837433567047,376.938217868805,0.3,379.922663202286,0.600224256515503,380.523908128738,3,right,0.577467918395996,380.522887458801,604.473069658279,607.233069658279,1628798545.35204,1628798545.35449,1628798551.77111,1628798551.7729,1628798553.87189,1628798556.85634,1628798556.85785,1628798557.45758,1628798557.45656,1628798781.40674,0
46,4,2,3,21,5,3,c3_HowFace,1,open mouth?,80,F_844.jpg,1628798174.17367,1628798174.17559,368.418372621536,6.4135913848877,374.837433567047,376.938217868805,0.3,380.839672317505,0.566878318786621,381.42026304245,1,left,0.557225942611694,381.406550636292,604.473069658279,607.233069658279,1628798545.35204,1628798545.35449,1628798551.77111,1628798551.7729,1628798553.87189,1628798557.77334,1628798557.77505,1628798558.35394,1628798558.34022,1628798781.40674,1
46,4,2,3,21,6,3,c3_HowFace,1,open mouth?,78,F_692.jpg,1628798174.17367,1628798174.17559,368.418372621536,6.4135913848877,374.837433567047,376.938217868805,0.3,381.723335971832,0.533531665802002,382.27030705452,1,left,0.524370908737183,382.256867637634,604.473069658279,607.233069658279,1628798545.35204,1628798545.35449,1628798551.77111,1628798551.7729,1628798553.87189,1628798558.65701,1628798558.65875,1628798559.20398,1628798559.19054,1628798781.40674,1
46,4,2,3,21,7,3,c3_HowFace,1,open mouth?,75,F_086.jpg,1628798174.17367,1628798174.17559,368.418372621536,6.4135913848877,374.837433567047,376.938217868805,0.3,382.573652257919,0.516859531402588,383.091526021957,1,left,0.499076128005981,383.090511789322,604.473069658279,607.233069658279,1628798545.35204,1628798545.35449,1628798551.77111,1628798551.7729,1628798553.87189,1628798559.50732,1628798559.50913,1628798560.0252,1628798560.02418,1628798781.40674,1
46,4,2,3,21,8,3,c3_HowFace,2,open mouth?,76,F_544.jpg,1628798174.17367,1628798174.17559,368.418372621536,6.4135913848877,374.837433567047,376.938217868805,0.3,383.407296409607,0.650242567062378,384.070393075943,3,right,0.642434120178223,384.057538976669,604.473069658279,607.233069658279,1628798545.35204,1628798545.35449,1628798551.77111,1628798551.7729,1628798553.87189,1628798560.34097,1628798560.34285,1628798561.00407,1628798560.99121,1628798781.40674,0
46,4,2,3,22,1,1,c1_WhyFace,1,argument?,42,F_403.jpg,1628798174.17367,1628798174.17559,384.140903224945,9.36699891090393,393.527737131119,395.611847629547,2.08411049842834,395.761903514862,0.566878080368042,396.33753704071,1,left,0.547079086303711,396.32878159523,604.473069658279,607.233069658279,1628798561.07458,1628798561.08806,1628798570.46141,1628798570.46317,1628798572.54552,1628798572.69558,1628798572.70494,1628798573.27121,1628798573.26245,1628798781.40674,1
46,4,2,3,22,2,1,c1_WhyFace,2,argument?,46,F_844.jpg,1628798174.17367,1628798174.17559,384.140903224945,9.36699891090393,393.527737131119,395.611847629547,0.3,396.645566453934,0.633570432662964,397.280138959885,3,right,0.613734006881714,397.279136886597,604.473069658279,607.233069658279,1628798561.07458,1628798561.08806,1628798570.46141,1628798570.46317,1628798572.54552,1628798573.57924,1628798573.58136,1628798574.21381,1628798574.21281,1628798781.40674,0
46,4,2,3,22,3,1,c1_WhyFace,1,argument?,41,F_712.jpg,1628798174.17367,1628798174.17559,384.140903224945,9.36699891090393,393.527737131119,395.611847629547,0.3,397.595920314789,0.683589458465576,398.286975135803,1,left,0.674324035644531,398.279509773254,604.473069658279,607.233069658279,1628798561.07458,1628798561.08806,1628798570.46141,1628798570.46317,1628798572.54552,1628798574.52959,1628798574.53132,1628798575.22065,1628798575.21318,1628798781.40674,1
46,4,2,3,22,4,1,c1_WhyFace,1,argument?,48,F_758.jpg,1628798174.17367,1628798174.17559,384.140903224945,9.36699891090393,393.527737131119,395.611847629547,0.3,398.596294631958,0.650242567062378,399.253607978821,1,left,0.635095119476318,399.24653719902,604.473069658279,607.233069658279,1628798561.07458,1628798561.08806,1628798570.46141,1628798570.46317,1628798572.54552,1628798575.52997,1628798575.53161,1628798576.18728,1628798576.18021,1628798781.40674,1
46,4,2,3,22,5,1,c1_WhyFace,2,argument?,45,F_433.jpg,1628798174.17367,1628798174.17559,384.140903224945,9.36699891090393,393.527737131119,395.611847629547,0.3,399.56332110405,0.683588027954102,400.247909059525,3,right,0.661641120910645,400.246909132004,604.473069658279,607.233069658279,1628798561.07458,1628798561.08806,1628798570.46141,1628798570.46317,1628798572.54552,1628798576.49699,1628798576.49903,1628798577.18158,1628798577.18058,1628798781.40674,0
46,4,2,3,22,6,1,c1_WhyFace,1,argument?,43,F_716.jpg,1628798174.17367,1628798174.17559,384.140903224945,9.36699891090393,393.527737131119,395.611847629547,0.3,400.563694467545,0.700260877609253,401.270313968658,1,left,0.689734935760498,401.263955345154,604.473069658279,607.233069658279,1628798561.07458,1628798561.08806,1628798570.46141,1628798570.46317,1628798572.54552,1628798577.49737,1628798577.49844,1628798578.20399,1628798578.19763,1628798781.40674,1
46,4,2,3,22,7,1,c1_WhyFace,2,argument?,44,F_139.jpg,1628798174.17367,1628798174.17559,384.140903224945,9.36699891090393,393.527737131119,395.611847629547,0.3,401.580740442276,0.716934204101562,402.303864946365,3,right,0.700801849365234,402.297674646378,604.473069658279,607.233069658279,1628798561.07458,1628798561.08806,1628798570.46141,1628798570.46317,1628798572.54552,1628798578.51441,1628798578.5166,1628798579.23754,1628798579.23135,1628798781.40674,0
46,4,2,3,22,8,1,c1_WhyFace,1,argument?,47,F_743.jpg,1628798174.17367,1628798174.17559,384.140903224945,9.36699891090393,393.527737131119,395.611847629547,0.3,402.614459505081,0.716933965682983,403.33740114212,1,left,0.71044397354126,403.331393470764,604.473069658279,607.233069658279,1628798561.07458,1628798561.08806,1628798570.46141,1628798570.46317,1628798572.54552,1628798579.54813,1628798579.54983,1628798580.27107,1628798580.26507,1628798781.40674,1
46,4,2,3,23,1,2,c2_WhyHand,1,helping?,39,H_024.jpg,1628798174.17367,1628798174.17559,403.414757242203,8.31333684921265,411.734526386261,413.835309972763,2.10078358650208,413.985365858078,0.983700513839722,414.970926990509,1,left,0.963398933410645,414.969066371918,604.473069658279,607.233069658279,1628798580.34843,1628798580.35456,1628798588.6682,1628798588.67122,1628798590.76898,1628798590.91904,1628798590.92145,1628798591.9046,1628798591.90274,1628798781.40674,1
46,4,2,3,23,2,2,c2_WhyHand,1,helping?,36,H_349.jpg,1628798174.17367,1628798174.17559,403.414757242203,8.31333684921265,411.734526386261,413.835309972763,0.3,415.285851707459,0.766952514648438,416.053863039017,1,left,0.743891000747681,416.052804222107,604.473069658279,607.233069658279,1628798580.34843,1628798580.35456,1628798588.6682,1628798588.67122,1628798590.76898,1628798592.21952,1628798592.22142,1628798592.98753,1628798592.98648,1628798781.40674,1
46,4,2,3,23,3,2,c2_WhyHand,1,helping?,38,H_077.jpg,1628798174.17367,1628798174.17559,403.414757242203,8.31333684921265,411.734526386261,413.835309972763,0.3,416.369588603973,0.833644866943359,417.204278936386,1,left,0.819359064102173,417.203233470917,604.473069658279,607.233069658279,1628798580.34843,1628798580.35456,1628798588.6682,1628798588.67122,1628798590.76898,1628798593.30326,1628798593.30505,1628798594.13795,1628798594.13691,1628798781.40674,1
46,4,2,3,23,4,2,c2_WhyHand,1,helping?,37,H_474.jpg,1628798174.17367,1628798174.17559,403.414757242203,8.31333684921265,411.734526386261,413.835309972763,0.3,417.520018806458,0.833642721176147,418.355111112595,1,left,0.818248987197876,418.353661527634,604.473069658279,607.233069658279,1628798580.34843,1628798580.35456,1628798588.6682,1628798588.67122,1628798590.76898,1628798594.45369,1628798594.45538,1628798595.28878,1628798595.28733,1628798781.40674,1
46,4,2,3,23,5,2,c2_WhyHand,2,helping?,33,H_091.jpg,1628798174.17367,1628798174.17559,403.414757242203,8.31333684921265,411.734526386261,413.835309972763,0.3,418.670446624756,0.866989612579346,419.538409938812,3,right,0.856704950332642,419.537436237335,604.473069658279,607.233069658279,1628798580.34843,1628798580.35456,1628798588.6682,1628798588.67122,1628798590.76898,1628798595.60412,1628798595.60582,1628798596.47208,1628798596.47111,1628798781.40674,0
46,4,2,3,23,6,2,c2_WhyHand,2,helping?,35,H_159.jpg,1628798174.17367,1628798174.17559,403.414757242203,8.31333684921265,411.734526386261,413.835309972763,0.3,419.854221334457,0.917008638381958,420.786921014786,3,right,0.908694982528687,420.771229972839,604.473069658279,607.233069658279,1628798580.34843,1628798580.35456,1628798588.6682,1628798588.67122,1628798590.76898,1628798596.78789,1628798596.78956,1628798597.72059,1628798597.7049,1628798781.40674,0
46,4,2,3,23,7,2,c2_WhyHand,1,helping?,34,H_111.jpg,1628798174.17367,1628798174.17559,403.414757242203,8.31333684921265,411.734526386261,413.835309972763,0.3,421.088015546799,0.850316762924194,421.93970202446,1,left,0.833969831466675,421.938332309723,604.473069658279,607.233069658279,1628798580.34843,1628798580.35456,1628798588.6682,1628798588.67122,1628798590.76898,1628798598.02169,1628798598.02324,1628798598.87337,1628798598.872,1628798781.40674,1
46,4,2,3,23,8,2,c2_WhyHand,2,helping?,40,H_012.jpg,1628798174.17367,1628798174.17559,403.414757242203,8.31333684921265,411.734526386261,413.835309972763,0.3,422.255117645264,0.850316762924194,423.10686706543,3,right,0.832533121109009,423.105434408188,604.473069658279,607.233069658279,1628798580.34843,1628798580.35456,1628798588.6682,1628798588.67122,1628798590.76898,1628798599.18879,1628798599.19064,1628798600.04054,1628798600.03911,1628798781.40674,0
46,4,2,3,24,1,4,c4_HowHand,1,both hands?,122,H_111.jpg,1628798174.17367,1628798174.17559,423.188798894882,6.60921621322632,429.807933320999,431.908716430664,2.10078310966492,432.05877374649,0.616896390914917,432.687540998459,1,left,0.609745979309082,432.675670137405,604.473069658279,607.233069658279,1628798600.12247,1628798600.12419,1628798606.74161,1628798606.7433,1628798608.84239,1628798608.99245,1628798608.99428,1628798609.62121,1628798609.60934,1628798781.40674,1
46,4,2,3,24,2,4,c4_HowHand,1,both hands?,128,H_027.jpg,1628798174.17367,1628798174.17559,423.188798894882,6.60921621322632,429.807933320999,431.908716430664,0.3,432.992454996109,0.650241613388062,433.653603067398,1,left,0.642064094543457,433.642696609497,604.473069658279,607.233069658279,1628798600.12247,1628798600.12419,1628798606.74161,1628798606.7433,1628798608.84239,1628798609.92613,1628798609.9276,1628798610.58728,1628798610.57637,1628798781.40674,1
46,4,2,3,24,3,4,c4_HowHand,2,both hands?,121,H_091.jpg,1628798174.17367,1628798174.17559,423.188798894882,6.60921621322632,429.807933320999,431.908716430664,0.3,433.959481468201,0.700262308120728,434.670891990662,3,right,0.688827037811279,434.659743776321,604.473069658279,607.233069658279,1628798600.12247,1628798600.12419,1628798606.74161,1628798606.7433,1628798608.84239,1628798610.89315,1628798610.89549,1628798611.60456,1628798611.59342,1628798781.40674,0
46,4,2,3,24,4,4,c4_HowHand,1,both hands?,123,H_167.jpg,1628798174.17367,1628798174.17559,423.188798894882,6.60921621322632,429.807933320999,431.908716430664,0.3,434.976527442932,0.716933727264404,435.694499959946,1,left,0.697222948074341,435.693461170197,604.473069658279,607.233069658279,1628798600.12247,1628798600.12419,1628798606.74161,1628798606.7433,1628798608.84239,1628798611.9102,1628798611.91147,1628798612.62817,1628798612.62713,1628798781.40674,1
46,4,2,3,24,5,4,c4_HowHand,1,both hands?,124,H_581.jpg,1628798174.17367,1628798174.17559,423.188798894882,6.60921621322632,429.807933320999,431.908716430664,0.3,436.010246744156,0.800297737121582,436.811605920792,1,left,0.780483961105347,436.810544481277,604.473069658279,607.233069658279,1628798600.12247,1628798600.12419,1628798606.74161,1628798606.7433,1628798608.84239,1628798612.94392,1628798612.9458,1628798613.74528,1628798613.74422,1628798781.40674,1
46,4,2,3,24,6,4,c4_HowHand,2,both hands?,126,H_159.jpg,1628798174.17367,1628798174.17559,423.188798894882,6.60921621322632,429.807933320999,431.908716430664,0.3,437.1273295784,0.783626079559326,437.912692060471,3,right,0.761751174926758,437.910955657959,604.473069658279,607.233069658279,1628798600.12247,1628798600.12419,1628798606.74161,1628798606.7433,1628798608.84239,1628798614.061,1628798614.06257,1628798614.84636,1628798614.84463,1628798781.40674,0
46,4,2,3,24,7,4,c4_HowHand,1,both hands?,127,H_349.jpg,1628798174.17367,1628798174.17559,423.188798894882,6.60921621322632,429.807933320999,431.908716430664,0.3,438.227740039825,0.666914939880371,438.895787944794,1,left,0.650439977645874,438.894654979706,604.473069658279,607.233069658279,1628798600.12247,1628798600.12419,1628798606.74161,1628798606.7433,1628798608.84239,1628798615.16141,1628798615.16304,1628798615.82946,1628798615.82833,1628798781.40674,1
46,4,2,3,24,8,4,c4_HowHand,2,both hands?,125,H_627.jpg,1628798174.17367,1628798174.17559,423.188798894882,6.60921621322632,429.807933320999,431.908716430664,0.3,439.211440553665,0.833644390106201,440.053652038574,3,right,0.820986032485962,440.045084943771,604.473069658279,607.233069658279,1628798600.12247,1628798600.12419,1628798606.74161,1628798606.7433,1628798608.84239,1628798616.14511,1628798616.14674,1628798616.98732,1628798616.97876,1628798781.40674,0
46,4,2,3,25,1,2,c2_WhyHand,1,healthy?,18,H_438.jpg,1628798174.17367,1628798174.17559,440.128448953629,7.18653917312622,447.331135263443,449.431918611526,2.1007833480835,449.58197473526,0.833644151687622,450.420598020554,1,left,0.817639112472534,450.415618886948,604.473069658279,607.233069658279,1628798617.06212,1628798617.07124,1628798624.26481,1628798624.26689,1628798626.36559,1628798626.51565,1628798626.51821,1628798627.35427,1628798627.34929,1628798781.40674,1
46,4,2,3,25,2,2,c2_WhyHand,1,healthy?,23,H_364.jpg,1628798174.17367,1628798174.17559,440.128448953629,7.18653917312622,447.331135263443,449.431918611526,0.3,450.732403507233,0.850317239761353,451.586931934357,1,left,0.832233190536499,451.582720746994,604.473069658279,607.233069658279,1628798617.06212,1628798617.07124,1628798624.26481,1628798624.26689,1628798626.36559,1628798627.66608,1628798627.66744,1628798628.5206,1628798628.51639,1628798781.40674,1
46,4,2,3,25,3,2,c2_WhyHand,1,healthy?,17,H_362.jpg,1628798174.17367,1628798174.17559,440.128448953629,7.18653917312622,447.331135263443,449.431918611526,0.3,451.899505367279,0.883663177490234,452.786790122986,1,left,0.873239994049072,452.783168544769,604.473069658279,607.233069658279,1628798617.06212,1628798617.07124,1628798624.26481,1628798624.26689,1628798626.36559,1628798628.83318,1628798628.83806,1628798629.72046,1628798629.71684,1628798781.40674,1
46,4,2,3,25,4,2,c2_WhyHand,2,healthy?,24,H_019.jpg,1628798174.17367,1628798174.17559,440.128448953629,7.18653917312622,447.331135263443,449.431918611526,0.3,453.099952449799,0.950354337692261,454.05368303299,3,right,0.934525966644287,454.050306787491,604.473069658279,607.233069658279,1628798617.06212,1628798617.07124,1628798624.26481,1628798624.26689,1628798626.36559,1628798630.03362,1628798630.0379,1628798630.98735,1628798630.98398,1628798781.40674,0
46,4,2,3,25,5,2,c2_WhyHand,1,healthy?,19,H_167.jpg,1628798174.17367,1628798174.17559,440.128448953629,7.18653917312622,447.331135263443,449.431918611526,0.3,454.367092599869,0.900335311889648,455.270106067657,1,left,0.89157509803772,455.267427911758,604.473069658279,607.233069658279,1628798617.06212,1628798617.07124,1628798624.26481,1628798624.26689,1628798626.36559,1628798631.30076,1628798631.30446,1628798632.20378,1628798632.2011,1628798781.40674,1
46,4,2,3,25,6,2,c2_WhyHand,2,healthy?,20,H_007.jpg,1628798174.17367,1628798174.17559,440.128448953629,7.18653917312622,447.331135263443,449.431918611526,0.3,455.584213485718,0.816971302032471,456.403511991501,3,right,0.808412075042725,456.40118478775,604.473069658279,607.233069658279,1628798617.06212,1628798617.07124,1628798624.26481,1628798624.26689,1628798626.36559,1628798632.51789,1628798632.52123,1628798633.33718,1628798633.33486,1628798781.40674,0
46,4,2,3,25,7,2,c2_WhyHand,1,healthy?,21,H_627.jpg,1628798174.17367,1628798174.17559,440.128448953629,7.18653917312622,447.331135263443,449.431918611526,0.3,456.717969884872,0.850316047668457,457.570899953842,1,left,0.825876951217651,457.568285932541,604.473069658279,607.233069658279,1628798617.06212,1628798617.07124,1628798624.26481,1628798624.26689,1628798626.36559,1628798633.65164,1628798633.65437,1628798634.50457,1628798634.50196,1628798781.40674,1
46,4,2,3,25,8,2,c2_WhyHand,2,healthy?,22,H_130.jpg,1628798174.17367,1628798174.17559,440.128448953629,7.18653917312622,447.331135263443,449.431918611526,0.3,457.885070075989,0.783626079559326,458.670176973343,3,right,0.772637844085693,458.668696155548,604.473069658279,607.233069658279,1628798617.06212,1628798617.07124,1628798624.26481,1628798624.26689,1628798626.36559,1628798634.81874,1628798634.82119,1628798635.60385,1628798635.60237,1628798781.40674,0
46,4,2,3,26,1,4,c4_HowHand,1,pressing button?,82,H_126.jpg,1628798174.17367,1628798174.17559,458.752061357498,7.61701560020447,466.388241996765,468.472352733612,2.08411073684692,468.622408618927,0.65024209022522,469.274209012985,1,left,0.621932029724121,469.272650709152,604.473069658279,607.233069658279,1628798635.68573,1628798635.68793,1628798643.32191,1628798643.32369,1628798645.40602,1628798645.55608,1628798645.57127,1628798646.20788,1628798646.20632,1628798781.40674,1
46,4,2,3,26,2,4,c4_HowHand,2,pressing button?,85,H_130.jpg,1628798174.17367,1628798174.17559,458.752061357498,7.61701560020447,466.388241996765,468.472352733612,0.3,469.589435329437,0.616897106170654,470.207977046967,3,right,0.596640110015869,470.206332435608,604.473069658279,607.233069658279,1628798635.68573,1628798635.68793,1628798643.32191,1628798643.32369,1628798645.40602,1628798646.52311,1628798646.52494,1628798647.14165,1628798647.14,1628798781.40674,0
46,4,2,3,26,3,4,c4_HowHand,1,pressing button?,84,H_483.jpg,1628798174.17367,1628798174.17559,458.752061357498,7.61701560020447,466.388241996765,468.472352733612,0.3,470.523117771149,0.700260877609253,471.237255086899,1,left,0.690097093582153,471.223378648758,604.473069658279,607.233069658279,1628798635.68573,1628798635.68793,1628798643.32191,1628798643.32369,1628798645.40602,1628798647.45679,1628798647.45851,1628798648.17093,1628798648.15705,1628798781.40674,1
46,4,2,3,26,4,4,c4_HowHand,2,pressing button?,87,H_024.jpg,1628798174.17367,1628798174.17559,458.752061357498,7.61701560020447,466.388241996765,468.472352733612,0.3,471.540161361694,0.716935396194458,472.270920982361,3,right,0.706914901733398,472.257096757889,604.473069658279,607.233069658279,1628798635.68573,1628798635.68793,1628798643.32191,1628798643.32369,1628798645.40602,1628798648.47383,1628798648.47542,1628798649.20459,1628798649.19077,1628798781.40674,0
46,4,2,3,26,5,4,c4_HowHand,1,pressing button?,86,H_332.jpg,1628798174.17367,1628798174.17559,458.752061357498,7.61701560020447,466.388241996765,468.472352733612,0.3,472.573882570267,0.700261354446411,473.275192966461,1,left,0.686360836029053,473.274143924713,604.473069658279,607.233069658279,1628798635.68573,1628798635.68793,1628798643.32191,1628798643.32369,1628798645.40602,1628798649.50755,1628798649.50966,1628798650.20886,1628798650.20782,1628798781.40674,1
46,4,2,3,26,6,4,c4_HowHand,1,pressing button?,88,H_019.jpg,1628798174.17367,1628798174.17559,458.752061357498,7.61701560020447,466.388241996765,468.472352733612,0.3,473.590927114487,0.533533334732056,474.12550901413,1,left,0.515516996383667,474.124460449219,604.473069658279,607.233069658279,1628798635.68573,1628798635.68793,1628798643.32191,1628798643.32369,1628798645.40602,1628798650.5246,1628798650.5265,1628798651.05918,1628798651.05813,1628798781.40674,1
46,4,2,3,26,7,4,c4_HowHand,2,pressing button?,81,H_261.jpg,1628798174.17367,1628798174.17559,458.752061357498,7.61701560020447,466.388241996765,468.472352733612,0.3,474.441244115829,0.600224256515503,475.053950061798,3,right,0.588522911071777,475.041468372345,604.473069658279,607.233069658279,1628798635.68573,1628798635.68793,1628798643.32191,1628798643.32369,1628798645.40602,1628798651.37492,1628798651.3766,1628798651.98762,1628798651.97514,1628798781.40674,0
46,4,2,3,26,8,4,c4_HowHand,1,pressing button?,83,H_502.jpg,1628798174.17367,1628798174.17559,458.752061357498,7.61701560020447,466.388241996765,468.472352733612,0.3,475.358253946304,0.600223541259766,475.959517946243,1,left,0.587443113327026,475.958477487564,604.473069658279,607.233069658279,1628798635.68573,1628798635.68793,1628798643.32191,1628798643.32369,1628798645.40602,1628798652.29193,1628798652.29372,1628798652.89319,1628798652.89215,1628798781.40674,1
46,4,2,3,27,1,3,c3_HowFace,1,looking at camera?,60,F_618.jpg,1628798174.17367,1628798174.17559,476.041841259003,7.85706567764282,483.911443939209,486.0122260952,2.1007821559906,486.162280550003,0.566879987716675,486.730873098373,1,left,0.545354843139648,486.72916053772,604.473069658279,607.233069658279,1628798652.97551,1628798652.97716,1628798660.84512,1628798660.8547,1628798662.9459,1628798663.09595,1628798663.0978,1628798663.66455,1628798663.66283,1628798781.40674,1
46,4,2,3,27,2,3,c3_HowFace,2,looking at camera?,58,F_754.jpg,1628798174.17367,1628798174.17559,476.041841259003,7.85706567764282,483.911443939209,486.0122260952,0.3,487.045945873261,0.583550691604614,487.631272068024,3,right,0.561522960662842,487.629496564865,604.473069658279,607.233069658279,1628798652.97551,1628798652.97716,1628798660.84512,1628798660.8547,1628798662.9459,1628798663.97962,1628798663.98157,1628798664.56494,1628798664.56317,1628798781.40674,0
46,4,2,3,27,3,3,c3_HowFace,1,looking at camera?,59,F_129.jpg,1628798174.17367,1628798174.17559,476.041841259003,7.85706567764282,483.911443939209,486.0122260952,0.3,487.946281423569,0.550204753875732,488.5043430233,1,left,0.539019823074341,488.496486177444,604.473069658279,607.233069658279,1628798652.97551,1628798652.97716,1628798660.84512,1628798660.8547,1628798662.9459,1628798664.87995,1628798664.88154,1628798665.43801,1628798665.43016,1628798781.40674,1
46,4,2,3,27,4,3,c3_HowFace,1,looking at camera?,62,F_598.jpg,1628798174.17367,1628798174.17559,476.041841259003,7.85706567764282,483.911443939209,486.0122260952,0.3,488.813271274567,0.600224494934082,489.415033092499,1,left,0.576395988464355,489.413495769501,604.473069658279,607.233069658279,1628798652.97551,1628798652.97716,1628798660.84512,1628798660.8547,1628798662.9459,1628798665.74694,1628798665.74884,1628798666.34871,1628798666.34717,1628798781.40674,1
46,4,2,3,27,5,3,c3_HowFace,1,looking at camera?,64,F_128.jpg,1628798174.17367,1628798174.17559,476.041841259003,7.85706567764282,483.911443939209,486.0122260952,0.3,489.730279436111,0.5668785572052,490.303776016235,1,left,0.550000190734863,490.297157993317,604.473069658279,607.233069658279,1628798652.97551,1628798652.97716,1628798660.84512,1628798660.8547,1628798662.9459,1628798666.66395,1628798666.66593,1628798667.23745,1628798667.23083,1628798781.40674,1
46,4,2,3,27,6,3,c3_HowFace,2,looking at camera?,57,F_582.jpg,1628798174.17367,1628798174.17559,476.041841259003,7.85706567764282,483.911443939209,486.0122260952,0.3,490.613942375183,0.733607530593872,491.353811969757,3,right,0.718159914016724,491.347549905777,604.473069658279,607.233069658279,1628798652.97551,1628798652.97716,1628798660.84512,1628798660.8547,1628798662.9459,1628798667.54761,1628798667.5497,1628798668.28748,1628798668.28122,1628798781.40674,0
46,4,2,3,27,7,3,c3_HowFace,1,looking at camera?,61,F_774.jpg,1628798174.17367,1628798174.17559,476.041841259003,7.85706567764282,483.911443939209,486.0122260952,0.3,491.664334764481,0.633569717407227,492.303796043396,1,left,0.619822025299072,492.297904481888,604.473069658279,607.233069658279,1628798652.97551,1628798652.97716,1628798660.84512,1628798660.8547,1628798662.9459,1628798668.59801,1628798668.59973,1628798669.23747,1628798669.23158,1628798781.40674,1
