src_subject_id,session_id,run_id,param_counterbalance_ver,param_block_num,param_trial_num,param_cond_type_num,param_cond_type_string,param_normative_response,param_ques_type_string,param_image_num,param_image_filename,param_trigger_onset,param_start_biopac,event01_fixation,event01_fixation_dur,event01_blockquestion_onset,event01_block_isi_blacksreen,event01_blockquestion_dur,event02_image_onset,event02_image_dur,event03_response_onset,event03_response_key,event03_response_keyname,event03_RT,event04_shortquestion_onset,param_end_instruct_onset,param_experiment_duration,RAW_e1_fixation,RAW_e1_fixation_biopac,RAW_e1_blockquestion_onset,RAW_e1_blockquestion_onset_biopac,RAW_e1_block_isi_blacksreen,RAW_e2_image_onset,RAW_e2_image_onset_biopac,RAW_e3_response_onset,RAW_e4_shortquestion_onset,RAW_param_end_instruct_onset
1,4,2,3,1,1,4,c4_HowHand,1,reaching?,107,H_007.jpg,1607455026.49693,1607455026.51936,0.0527079010009763,0.0235750675201416,0.0860562229156492,2.12032937049866,2.03427314758301,2.27039860725403,1.21722912788391,3.49558114051819,1,left,1.20029401779175,3.48762773513794,604.465207567215,607.225207567215,1607455029.30964,1607455029.31304,1607455029.34299,1607455029.35191,1607455031.37726,1607455031.52733,1607455031.53003,1607455032.75251,1607455032.74456,1607455633.72214
1,4,2,3,1,2,4,c4_HowHand,2,reaching?,108,H_532.jpg,1607455026.49693,1607455026.51936,0.0527079010009763,0.0235750675201416,0.0860562229156492,2.12032937049866,0.3,3.80444072723389,1.7174596786499,5.54996918678284,1,left,1.71926922798157,5.52190040588379,604.465207567215,607.225207567215,1607455029.30964,1607455029.31304,1607455029.34299,1607455029.35191,1607455031.37726,1607455033.06137,1607455033.06349,1607455034.8069,1607455034.77883,1607455633.72214
1,4,2,3,1,3,4,c4_HowHand,1,reaching?,109,H_474.jpg,1607455026.49693,1607455026.51936,0.0527079010009763,0.0235750675201416,0.0860562229156492,2.12032937049866,0.3,5.83871387481689,1.13385653495789,6.97883199691772,1,left,1.11989903450012,6.97257040977478,604.465207567215,607.225207567215,1607455029.30964,1607455029.31304,1607455029.34299,1607455029.35191,1607455031.37726,1607455035.09564,1607455035.09746,1607455036.23576,1607455036.2295,1607455633.72214
1,4,2,3,1,4,4,c4_HowHand,2,reaching?,105,H_438.jpg,1607455026.49693,1607455026.51936,0.0527079010009763,0.0235750675201416,0.0860562229156492,2.12032937049866,0.3,7.28938364028931,1.61741328239441,8.9123461151123,2,right,1.60950613021851,8.90679692268372,604.465207567215,607.225207567215,1607455029.30964,1607455029.31304,1607455029.34299,1607455029.35191,1607455031.37726,1607455036.54631,1607455036.54837,1607455038.16928,1607455038.16373,1607455633.72214
1,4,2,3,1,5,4,c4_HowHand,1,reaching?,110,H_364.jpg,1607455026.49693,1607455026.51936,0.0527079010009763,0.0235750675201416,0.0860562229156492,2.12032937049866,0.3,9.2236106300354,1.71746039390564,11.1150941753387,1,left,1.86425108909607,10.941071023941,604.465207567215,607.225207567215,1607455029.30964,1607455029.31304,1607455029.34299,1607455029.35191,1607455031.37726,1607455038.48054,1607455038.48622,1607455040.37202,1607455040.198,1607455633.72214
1,4,2,3,1,6,4,c4_HowHand,1,reaching?,106,H_006.jpg,1607455026.49693,1607455026.51936,0.0527079010009763,0.0235750675201416,0.0860562229156492,2.12032937049866,0.3,11.2578835391998,1.10050797462463,12.362663974762,1,left,1.09155607223511,12.3583915138245,604.465207567215,607.225207567215,1607455029.30964,1607455029.31304,1607455029.34299,1607455029.35191,1607455031.37726,1607455040.51481,1607455040.51886,1607455041.61959,1607455041.61532,1607455633.72214
1,4,2,3,1,7,4,c4_HowHand,1,reaching?,111,H_003.jpg,1607455026.49693,1607455026.51936,0.0527079010009763,0.0235750675201416,0.0860562229156492,2.12032937049866,0.3,12.675204744339,0.750346899032593,13.4272160434723,1,left,0.728039026260376,13.4255516433716,604.465207567215,607.225207567215,1607455029.30964,1607455029.31304,1607455029.34299,1607455029.35191,1607455031.37726,1607455041.93213,1607455041.93556,1607455042.68414,1607455042.68248,1607455633.72214
1,4,2,3,1,8,4,c4_HowHand,2,reaching?,112,H_132.jpg,1607455026.49693,1607455026.51936,0.0527079010009763,0.0235750675201416,0.0860562229156492,2.12032937049866,0.3,13.742364397049,1.60073947906494,15.3454410934448,2,right,1.58653211593628,15.3431038761139,604.465207567215,607.225207567215,1607455029.30964,1607455029.31304,1607455029.34299,1607455029.35191,1607455031.37726,1607455042.99929,1607455043.00247,1607455044.60237,1607455044.60003,1607455633.72214
1,4,2,3,2,1,2,c2_WhyHand,1,healthy?,21,H_627.jpg,1607455026.49693,1607455026.51936,15.5431957149506,1.98802542686462,17.5441205406189,19.6450903320312,2.10096979141235,19.795159330368,1.56739091873169,21.3641669654846,1,left,1.54779887199402,21.3625502490997,604.465207567215,607.225207567215,1607455044.80012,1607455044.80379,1607455046.80105,1607455046.80278,1607455048.90202,1607455049.05209,1607455049.05408,1607455050.6211,1607455050.61948,1607455633.72214
1,4,2,3,2,2,2,c2_WhyHand,1,healthy?,18,H_438.jpg,1607455026.49693,1607455026.51936,15.5431957149506,1.98802542686462,17.5441205406189,19.6450903320312,0.3,21.6793632411957,1.71746015548706,NaN,0,NA,0,23.3968233966827,604.465207567215,607.225207567215,1607455044.80012,1607455044.80379,1607455046.80105,1607455046.80278,1607455048.90202,1607455050.93629,1607455050.93824,NaN,1607455052.65375,1607455633.72214
1,4,2,3,2,3,2,c2_WhyHand,1,healthy?,23,H_364.jpg,1607455026.49693,1607455026.51936,15.5431957149506,1.98802542686462,17.5441205406189,19.6450903320312,0.3,23.7136371040344,0.216766119003296,23.9319960975647,1,left,0.200680017471313,23.9304032230377,604.465207567215,607.225207567215,1607455044.80012,1607455044.80379,1607455046.80105,1607455046.80278,1607455048.90202,1607455052.97057,1607455052.9725,1607455053.18893,1607455053.18733,1607455633.72214
1,4,2,3,2,4,2,c2_WhyHand,2,healthy?,22,H_130.jpg,1607455026.49693,1607455026.51936,15.5431957149506,1.98802542686462,17.5441205406189,19.6450903320312,0.3,24.2472166919708,1.50069379806519,25.7494809532166,2,right,1.48451590538025,25.747910490036,604.465207567215,607.225207567215,1607455044.80012,1607455044.80379,1607455046.80105,1607455046.80278,1607455048.90202,1607455053.50415,1607455053.50602,1607455055.00641,1607455055.00484,1607455633.72214
1,4,2,3,2,5,2,c2_WhyHand,1,healthy?,17,H_362.jpg,1607455026.49693,1607455026.51936,15.5431957149506,1.98802542686462,17.5441205406189,19.6450903320312,0.3,26.0647225284576,1.23390293121338,27.3007149600983,1,left,1.21676993370056,27.298625459671,604.465207567215,607.225207567215,1607455044.80012,1607455044.80379,1607455046.80105,1607455046.80278,1607455048.90202,1607455055.32165,1607455055.32317,1607455056.55764,1607455056.55555,1607455633.72214
1,4,2,3,2,6,2,c2_WhyHand,2,healthy?,20,H_007.jpg,1607455026.49693,1607455026.51936,15.5431957149506,1.98802542686462,17.5441205406189,19.6450903320312,0.3,27.6154386901855,1.7174596786499,29.4587211513519,2,right,1.82281394004822,29.3328983688354,604.465207567215,607.225207567215,1607455044.80012,1607455044.80379,1607455046.80105,1607455046.80278,1607455048.90202,1607455056.87237,1607455056.87392,1607455058.71565,1607455058.58983,1607455633.72214
1,4,2,3,2,7,2,c2_WhyHand,1,healthy?,19,H_167.jpg,1607455026.49693,1607455026.51936,15.5431957149506,1.98802542686462,17.5441205406189,19.6450903320312,0.3,29.6497113609314,1.10050797462463,30.7522320652008,1,left,1.08199214935303,30.750219335556,604.465207567215,607.225207567215,1607455044.80012,1607455044.80379,1607455046.80105,1607455046.80278,1607455048.90202,1607455058.90664,1607455058.90825,1607455060.00916,1607455060.00715,1607455633.72214
1,4,2,3,2,8,2,c2_WhyHand,2,healthy?,24,H_019.jpg,1607455026.49693,1607455026.51936,15.5431957149506,1.98802542686462,17.5441205406189,19.6450903320312,0.3,31.067032327652,1.71746063232422,32.9849791431427,2,right,1.89647693634033,32.7844929599762,604.465207567215,607.225207567215,1607455044.80012,1607455044.80379,1607455046.80105,1607455046.80278,1607455048.90202,1607455060.32396,1607455060.3256,1607455062.24191,1607455062.04142,1607455633.72214
1,4,2,3,3,1,1,c1_WhyFace,1,admiring?,4,F_779.jpg,1607455026.49693,1607455026.51936,33.0846314334869,3.55451059341431,36.6529455089569,38.7539162540436,2.10097074508667,38.9039864444733,1.18387913703918,40.0895221138001,1,left,1.16612482070923,40.0878655815125,604.465207567215,607.225207567215,1607455062.34156,1607455062.35448,1607455065.90987,1607455065.91218,1607455068.01085,1607455068.16092,1607455068.16281,1607455069.34645,1607455069.34479,1607455633.72214
1,4,2,3,3,2,1,c1_WhyFace,1,admiring?,1,F_593.jpg,1607455026.49693,1607455026.51936,33.0846314334869,3.55451059341431,36.6529455089569,38.7539162540436,0.3,40.404678812027,0.933764934539795,41.348136177063,1,left,0.918792009353638,41.3384437465668,604.465207567215,607.225207567215,1607455062.34156,1607455062.35448,1607455065.90987,1607455065.91218,1607455068.01085,1607455069.66161,1607455069.66409,1607455070.60507,1607455070.59537,1607455633.72214
1,4,2,3,3,3,1,c1_WhyFace,2,admiring?,3,F_110.jpg,1607455026.49693,1607455026.51936,33.0846314334869,3.55451059341431,36.6529455089569,38.7539162540436,0.3,41.6552557849884,1.28392601013184,42.9408769512177,2,right,1.26673102378845,42.9391817951202,604.465207567215,607.225207567215,1607455062.34156,1607455062.35448,1607455065.90987,1607455065.91218,1607455068.01085,1607455070.91218,1607455070.91355,1607455072.19781,1607455072.19611,1607455633.72214
1,4,2,3,3,4,1,c1_WhyFace,1,admiring?,8,F_590.jpg,1607455026.49693,1607455026.51936,33.0846314334869,3.55451059341431,36.6529455089569,38.7539162540436,0.3,43.2559959793091,1.00046277046204,44.2654130363464,1,left,0.987020969390869,44.2564587497711,604.465207567215,607.225207567215,1607455062.34156,1607455062.35448,1607455065.90987,1607455065.91218,1607455068.01085,1607455072.51292,1607455072.51447,1607455073.52234,1607455073.51339,1607455633.72214
1,4,2,3,3,5,1,c1_WhyFace,2,admiring?,6,F_692.jpg,1607455026.49693,1607455026.51936,33.0846314334869,3.55451059341431,36.6529455089569,38.7539162540436,0.3,44.5732710266113,1.46734499931335,46.048748960495,2,right,1.45902013778687,46.0406160259247,604.465207567215,607.225207567215,1607455062.34156,1607455062.35448,1607455065.90987,1607455065.91218,1607455068.01085,1607455073.8302,1607455073.83194,1607455075.30568,1607455075.29754,1607455633.72214
1,4,2,3,3,6,1,c1_WhyFace,1,admiring?,5,F_759.jpg,1607455026.49693,1607455026.51936,33.0846314334869,3.55451059341431,36.6529455089569,38.7539162540436,0.3,46.3574285411835,1.10050797462463,47.4596950912476,1,left,1.08324790000916,47.4579365158081,604.465207567215,607.225207567215,1607455062.34156,1607455062.35448,1607455065.90987,1607455065.91218,1607455068.01085,1607455075.61436,1607455075.61623,1607455076.71662,1607455076.71487,1607455633.72214
1,4,2,3,3,7,1,c1_WhyFace,1,admiring?,7,F_648.jpg,1607455026.49693,1607455026.51936,33.0846314334869,3.55451059341431,36.6529455089569,38.7539162540436,0.3,47.7747495079041,0.933764696121216,48.7156641387939,1,left,0.917948007583618,48.7085142040253,604.465207567215,607.225207567215,1607455062.34156,1607455062.35448,1607455065.90987,1607455065.91218,1607455068.01085,1607455077.03168,1607455077.03311,1607455077.97259,1607455077.96544,1607455633.72214
1,4,2,3,3,8,1,c1_WhyFace,2,admiring?,2,F_129.jpg,1607455026.49693,1607455026.51936,33.0846314334869,3.55451059341431,36.6529455089569,38.7539162540436,0.3,49.0253274345398,1.60073947906494,50.6317231559753,2,right,1.589191198349,50.6260669136047,604.465207567215,607.225207567215,1607455062.34156,1607455062.35448,1607455065.90987,1607455065.91218,1607455068.01085,1607455078.28226,1607455078.28401,1607455079.88865,1607455079.883,1607455633.72214
1,4,2,3,4,1,3,c3_HowFace,1,smiling?,119,F_139.jpg,1607455026.49693,1607455026.51936,50.7427875900269,4.86034059524536,55.6117024326324,57.7126731777191,2.10097074508667,57.8627431297302,0.933763265609741,58.7995140457153,1,left,0.922365188598633,58.79650639534,604.465207567215,607.225207567215,1607455079.99972,1607455080.00131,1607455084.86863,1607455084.87266,1607455086.9696,1607455087.11967,1607455087.12327,1607455088.05644,1607455088.05344,1607455633.72214
1,4,2,3,4,2,3,c3_HowFace,2,smiling?,113,F_712.jpg,1607455026.49693,1607455026.51936,50.7427875900269,4.86034059524536,55.6117024326324,57.7126731777191,0.3,59.1133193874359,0.767021894454956,59.8828971290588,2,right,0.753383874893188,59.8803412818909,604.465207567215,607.225207567215,1607455079.99972,1607455080.00131,1607455084.86863,1607455084.87266,1607455086.9696,1607455088.37025,1607455088.37316,1607455089.13983,1607455089.13727,1607455633.72214
1,4,2,3,4,3,3,c3_HowFace,1,smiling?,115,F_695.jpg,1607455026.49693,1607455026.51936,50.7427875900269,4.86034059524536,55.6117024326324,57.7126731777191,0.3,60.1971549892426,1.21722745895386,61.4163141155243,1,left,1.20716714859009,61.4143824481964,604.465207567215,607.225207567215,1607455079.99972,1607455080.00131,1607455084.86863,1607455084.87266,1607455086.9696,1607455089.45408,1607455089.45664,1607455090.67324,1607455090.67131,1607455633.72214
1,4,2,3,4,4,3,c3_HowFace,2,smiling?,120,F_758.jpg,1607455026.49693,1607455026.51936,50.7427875900269,4.86034059524536,55.6117024326324,57.7126731777191,0.3,61.7311954402924,1.30060076713562,63.0336291694641,2,right,1.28345084190369,63.031796207428,604.465207567215,607.225207567215,1607455079.99972,1607455080.00131,1607455084.86863,1607455084.87266,1607455086.9696,1607455090.98812,1607455090.99037,1607455092.29056,1607455092.28873,1607455633.72214
1,4,2,3,4,5,3,c3_HowFace,1,smiling?,116,F_083.jpg,1607455026.49693,1607455026.51936,50.7427875900269,4.86034059524536,55.6117024326324,57.7126731777191,0.3,63.3486096763611,0.817043542861938,64.1674930953979,1,left,0.796267032623291,64.165653219223,604.465207567215,607.225207567215,1607455079.99972,1607455080.00131,1607455084.86863,1607455084.87266,1607455086.9696,1607455092.60554,1607455092.60753,1607455093.42442,1607455093.42258,1607455633.72214
1,4,2,3,4,6,3,c3_HowFace,1,smiling?,118,F_759.jpg,1607455026.49693,1607455026.51936,50.7427875900269,4.86034059524536,55.6117024326324,57.7126731777191,0.3,64.4824674034119,0.950438261032104,65.4346001052856,1,left,0.941049098968506,65.432905664444,604.465207567215,607.225207567215,1607455079.99972,1607455080.00131,1607455084.86863,1607455084.87266,1607455086.9696,1607455093.7394,1607455093.74112,1607455094.69153,1607455094.68983,1607455633.72214
1,4,2,3,4,7,3,c3_HowFace,2,smiling?,114,F_412.jpg,1607455026.49693,1607455026.51936,50.7427875900269,4.86034059524536,55.6117024326324,57.7126731777191,0.3,65.7497188949585,0.80036997795105,66.5522470378876,2,right,0.788684129714966,66.5500888729095,604.465207567215,607.225207567215,1607455079.99972,1607455080.00131,1607455084.86863,1607455084.87266,1607455086.9696,1607455095.00665,1607455095.00838,1607455095.80918,1607455095.80702,1607455633.72214
1,4,2,3,4,8,3,c3_HowFace,1,smiling?,117,F_593.jpg,1607455026.49693,1607455026.51936,50.7427875900269,4.86034059524536,55.6117024326324,57.7126731777191,0.3,66.8669013881683,0.700323581695557,67.5835521125793,1,left,0.694556951522827,67.5672249698639,604.465207567215,607.225207567215,1607455079.99972,1607455080.00131,1607455084.86863,1607455084.87266,1607455086.9696,1607455096.12383,1607455096.12537,1607455096.84048,1607455096.82415,1607455633.72214
1,4,2,3,5,1,4,c4_HowHand,1,lifting?,56,H_136.jpg,1607455026.49693,1607455026.51936,67.6505961322784,5.48333692550659,73.1531383895874,75.2374336624145,2.08429527282715,75.4041776561737,1.40064692497253,76.8070139789581,1,left,1.38626003265381,76.8048245811462,604.465207567215,607.225207567215,1607455096.90753,1607455096.91077,1607455102.41007,1607455102.41436,1607455104.49436,1607455104.66111,1607455104.66341,1607455106.06394,1607455106.06175,1607455633.72214
1,4,2,3,5,2,4,c4_HowHand,2,lifting?,51,H_038.jpg,1607455026.49693,1607455026.51936,67.6505961322784,5.48333692550659,73.1531383895874,75.2374336624145,0.3,77.1216375732422,0.900415897369385,78.0240731143951,2,right,0.885759115219116,78.0220534706116,604.465207567215,607.225207567215,1607455096.90753,1607455096.91077,1607455102.41007,1607455102.41436,1607455104.49436,1607455106.37857,1607455106.38037,1607455107.281,1607455107.27898,1607455633.72214
1,4,2,3,5,3,4,c4_HowHand,1,lifting?,52,H_189.jpg,1607455026.49693,1607455026.51936,67.6505961322784,5.48333692550659,73.1531383895874,75.2374336624145,0.3,78.3388662242889,1.71746015548706,80.2419819736481,1,left,1.88378210067749,80.056326379776,604.465207567215,607.225207567215,1607455096.90753,1607455096.91077,1607455102.41007,1607455102.41436,1607455104.49436,1607455107.5958,1607455107.59745,1607455109.49891,1607455109.31326,1607455633.72214
1,4,2,3,5,4,4,c4_HowHand,2,lifting?,53,H_077.jpg,1607455026.49693,1607455026.51936,67.6505961322784,5.48333692550659,73.1531383895874,75.2374336624145,0.3,80.3731398487091,1.06716012954712,81.451492061615,2,right,1.05783414840698,81.4402999782562,604.465207567215,607.225207567215,1607455096.90753,1607455096.91077,1607455102.41007,1607455102.41436,1607455104.49436,1607455109.63007,1607455109.63172,1607455110.70842,1607455110.69723,1607455633.72214
1,4,2,3,5,5,4,c4_HowHand,1,lifting?,50,H_443.jpg,1607455026.49693,1607455026.51936,67.6505961322784,5.48333692550659,73.1531383895874,75.2374336624145,0.3,81.7571120166779,0.950440168380737,82.7091491127014,1,left,0.928832054138184,82.7075521850586,604.465207567215,607.225207567215,1607455096.90753,1607455096.91077,1607455102.41007,1607455102.41436,1607455104.49436,1607455111.01404,1607455111.01567,1607455111.96608,1607455111.96448,1607455633.72214
1,4,2,3,5,6,4,c4_HowHand,2,lifting?,55,H_012.jpg,1607455026.49693,1607455026.51936,67.6505961322784,5.48333692550659,73.1531383895874,75.2374336624145,0.3,83.0243639850616,1.06716012954712,84.1022090816498,2,right,1.05509495735168,84.0915241146088,604.465207567215,607.225207567215,1607455096.90753,1607455096.91077,1607455102.41007,1607455102.41436,1607455104.49436,1607455112.28129,1607455112.28341,1607455113.35914,1607455113.34845,1607455633.72214
1,4,2,3,5,7,4,c4_HowHand,1,lifting?,49,H_362.jpg,1607455026.49693,1607455026.51936,67.6505961322784,5.48333692550659,73.1531383895874,75.2374336624145,0.3,84.4083371067047,0.817043542861938,85.2270140552521,1,left,0.801671028137207,85.2253806495666,604.465207567215,607.225207567215,1607455096.90753,1607455096.91077,1607455102.41007,1607455102.41436,1607455104.49436,1607455113.66527,1607455113.66735,1607455114.48394,1607455114.48231,1607455633.72214
1,4,2,3,5,8,4,c4_HowHand,1,lifting?,54,H_170.jpg,1607455026.49693,1607455026.51936,67.6505961322784,5.48333692550659,73.1531383895874,75.2374336624145,0.3,85.5421941184998,1.38397216796875,86.9357051753998,1,left,1.36861395835876,86.9261662864685,604.465207567215,607.225207567215,1607455096.90753,1607455096.91077,1607455102.41007,1607455102.41436,1607455104.49436,1607455114.79912,1607455114.80115,1607455116.19263,1607455116.1831,1607455633.72214
1,4,2,3,6,1,2,c2_WhyHand,1,helping?,38,H_077.jpg,1607455026.49693,1607455026.51936,87.0262122058868,8.58887887001038,95.6301863098144,97.7311570549011,2.10097074508667,97.8812262916565,1.03381013870239,98.916913022995,1,left,1.0137050151825,98.9150364303589,604.465207567215,607.225207567215,1607455116.28314,1607455116.28501,1607455124.88712,1607455124.89355,1607455126.98809,1607455127.13816,1607455127.13964,1607455128.17384,1607455128.17197,1607455633.72214
1,4,2,3,6,2,2,c2_WhyHand,1,helping?,36,H_349.jpg,1607455026.49693,1607455026.51936,87.0262122058868,8.58887887001038,95.6301863098144,97.7311570549011,0.3,99.2318503761291,0.900415182113647,100.136533966064,1,left,0.885864973068237,100.132265558243,604.465207567215,607.225207567215,1607455116.28314,1607455116.28501,1607455124.88712,1607455124.89355,1607455126.98809,1607455128.48878,1607455128.49355,1607455129.39346,1607455129.38919,1607455633.72214
1,4,2,3,6,3,2,c2_WhyHand,1,helping?,37,H_474.jpg,1607455026.49693,1607455026.51936,87.0262122058868,8.58887887001038,95.6301863098144,97.7311570549011,0.3,100.449079027176,0.716997861862183,101.170109977722,1,left,0.703246116638184,101.166076889038,604.465207567215,607.225207567215,1607455116.28314,1607455116.28501,1607455124.88712,1607455124.89355,1607455126.98809,1607455129.70601,1607455129.70961,1607455130.42704,1607455130.42301,1607455633.72214
1,4,2,3,6,4,2,c2_WhyHand,1,helping?,39,H_024.jpg,1607455026.49693,1607455026.51936,87.0262122058868,8.58887887001038,95.6301863098144,97.7311570549011,0.3,101.482889881134,1.3172755241394,102.803359975815,2,right,1.29991483688354,102.800165405273,604.465207567215,607.225207567215,1607455116.28314,1607455116.28501,1607455124.88712,1607455124.89355,1607455126.98809,1607455130.73982,1607455130.74372,1607455132.06029,1607455132.05709,1607455633.72214
1,4,2,3,6,5,2,c2_WhyHand,2,helping?,40,H_012.jpg,1607455026.49693,1607455026.51936,87.0262122058868,8.58887887001038,95.6301863098144,97.7311570549011,0.3,103.116978874207,1.71745800971985,104.925158014297,2,right,1.78806204795837,104.834436883926,604.465207567215,607.225207567215,1607455116.28314,1607455116.28501,1607455124.88712,1607455124.89355,1607455126.98809,1607455132.37391,1607455132.37717,1607455134.18209,1607455134.09137,1607455633.72214
1,4,2,3,6,6,2,c2_WhyHand,2,helping?,35,H_159.jpg,1607455026.49693,1607455026.51936,87.0262122058868,8.58887887001038,95.6301863098144,97.7311570549011,0.3,105.151250352859,1.10050916671753,106.253648033142,2,right,1.08728194236755,106.251759519577,604.465207567215,607.225207567215,1607455116.28314,1607455116.28501,1607455124.88712,1607455124.89355,1607455126.98809,1607455134.40818,1607455134.41063,1607455135.51058,1607455135.50869,1607455633.72214
1,4,2,3,6,7,2,c2_WhyHand,1,helping?,34,H_111.jpg,1607455026.49693,1607455026.51936,87.0262122058868,8.58887887001038,95.6301863098144,97.7311570549011,0.3,106.568572034836,1.18388056755066,107.754104127884,1,left,1.17741012573242,107.752452602386,604.465207567215,607.225207567215,1607455116.28314,1607455116.28501,1607455124.88712,1607455124.89355,1607455126.98809,1607455135.8255,1607455135.82745,1607455137.01103,1607455137.00938,1607455633.72214
1,4,2,3,6,8,2,c2_WhyHand,2,helping?,33,H_091.jpg,1607455026.49693,1607455026.51936,87.0262122058868,8.58887887001038,95.6301863098144,97.7311570549011,0.3,108.069265594482,0.867067337036133,108.938312997818,1,left,0.858514785766602,108.936332931519,604.465207567215,607.225207567215,1607455116.28314,1607455116.28501,1607455124.88712,1607455124.89355,1607455126.98809,1607455137.32619,1607455137.32795,1607455138.19524,1607455138.19326,1607455633.72214
1,4,2,3,7,1,1,c1_WhyFace,1,proud?,104,F_598.jpg,1607455026.49693,1607455026.51936,109.003030052185,4.48702096939087,113.505109539032,115.606079568863,2.10097002983093,115.7561485672,0.950438737869263,116.708368053436,1,left,0.928575038909912,116.706587305069,604.465207567215,607.225207567215,1607455138.25996,1607455138.26105,1607455142.76204,1607455142.76386,1607455144.86301,1607455145.01308,1607455145.01518,1607455145.9653,1607455145.96352,1607455633.72214
1,4,2,3,7,2,1,c1_WhyFace,2,proud?,102,F_760.jpg,1607455026.49693,1607455026.51936,109.003030052185,4.48702096939087,113.505109539032,115.606079568863,0.3,117.023401727676,0.850391626358032,117.875365009308,2,right,0.830896854400635,117.873793354034,604.465207567215,607.225207567215,1607455138.25996,1607455138.26105,1607455142.76204,1607455142.76386,1607455144.86301,1607455146.28033,1607455146.28196,1607455147.13229,1607455147.13072,1607455633.72214
1,4,2,3,7,3,1,c1_WhyFace,1,proud?,97,F_582.jpg,1607455026.49693,1607455026.51936,109.003030052185,4.48702096939087,113.505109539032,115.606079568863,0.3,118.190606107712,1.31727600097656,119.509453048706,1,left,1.29653406143188,119.507882108688,604.465207567215,607.225207567215,1607455138.25996,1607455138.26105,1607455142.76204,1607455142.76386,1607455144.86301,1607455147.44754,1607455147.44953,1607455148.76638,1607455148.76481,1607455633.72214
1,4,2,3,7,4,1,c1_WhyFace,2,proud?,98,F_412.jpg,1607455026.49693,1607455026.51936,109.003030052185,4.48702096939087,113.505109539032,115.606079568863,0.3,119.824695577621,1.31727409362793,121.143742074966,2,right,1.29909801483154,121.141969671249,604.465207567215,607.225207567215,1607455138.25996,1607455138.26105,1607455142.76204,1607455142.76386,1607455144.86301,1607455149.08162,1607455149.08382,1607455150.40067,1607455150.3989,1607455633.72214
1,4,2,3,7,5,1,c1_WhyFace,1,proud?,101,F_083.jpg,1607455026.49693,1607455026.51936,109.003030052185,4.48702096939087,113.505109539032,115.606079568863,0.3,121.458782663345,0.900415658950806,122.360716094971,1,left,0.884423017501831,122.359198322296,604.465207567215,607.225207567215,1607455138.25996,1607455138.26105,1607455142.76204,1607455142.76386,1607455144.86301,1607455150.71571,1607455150.71758,1607455151.61765,1607455151.61613,1607455633.72214
1,4,2,3,7,6,1,c1_WhyFace,2,proud?,100,F_776.jpg,1607455026.49693,1607455026.51936,109.003030052185,4.48702096939087,113.505109539032,115.606079568863,0.3,122.676011552811,1.31727576255798,123.995198001862,2,right,1.29521417617798,123.993287315369,604.465207567215,607.225207567215,1607455138.25996,1607455138.26105,1607455142.76204,1607455142.76386,1607455144.86301,1607455151.93294,1607455151.9351,1607455153.25213,1607455153.25022,1607455633.72214
1,4,2,3,7,7,1,c1_WhyFace,1,proud?,103,F_618.jpg,1607455026.49693,1607455026.51936,109.003030052185,4.48702096939087,113.505109539032,115.606079568863,0.3,124.310100784302,0.867066383361816,125.188815107346,1,left,0.857039213180542,125.177167167664,604.465207567215,607.225207567215,1607455138.25996,1607455138.26105,1607455142.76204,1607455142.76386,1607455144.86301,1607455153.56703,1607455153.56861,1607455154.44574,1607455154.4341,1607455633.72214
1,4,2,3,7,8,1,c1_WhyFace,1,proud?,99,F_695.jpg,1607455026.49693,1607455026.51936,109.003030052185,4.48702096939087,113.505109539032,115.606079568863,0.3,125.493980636597,0.96711277961731,126.472822179794,1,left,0.955603122711182,126.461093416214,604.465207567215,607.225207567215,1607455138.25996,1607455138.26105,1607455142.76204,1607455142.76386,1607455144.86301,1607455154.75091,1607455154.75274,1607455155.72975,1607455155.71802,1607455633.72214
1,4,2,3,8,1,3,c3_HowFace,1,looking to side?,72,F_590.jpg,1607455026.49693,1607455026.51936,126.54446600914,4.47560405731201,131.029870500565,133.130840768814,2.10097026824951,133.280910482407,1.38397216796875,134.666445007324,1,left,1.35377097129822,134.664882650375,604.465207567215,607.225207567215,1607455155.80139,1607455155.80336,1607455160.2868,1607455160.29663,1607455162.38777,1607455162.53784,1607455162.54848,1607455163.92337,1607455163.92181,1607455633.72214
1,4,2,3,8,2,3,c3_HowFace,1,looking to side?,71,F_433.jpg,1607455026.49693,1607455026.51936,126.54446600914,4.47560405731201,131.029870500565,133.130840768814,0.3,134.981695642471,0.650299787521362,135.639528980255,1,left,0.635584115982056,135.631995429993,604.465207567215,607.225207567215,1607455155.80139,1607455155.80336,1607455160.2868,1607455160.29663,1607455162.38777,1607455164.23862,1607455164.24057,1607455164.89646,1607455164.88892,1607455633.72214
1,4,2,3,8,3,3,c3_HowFace,1,looking to side?,67,F_716.jpg,1607455026.49693,1607455026.51936,126.54446600914,4.47560405731201,131.029870500565,133.130840768814,0.3,135.948808898926,0.683648586273193,136.640057077408,1,left,0.678240060806274,136.632457485199,604.465207567215,607.225207567215,1607455155.80139,1607455155.80336,1607455160.2868,1607455160.29663,1607455162.38777,1607455165.20574,1607455165.20735,1607455165.89699,1607455165.88939,1607455633.72214
1,4,2,3,8,4,3,c3_HowFace,2,looking to side?,70,F_779.jpg,1607455026.49693,1607455026.51936,126.54446600914,4.47560405731201,131.029870500565,133.130840768814,0.3,136.949271669388,0.750345468521118,137.70696805954,1,left,0.736291170120239,137.699617137909,604.465207567215,607.225207567215,1607455155.80139,1607455155.80336,1607455160.2868,1607455160.29663,1607455162.38777,1607455166.2062,1607455166.20807,1607455166.9639,1607455166.95655,1607455633.72214
1,4,2,3,8,5,3,c3_HowFace,1,looking to side?,68,F_760.jpg,1607455026.49693,1607455026.51936,126.54446600914,4.47560405731201,131.029870500565,133.130840768814,0.3,138.016430606842,1.11718273162842,139.140271177292,1,left,1.1107919216156,139.13361333847,604.465207567215,607.225207567215,1607455155.80139,1607455155.80336,1607455160.2868,1607455160.29663,1607455162.38777,1607455167.27336,1607455167.27494,1607455168.3972,1607455168.39054,1607455633.72214
1,4,2,3,8,6,3,c3_HowFace,2,looking to side?,66,F_111.jpg,1607455026.49693,1607455026.51936,126.54446600914,4.47560405731201,131.029870500565,133.130840768814,0.3,139.450426807404,1.13385701179504,140.585885038376,2,right,1.11276602745056,140.584283819199,604.465207567215,607.225207567215,1607455155.80139,1607455155.80336,1607455160.2868,1607455160.29663,1607455162.38777,1607455168.70736,1607455168.70896,1607455169.84281,1607455169.84121,1607455633.72214
1,4,2,3,8,7,3,c3_HowFace,1,looking to side?,69,F_110.jpg,1607455026.49693,1607455026.51936,126.54446600914,4.47560405731201,131.029870500565,133.130840768814,0.3,140.901096572876,0.867067098617554,141.770013084412,1,left,0.846681833267212,141.768163671494,604.465207567215,607.225207567215,1607455155.80139,1607455155.80336,1607455160.2868,1607455160.29663,1607455162.38777,1607455170.15803,1607455170.15959,1607455171.02694,1607455171.02509,1607455633.72214
1,4,2,3,8,8,3,c3_HowFace,2,looking to side?,65,F_798.jpg,1607455026.49693,1607455026.51936,126.54446600914,4.47560405731201,131.029870500565,133.130840768814,0.3,142.084976186752,1.33395051956177,143.423972120285,2,right,1.3181300163269,143.418926706314,604.465207567215,607.225207567215,1607455155.80139,1607455155.80336,1607455160.2868,1607455160.29663,1607455162.38777,1607455171.34191,1607455171.34674,1607455172.6809,1607455172.67586,1607455633.72214
1,4,2,3,9,1,1,c1_WhyFace,1,argument?,43,F_716.jpg,1607455026.49693,1607455026.51936,143.485623588562,6.64244437217712,150.138696422577,152.239666213989,2.10096979141235,152.389735450745,1.48401880264282,153.875627985001,1,left,1.47171401977539,153.873754253387,604.465207567215,607.225207567215,1607455172.74255,1607455172.74746,1607455179.39563,1607455179.39785,1607455181.4966,1607455181.64666,1607455181.64821,1607455183.13256,1607455183.13068,1607455633.72214
1,4,2,3,9,2,1,c1_WhyFace,2,argument?,44,F_139.jpg,1607455026.49693,1607455026.51936,143.485623588562,6.64244437217712,150.138696422577,152.239666213989,0.3,154.190567245483,1.16720628738403,155.359824171066,2,right,1.15934991836548,155.357773532867,604.465207567215,607.225207567215,1607455172.74255,1607455172.74746,1607455179.39563,1607455179.39785,1607455181.4966,1607455183.4475,1607455183.44937,1607455184.61675,1607455184.6147,1607455633.72214
1,4,2,3,9,3,1,c1_WhyFace,1,argument?,41,F_712.jpg,1607455026.49693,1607455026.51936,143.485623588562,6.64244437217712,150.138696422577,152.239666213989,0.3,155.674586524963,1.01713514328003,156.708479156494,1,left,1.01055812835693,156.691721668243,604.465207567215,607.225207567215,1607455172.74255,1607455172.74746,1607455179.39563,1607455179.39785,1607455181.4966,1607455184.93152,1607455184.93327,1607455185.96541,1607455185.94865,1607455633.72214
1,4,2,3,9,4,1,c1_WhyFace,2,argument?,45,F_433.jpg,1607455026.49693,1607455026.51936,143.485623588562,6.64244437217712,150.138696422577,152.239666213989,0.3,157.008535614014,1.21722936630249,158.227301111221,2,right,1.21012091636658,158.225764980316,604.465207567215,607.225207567215,1607455172.74255,1607455172.74746,1607455179.39563,1607455179.39785,1607455181.4966,1607455186.26546,1607455186.26646,1607455187.48423,1607455187.48269,1607455633.72214
1,4,2,3,9,5,1,c1_WhyFace,1,argument?,42,F_403.jpg,1607455026.49693,1607455026.51936,143.485623588562,6.64244437217712,150.138696422577,152.239666213989,0.3,158.542577733994,1.70078635215759,160.245391120911,1,left,1.67966294288635,160.243364086151,604.465207567215,607.225207567215,1607455172.74255,1607455172.74746,1607455179.39563,1607455179.39785,1607455181.4966,1607455187.79951,1607455187.8012,1607455189.50232,1607455189.50029,1607455633.72214
1,4,2,3,9,6,1,c1_WhyFace,2,argument?,46,F_844.jpg,1607455026.49693,1607455026.51936,143.485623588562,6.64244437217712,150.138696422577,152.239666213989,0.3,160.560176362991,1.11718320846558,161.679471960068,2,right,1.09813404083252,161.677359571457,604.465207567215,607.225207567215,1607455172.74255,1607455172.74746,1607455179.39563,1607455179.39785,1607455181.4966,1607455189.81711,1607455189.81875,1607455190.9364,1607455190.93429,1607455633.72214
1,4,2,3,9,7,1,c1_WhyFace,1,argument?,47,F_743.jpg,1607455026.49693,1607455026.51936,143.485623588562,6.64244437217712,150.138696422577,152.239666213989,0.3,161.994172801971,1.25057721138,163.246731987,1,left,1.23546099662781,163.244750013351,604.465207567215,607.225207567215,1607455172.74255,1607455172.74746,1607455179.39563,1607455179.39785,1607455181.4966,1607455191.2511,1607455191.25226,1607455192.50366,1607455192.50168,1607455633.72214
1,4,2,3,9,8,1,c1_WhyFace,1,argument?,48,F_758.jpg,1607455026.49693,1607455026.51936,143.485623588562,6.64244437217712,150.138696422577,152.239666213989,0.3,163.561562767029,1.0671603679657,164.630614032745,1,left,1.0557849407196,164.628723134995,604.465207567215,607.225207567215,1607455172.74255,1607455172.74746,1607455179.39563,1607455179.39785,1607455181.4966,1607455192.81849,1607455192.82063,1607455193.88754,1607455193.88565,1607455633.72214
1,4,2,3,10,1,3,c3_HowFace,1,open mouth?,80,F_844.jpg,1607455026.49693,1607455026.51936,164.695419540405,3.27253460884094,167.980270614624,170.081240644455,2.10097002983093,170.231310358047,0.88374137878418,171.117004146576,1,left,0.869753837585449,171.115051736832,604.465207567215,607.225207567215,1607455193.95235,1607455193.95416,1607455197.2372,1607455197.23927,1607455199.33817,1607455199.48824,1607455199.49006,1607455200.37393,1607455200.37198,1607455633.72214
1,4,2,3,10,2,3,c3_HowFace,1,open mouth?,74,F_776.jpg,1607455026.49693,1607455026.51936,164.695419540405,3.27253460884094,167.980270614624,170.081240644455,0.3,171.431865205765,0.483556985855103,171.917304029465,1,left,0.469475030899048,171.91542219162,604.465207567215,607.225207567215,1607455193.95235,1607455193.95416,1607455197.2372,1607455197.23927,1607455199.33817,1607455200.68879,1607455200.69097,1607455201.17423,1607455201.17235,1607455633.72214
1,4,2,3,10,3,3,c3_HowFace,2,open mouth?,76,F_544.jpg,1607455026.49693,1607455026.51936,164.695419540405,3.27253460884094,167.980270614624,170.081240644455,0.3,172.232234706879,0.850391626358032,173.093342056274,2,right,0.837833881378174,173.082626333237,604.465207567215,607.225207567215,1607455193.95235,1607455193.95416,1607455197.2372,1607455197.23927,1607455199.33817,1607455201.48916,1607455201.49081,1607455202.35027,1607455202.33956,1607455633.72214
1,4,2,3,10,4,3,c3_HowFace,1,open mouth?,78,F_692.jpg,1607455026.49693,1607455026.51936,164.695419540405,3.27253460884094,167.980270614624,170.081240644455,0.3,173.39943980217,0.550254583358765,173.960199108124,1,left,0.53952693939209,173.949694385529,604.465207567215,607.225207567215,1607455193.95235,1607455193.95416,1607455197.2372,1607455197.23927,1607455199.33817,1607455202.65637,1607455202.65832,1607455203.21713,1607455203.20662,1607455633.72214
1,4,2,3,10,5,3,c3_HowFace,2,open mouth?,77,F_584.jpg,1607455026.49693,1607455026.51936,164.695419540405,3.27253460884094,167.980270614624,170.081240644455,0.3,174.266507616043,0.933763980865479,175.201979150772,2,right,0.917378902435303,175.200271596909,604.465207567215,607.225207567215,1607455193.95235,1607455193.95416,1607455197.2372,1607455197.23927,1607455199.33817,1607455203.52344,1607455203.52542,1607455204.45891,1607455204.4572,1607455633.72214
1,4,2,3,10,6,3,c3_HowFace,1,open mouth?,73,F_403.jpg,1607455026.49693,1607455026.51936,164.695419540405,3.27253460884094,167.980270614624,170.081240644455,0.3,175.517084827423,0.600277900695801,176.119412174225,1,left,0.583622932434082,176.117362728119,604.465207567215,607.225207567215,1607455193.95235,1607455193.95416,1607455197.2372,1607455197.23927,1607455199.33817,1607455204.77401,1607455204.77639,1607455205.37634,1607455205.37429,1607455633.72214
1,4,2,3,10,7,3,c3_HowFace,1,open mouth?,75,F_086.jpg,1607455026.49693,1607455026.51936,164.695419540405,3.27253460884094,167.980270614624,170.081240644455,0.3,176.434175481796,0.583602428436279,177.019591083527,1,left,0.569533109664917,177.017777910233,604.465207567215,607.225207567215,1607455193.95235,1607455193.95416,1607455197.2372,1607455197.23927,1607455199.33817,1607455205.6911,1607455205.6921,1607455206.27652,1607455206.27471,1607455633.72214
1,4,2,3,10,8,3,c3_HowFace,2,open mouth?,79,F_648.jpg,1607455026.49693,1607455026.51936,164.695419540405,3.27253460884094,167.980270614624,170.081240644455,0.3,177.334591140747,0.917090892791748,178.260616054535,2,right,0.905033111572266,178.251682033539,604.465207567215,607.225207567215,1607455193.95235,1607455193.95416,1607455197.2372,1607455197.23927,1607455199.33817,1607455206.59152,1607455206.59356,1607455207.51754,1607455207.50861,1607455633.72214
1,4,2,3,11,1,4,c4_HowHand,1,pressing button?,88,H_019.jpg,1607455026.49693,1607455026.51936,178.318378200531,7.53958177566528,185.871867647171,187.972837677002,2.10097002983093,188.122907629013,1.13385605812073,189.261499156952,1,left,1.12316608428955,189.256763687134,604.465207567215,607.225207567215,1607455207.57531,1607455207.58417,1607455215.1288,1607455215.13491,1607455217.22977,1607455217.37984,1607455217.38428,1607455218.51843,1607455218.51369,1607455633.72214
1,4,2,3,11,2,4,c4_HowHand,2,pressing button?,87,H_024.jpg,1607455026.49693,1607455026.51936,178.318378200531,7.53958177566528,185.871867647171,187.972837677002,0.3,189.573577632904,1.0671591758728,190.644667139053,2,right,1.04949402809143,190.640736808777,604.465207567215,607.225207567215,1607455207.57531,1607455207.58417,1607455215.1288,1607455215.13491,1607455217.22977,1607455218.83051,1607455218.83474,1607455219.9016,1607455219.89767,1607455633.72214
1,4,2,3,11,3,4,c4_HowHand,2,pressing button?,85,H_130.jpg,1607455026.49693,1607455026.51936,178.318378200531,7.53958177566528,185.871867647171,187.972837677002,0.3,190.957549324036,1.40064787864685,192.361468067169,2,right,1.38521003723145,192.358197202683,604.465207567215,607.225207567215,1607455207.57531,1607455207.58417,1607455215.1288,1607455215.13491,1607455217.22977,1607455220.21448,1607455220.21828,1607455221.6184,1607455221.61513,1607455633.72214
1,4,2,3,11,4,4,c4_HowHand,1,pressing button?,83,H_502.jpg,1607455026.49693,1607455026.51936,178.318378200531,7.53958177566528,185.871867647171,187.972837677002,0.3,192.67500995636,0.616951704025269,193.294900169373,1,left,0.596688985824585,193.291961660385,604.465207567215,607.225207567215,1607455207.57531,1607455207.58417,1607455215.1288,1607455215.13491,1607455217.22977,1607455221.93194,1607455221.93502,1607455222.55183,1607455222.54889,1607455633.72214
1,4,2,3,11,5,4,c4_HowHand,2,pressing button?,81,H_261.jpg,1607455026.49693,1607455026.51936,178.318378200531,7.53958177566528,185.871867647171,187.972837677002,0.3,193.608774175644,1.51736736297607,195.128266086578,2,right,1.49997901916504,195.12614153862,604.465207567215,607.225207567215,1607455207.57531,1607455207.58417,1607455215.1288,1607455215.13491,1607455217.22977,1607455222.8657,1607455222.86891,1607455224.3852,1607455224.38307,1607455633.72214
1,4,2,3,11,6,4,c4_HowHand,1,pressing button?,86,H_332.jpg,1607455026.49693,1607455026.51936,178.318378200531,7.53958177566528,185.871867647171,187.972837677002,0.3,195.442955007553,0.716997623443604,196.161586036682,1,left,0.709851980209351,196.159952630997,604.465207567215,607.225207567215,1607455207.57531,1607455207.58417,1607455215.1288,1607455215.13491,1607455217.22977,1607455224.69988,1607455224.70198,1607455225.41851,1607455225.41688,1607455633.72214
1,4,2,3,11,7,4,c4_HowHand,1,pressing button?,82,H_126.jpg,1607455026.49693,1607455026.51936,178.318378200531,7.53958177566528,185.871867647171,187.972837677002,0.3,196.47676609993,0.633625984191895,197.112135162354,1,left,0.617901086807251,197.110392084122,604.465207567215,607.225207567215,1607455207.57531,1607455207.58417,1607455215.1288,1607455215.13491,1607455217.22977,1607455225.7337,1607455225.73517,1607455226.36906,1607455226.36732,1607455633.72214
1,4,2,3,11,8,4,c4_HowHand,1,pressing button?,84,H_483.jpg,1607455026.49693,1607455026.51936,178.318378200531,7.53958177566528,185.871867647171,187.972837677002,0.3,197.427204122543,0.700323820114136,198.129247179031,1,left,0.693011045455933,198.127527942657,604.465207567215,607.225207567215,1607455207.57531,1607455207.58417,1607455215.1288,1607455215.13491,1607455217.22977,1607455226.68413,1607455226.68638,1607455227.38618,1607455227.38446,1607455633.72214
1,4,2,3,12,1,2,c2_WhyHand,1,competing?,9,H_261.jpg,1607455026.49693,1607455026.51936,198.210900297165,5.43717169761658,203.663418521881,205.764388313293,2.10096979141235,205.914458742142,1.11718153953552,207.033481111526,1,left,1.09920001029968,207.031640281677,604.465207567215,607.225207567215,1607455227.46783,1607455227.46948,1607455232.92035,1607455232.92168,1607455235.02132,1607455235.17139,1607455235.17349,1607455236.29041,1607455236.28857,1607455633.72214
1,4,2,3,12,2,2,c2_WhyHand,2,competing?,12,H_483.jpg,1607455026.49693,1607455026.51936,198.210900297165,5.43717169761658,203.663418521881,205.764388313293,0.3,207.348453035355,0.68364953994751,208.046442022324,2,right,0.6755530834198,208.032102575302,604.465207567215,607.225207567215,1607455227.46783,1607455227.46948,1607455232.92035,1607455232.92168,1607455235.02132,1607455236.60538,1607455236.60807,1607455237.30337,1607455237.28903,1607455633.72214
1,4,2,3,12,3,2,c2_WhyHand,1,competing?,14,H_132.jpg,1607455026.49693,1607455026.51936,198.210900297165,5.43717169761658,203.663418521881,205.764388313293,0.3,208.348916044235,0.683648347854614,209.046557178497,1,left,0.675160884857178,209.03256439209,604.465207567215,607.225207567215,1607455227.46783,1607455227.46948,1607455232.92035,1607455232.92168,1607455235.02132,1607455237.60584,1607455237.60759,1607455238.30349,1607455238.28949,1607455633.72214
1,4,2,3,12,4,2,c2_WhyHand,2,competing?,10,H_126.jpg,1607455026.49693,1607455026.51936,198.210900297165,5.43717169761658,203.663418521881,205.764388313293,0.3,209.349377622604,1.33394980430603,210.685113182068,2,right,1.31686305999756,210.68332742691,604.465207567215,607.225207567215,1607455227.46783,1607455227.46948,1607455232.92035,1607455232.92168,1607455235.02132,1607455238.60631,1607455238.6081,1607455239.94204,1607455239.94026,1607455633.72214
1,4,2,3,12,5,2,c2_WhyHand,1,competing?,16,H_136.jpg,1607455026.49693,1607455026.51936,198.210900297165,5.43717169761658,203.663418521881,205.764388313293,0.3,211.000140419006,1.05048489570618,212.06343006134,1,left,1.04129099845886,212.050625314713,604.465207567215,607.225207567215,1607455227.46783,1607455227.46948,1607455232.92035,1607455232.92168,1607455235.02132,1607455240.25707,1607455240.25882,1607455241.32036,1607455241.30755,1607455633.72214
1,4,2,3,12,6,2,c2_WhyHand,2,competing?,11,H_502.jpg,1607455026.49693,1607455026.51936,198.210900297165,5.43717169761658,203.663418521881,205.764388313293,0.3,212.367439498901,1.71745872497559,NaN,0,NA,0,214.084898223877,604.465207567215,607.225207567215,1607455227.46783,1607455227.46948,1607455232.92035,1607455232.92168,1607455235.02132,1607455241.62437,1607455241.62558,NaN,1607455243.34183,1607455633.72214
1,4,2,3,12,7,2,c2_WhyHand,1,competing?,13,H_003.jpg,1607455026.49693,1607455026.51936,198.210900297165,5.43717169761658,203.663418521881,205.764388313293,0.3,214.401711454391,0.833718061447144,215.237361183167,1,left,0.818397998809814,215.235429515839,604.465207567215,607.225207567215,1607455227.46783,1607455227.46948,1607455232.92035,1607455232.92168,1607455235.02132,1607455243.65864,1607455243.66014,1607455244.49429,1607455244.49236,1607455633.72214
1,4,2,3,12,8,2,c2_WhyHand,1,competing?,15,H_170.jpg,1607455026.49693,1607455026.51936,198.210900297165,5.43717169761658,203.663418521881,205.764388313293,0.3,215.552241792679,0.867069005966187,216.421260108948,1,left,0.853946208953857,216.419310798645,604.465207567215,607.225207567215,1607455227.46783,1607455227.46948,1607455232.92035,1607455232.92168,1607455235.02132,1607455244.80917,1607455244.81107,1607455245.67819,1607455245.67624,1607455633.72214
1,4,2,3,13,1,1,c1_WhyFace,1,self-doubt?,29,F_544.jpg,1607455026.49693,1607455026.51936,216.486007919312,5.23196721076965,221.721759309769,223.822729101181,2.10096979141235,223.972798337936,1.56739187240601,225.547881116867,1,left,1.5492308139801,225.540190210342,604.465207567215,607.225207567215,1607455245.74294,1607455245.7541,1607455250.97869,1607455250.9878,1607455253.07966,1607455253.22973,1607455253.23826,1607455254.80481,1607455254.79712,1607455633.72214
1,4,2,3,13,2,1,c1_WhyFace,2,self-doubt?,27,F_086.jpg,1607455026.49693,1607455026.51936,216.486007919312,5.23196721076965,221.721759309769,223.822729101181,0.3,225.857002487183,1.18387961387634,227.042634954453,2,right,1.16203093528748,227.040882101059,604.465207567215,607.225207567215,1607455245.74294,1607455245.7541,1607455250.97869,1607455250.9878,1607455253.07966,1607455255.11393,1607455255.11562,1607455256.29956,1607455256.29781,1607455633.72214
1,4,2,3,13,3,1,c1_WhyFace,1,self-doubt?,25,F_798.jpg,1607455026.49693,1607455026.51936,216.486007919312,5.23196721076965,221.721759309769,223.822729101181,0.3,227.357695569992,0.73367166519165,228.09790514946,1,left,0.722211837768555,228.091367235184,604.465207567215,607.225207567215,1607455245.74294,1607455245.7541,1607455250.97869,1607455250.9878,1607455253.07966,1607455256.61462,1607455256.6164,1607455257.35483,1607455257.3483,1607455633.72214
1,4,2,3,13,4,1,c1_WhyFace,1,self-doubt?,26,F_111.jpg,1607455026.49693,1607455026.51936,216.486007919312,5.23196721076965,221.721759309769,223.822729101181,0.3,228.408180704117,0.716997385025024,229.126705160141,1,left,0.696253061294556,229.125178089142,604.465207567215,607.225207567215,1607455245.74294,1607455245.7541,1607455250.97869,1607455250.9878,1607455253.07966,1607455257.66511,1607455257.66658,1607455258.38363,1607455258.38211,1607455633.72214
1,4,2,3,13,5,1,c1_WhyFace,2,self-doubt?,31,F_774.jpg,1607455026.49693,1607455026.51936,216.486007919312,5.23196721076965,221.721759309769,223.822729101181,0.3,229.441992511749,1.65076065063477,231.094346990585,2,right,1.62942695617676,231.092753162384,604.465207567215,607.225207567215,1607455245.74294,1607455245.7541,1607455250.97869,1607455250.9878,1607455253.07966,1607455258.69892,1607455258.70137,1607455260.35128,1607455260.34968,1607455633.72214
1,4,2,3,13,6,1,c1_WhyFace,1,self-doubt?,28,F_754.jpg,1607455026.49693,1607455026.51936,216.486007919312,5.23196721076965,221.721759309769,223.822729101181,0.3,231.409567346573,0.666974782943726,232.081552019119,1,left,0.654732942581177,232.076542129517,604.465207567215,607.225207567215,1607455245.74294,1607455245.7541,1607455250.97869,1607455250.9878,1607455253.07966,1607455260.6665,1607455260.66764,1607455261.33848,1607455261.33347,1607455633.72214
1,4,2,3,13,7,1,c1_WhyFace,2,self-doubt?,32,F_128.jpg,1607455026.49693,1607455026.51936,216.486007919312,5.23196721076965,221.721759309769,223.822729101181,0.3,232.393354167938,1.35062479972839,233.748847951889,1,left,1.33308911323547,233.743978967667,604.465207567215,607.225207567215,1607455245.74294,1607455245.7541,1607455250.97869,1607455250.9878,1607455253.07966,1607455261.65028,1607455261.656,1607455263.00578,1607455263.00091,1607455633.72214
1,4,2,3,13,8,1,c1_WhyFace,1,self-doubt?,30,F_584.jpg,1607455026.49693,1607455026.51936,216.486007919312,5.23196721076965,221.721759309769,223.822729101181,0.3,234.060792198181,1.11718273162842,235.181426038742,1,left,1.1084189414978,235.17797492981,604.465207567215,607.225207567215,1607455245.74294,1607455245.7541,1607455250.97869,1607455250.9878,1607455253.07966,1607455263.31772,1607455263.32234,1607455264.43835,1607455264.4349,1607455633.72214
1,4,2,3,14,1,3,c3_HowFace,1,looking at camera?,64,F_128.jpg,1607455026.49693,1607455026.51936,235.244672050476,5.52733707427979,240.780561676025,242.881532182693,2.10097050666809,243.031601896286,1.15053176879883,244.199547996521,1,left,1.14502906799316,244.182133665085,604.465207567215,607.225207567215,1607455264.5016,1607455264.50552,1607455270.03749,1607455270.03967,1607455272.13846,1607455272.28853,1607455272.29043,1607455273.45648,1607455273.43906,1607455633.72214
1,4,2,3,14,2,3,c3_HowFace,1,looking at camera?,60,F_618.jpg,1607455026.49693,1607455026.51936,235.244672050476,5.52733707427979,240.780561676025,242.881532182693,0.3,244.498945941925,0.817044734954834,245.333140125275,1,left,0.811059951782227,245.31599067688,604.465207567215,607.225207567215,1607455264.5016,1607455264.50552,1607455270.03749,1607455270.03967,1607455272.13846,1607455273.75587,1607455273.75731,1607455274.59007,1607455274.57292,1607455633.72214
1,4,2,3,14,3,3,c3_HowFace,1,looking at camera?,62,F_598.jpg,1607455026.49693,1607455026.51936,235.244672050476,5.52733707427979,240.780561676025,242.881532182693,0.3,245.632803430557,0.600276708602905,246.234754076004,1,left,0.586714029312134,246.23308013916,604.465207567215,607.225207567215,1607455264.5016,1607455264.50552,1607455270.03749,1607455270.03967,1607455272.13846,1607455274.88973,1607455274.89133,1607455275.49168,1607455275.49001,1607455633.72214
1,4,2,3,14,4,3,c3_HowFace,2,looking at camera?,63,F_743.jpg,1607455026.49693,1607455026.51936,235.244672050476,5.52733707427979,240.780561676025,242.881532182693,0.3,246.549893608093,0.616951942443848,247.168426027298,2,right,0.602886915206909,247.166845550537,604.465207567215,607.225207567215,1607455264.5016,1607455264.50552,1607455270.03749,1607455270.03967,1607455272.13846,1607455275.80682,1607455275.80892,1607455276.42535,1607455276.42377,1607455633.72214
1,4,2,3,14,5,3,c3_HowFace,1,looking at camera?,61,F_774.jpg,1607455026.49693,1607455026.51936,235.244672050476,5.52733707427979,240.780561676025,242.881532182693,0.3,247.483658781052,0.600276470184326,248.085625162125,1,left,0.585458040237427,248.083935251236,604.465207567215,607.225207567215,1607455264.5016,1607455264.50552,1607455270.03749,1607455270.03967,1607455272.13846,1607455276.74059,1607455276.74203,1607455277.34255,1607455277.34086,1607455633.72214
1,4,2,3,14,6,3,c3_HowFace,2,looking at camera?,57,F_582.jpg,1607455026.49693,1607455026.51936,235.244672050476,5.52733707427979,240.780561676025,242.881532182693,0.3,248.400748720169,0.733671903610229,249.136087169647,1,left,0.722920179367065,249.134420623779,604.465207567215,607.225207567215,1607455264.5016,1607455264.50552,1607455270.03749,1607455270.03967,1607455272.13846,1607455277.65768,1607455277.65961,1607455278.39302,1607455278.39135,1607455633.72214
1,4,2,3,14,7,3,c3_HowFace,2,looking at camera?,58,F_754.jpg,1607455026.49693,1607455026.51936,235.244672050476,5.52733707427979,240.780561676025,242.881532182693,0.3,249.451234092712,1.45066952705383,250.903786172867,2,right,1.42971801757812,250.901903619766,604.465207567215,607.225207567215,1607455264.5016,1607455264.50552,1607455270.03749,1607455270.03967,1607455272.13846,1607455278.70816,1607455278.70984,1607455280.16072,1607455280.15883,1607455633.72214
1,4,2,3,14,8,3,c3_HowFace,1,looking at camera?,59,F_129.jpg,1607455026.49693,1607455026.51936,235.244672050476,5.52733707427979,240.780561676025,242.881532182693,0.3,251.218717327118,0.61695122718811,251.837254991531,1,left,0.607393980026245,251.835668554306,604.465207567215,607.225207567215,1607455264.5016,1607455264.50552,1607455270.03749,1607455270.03967,1607455272.13846,1607455280.47565,1607455280.47703,1607455281.09418,1607455281.0926,1607455633.72214
1,4,2,3,15,1,4,c4_HowHand,1,both hands?,123,H_167.jpg,1607455026.49693,1607455026.51936,251.902365198135,7.65970396995544,259.572575559616,261.67354511261,2.10096955299377,261.823614587784,1.35062408447266,263.184723129272,1,left,1.34046506881714,263.174238672256,604.465207567215,607.225207567215,1607455281.15929,1607455281.17368,1607455288.8295,1607455288.84156,1607455290.93047,1607455291.08054,1607455291.08218,1607455292.44165,1607455292.43117,1607455633.72214
1,4,2,3,15,2,4,c4_HowHand,2,both hands?,121,H_091.jpg,1607455026.49693,1607455026.51936,251.902365198135,7.65970396995544,259.572575559616,261.67354511261,0.3,263.491051664352,1.05048537254333,264.543627967834,2,right,1.02936601638794,264.541537036896,604.465207567215,607.225207567215,1607455281.15929,1607455281.17368,1607455288.8295,1607455288.84156,1607455290.93047,1607455292.74798,1607455292.7498,1607455293.80056,1607455293.79847,1607455633.72214
1,4,2,3,15,3,4,c4_HowHand,2,both hands?,125,H_627.jpg,1607455026.49693,1607455026.51936,251.902365198135,7.65970396995544,259.572575559616,261.67354511261,0.3,264.858349552155,1.55071592330933,266.410973062515,2,right,1.5320360660553,266.409065475464,604.465207567215,607.225207567215,1607455281.15929,1607455281.17368,1607455288.8295,1607455288.84156,1607455290.93047,1607455294.11528,1607455294.11723,1607455295.6679,1607455295.66599,1607455633.72214
1,4,2,3,15,4,4,c4_HowHand,1,both hands?,128,H_027.jpg,1607455026.49693,1607455026.51936,251.902365198135,7.65970396995544,259.572575559616,261.67354511261,0.3,266.725879659653,1.13385581970215,267.868025054932,1,left,1.12106919288635,267.859735479355,604.465207567215,607.225207567215,1607455281.15929,1607455281.17368,1607455288.8295,1607455288.84156,1607455290.93047,1607455295.98281,1607455295.98425,1607455297.12495,1607455297.11666,1607455633.72214
1,4,2,3,15,5,4,c4_HowHand,1,both hands?,122,H_111.jpg,1607455026.49693,1607455026.51936,251.902365198135,7.65970396995544,259.572575559616,261.67354511261,0.3,268.176549425125,1.71745920181274,NaN,0,NA,0,269.894008626938,604.465207567215,607.225207567215,1607455281.15929,1607455281.17368,1607455288.8295,1607455288.84156,1607455290.93047,1607455297.43348,1607455297.43533,NaN,1607455299.15094,1607455633.72214
1,4,2,3,15,6,4,c4_HowHand,2,both hands?,126,H_159.jpg,1607455026.49693,1607455026.51936,251.902365198135,7.65970396995544,259.572575559616,261.67354511261,0.3,270.210822811127,1.71745991706848,NaN,0,NA,0,271.928282728195,604.465207567215,607.225207567215,1607455281.15929,1607455281.17368,1607455288.8295,1607455288.84156,1607455290.93047,1607455299.46775,1607455299.46934,NaN,1607455301.18521,1607455633.72214
1,4,2,3,15,7,4,c4_HowHand,1,both hands?,124,H_581.jpg,1607455026.49693,1607455026.51936,251.902365198135,7.65970396995544,259.572575559616,261.67354511261,0.3,272.245095481873,1.61741304397583,273.864452114105,1,left,1.59841585159302,273.862508525848,604.465207567215,607.225207567215,1607455281.15929,1607455281.17368,1607455288.8295,1607455288.84156,1607455290.93047,1607455301.50202,1607455301.503,1607455303.12138,1607455303.11944,1607455633.72214
1,4,2,3,15,8,4,c4_HowHand,1,both hands?,127,H_349.jpg,1607455026.49693,1607455026.51936,251.902365198135,7.65970396995544,259.572575559616,261.67354511261,0.3,274.179321517944,0.867066621780396,275.052129974365,1,left,0.859259128570557,275.046388139725,604.465207567215,607.225207567215,1607455281.15929,1607455281.17368,1607455288.8295,1607455288.84156,1607455290.93047,1607455303.43625,1607455303.43748,1607455304.30906,1607455304.30332,1607455633.72214
1,4,2,3,16,1,2,c2_WhyHand,1,self-protection?,89,H_443.jpg,1607455026.49693,1607455026.51936,275.129760255814,3.22208976745605,278.364588727951,280.465558519363,2.10096979141235,280.6156275177,1.51736807823181,282.136290063858,2,right,1.50397396087646,282.132995595932,604.465207567215,607.225207567215,1607455304.38669,1607455304.38861,1607455307.62152,1607455307.62616,1607455309.72249,1607455309.87256,1607455309.87628,1607455311.39322,1607455311.38992,1607455633.72214
1,4,2,3,16,2,2,c2_WhyHand,2,self-protection?,90,H_006.jpg,1607455026.49693,1607455026.51936,275.129760255814,3.22208976745605,278.364588727951,280.465558519363,0.3,282.449808349609,1.71745991706848,284.290079107285,2,right,1.82086296081543,284.167268266678,604.465207567215,607.225207567215,1607455304.38669,1607455304.38861,1607455307.62152,1607455307.62616,1607455309.72249,1607455311.70674,1607455311.70993,1607455313.54701,1607455313.4242,1607455633.72214
1,4,2,3,16,3,2,c2_WhyHand,1,self-protection?,91,H_581.jpg,1607455026.49693,1607455026.51936,275.129760255814,3.22208976745605,278.364588727951,280.465558519363,0.3,284.484080543518,1.15053200721741,285.636662950516,2,right,1.1293580532074,285.634612550735,604.465207567215,607.225207567215,1607455304.38669,1607455304.38861,1607455307.62152,1607455307.62616,1607455309.72249,1607455313.74101,1607455313.74336,1607455314.89359,1607455314.89154,1607455633.72214
1,4,2,3,16,4,2,c2_WhyHand,2,self-protection?,92,H_532.jpg,1607455026.49693,1607455026.51936,275.129760255814,3.22208976745605,278.364588727951,280.465558519363,0.3,285.951425304413,1.01713728904724,286.970396986008,2,right,1.00616598129272,286.96856259346,604.465207567215,607.225207567215,1607455304.38669,1607455304.38861,1607455307.62152,1607455307.62616,1607455309.72249,1607455315.20835,1607455315.20994,1607455316.22733,1607455316.22549,1607455633.72214
1,4,2,3,16,5,2,c2_WhyHand,1,self-protection?,96,H_027.jpg,1607455026.49693,1607455026.51936,275.129760255814,3.22208976745605,278.364588727951,280.465558519363,0.3,287.285375585556,0.950438976287842,288.237390985489,1,left,0.940839052200317,288.235814561844,604.465207567215,607.225207567215,1607455304.38669,1607455304.38861,1607455307.62152,1607455307.62616,1607455309.72249,1607455316.5423,1607455316.54405,1607455317.49432,1607455317.49274,1607455633.72214
1,4,2,3,16,6,2,c2_WhyHand,1,self-protection?,93,H_038.jpg,1607455026.49693,1607455026.51936,275.129760255814,3.22208976745605,278.364588727951,280.465558519363,0.3,288.55262755394,1.18387985229492,289.738422145844,1,left,1.17031598091125,289.736507406235,604.465207567215,607.225207567215,1607455304.38669,1607455304.38861,1607455307.62152,1607455307.62616,1607455309.72249,1607455317.80956,1607455317.81095,1607455318.99535,1607455318.99344,1607455633.72214
1,4,2,3,16,7,2,c2_WhyHand,2,self-protection?,95,H_332.jpg,1607455026.49693,1607455026.51936,275.129760255814,3.22208976745605,278.364588727951,280.465558519363,0.3,290.053320636749,1.1338574886322,291.203603973389,2,right,1.12722086906433,291.187178125381,604.465207567215,607.225207567215,1607455304.38669,1607455304.38861,1607455307.62152,1607455307.62616,1607455309.72249,1607455319.31025,1607455319.31198,1607455320.46053,1607455320.44411,1607455633.72214
1,4,2,3,16,8,2,c2_WhyHand,1,self-protection?,94,H_189.jpg,1607455026.49693,1607455026.51936,275.129760255814,3.22208976745605,278.364588727951,280.465558519363,0.3,291.503990402222,1.05048513412476,292.556437959671,1,left,1.04216384887695,292.554475536346,604.465207567215,607.225207567215,1607455304.38669,1607455304.38861,1607455307.62152,1607455307.62616,1607455309.72249,1607455320.76092,1607455320.76288,1607455321.81337,1607455321.8114,1607455633.72214
1,4,2,3,17,1,3,c3_HowFace,1,smiling?,118,F_759.jpg,1607455026.49693,1607455026.51936,292.621172418594,7.21080470085144,299.841174592972,301.942144622803,2.10097002983093,302.092213382721,0.733673572540283,302.827800979614,1,left,0.719598054885864,302.825886955261,604.465207567215,607.225207567215,1607455321.8781,1607455321.89402,1607455329.0981,1607455329.0998,1607455331.19907,1607455331.34914,1607455331.35089,1607455332.08473,1607455332.08282,1607455633.72214
1,4,2,3,17,2,3,c3_HowFace,2,smiling?,114,F_412.jpg,1607455026.49693,1607455026.51936,292.621172418594,7.21080470085144,299.841174592972,301.942144622803,0.3,303.14269947052,0.683648824691772,303.828335990906,2,right,0.663542985916138,303.826348295212,604.465207567215,607.225207567215,1607455321.8781,1607455321.89402,1607455329.0981,1607455329.0998,1607455331.19907,1607455332.39963,1607455332.40174,1607455333.08526,1607455333.08328,1607455633.72214
1,4,2,3,17,3,3,c3_HowFace,1,smiling?,117,F_593.jpg,1607455026.49693,1607455026.51936,292.621172418594,7.21080470085144,299.841174592972,301.942144622803,0.3,304.143159379959,0.533581495285034,304.688359966278,1,left,0.527328014373779,304.676740875244,604.465207567215,607.225207567215,1607455321.8781,1607455321.89402,1607455329.0981,1607455329.0998,1607455331.19907,1607455333.40009,1607455333.40197,1607455333.94529,1607455333.93367,1607455633.72214
1,4,2,3,17,4,3,c3_HowFace,2,smiling?,113,F_712.jpg,1607455026.49693,1607455026.51936,292.621172418594,7.21080470085144,299.841174592972,301.942144622803,0.3,304.993554105759,0.783695697784424,305.778814067841,2,right,0.767637968063354,305.777249803543,604.465207567215,607.225207567215,1607455321.8781,1607455321.89402,1607455329.0981,1607455329.0998,1607455331.19907,1607455334.25048,1607455334.2522,1607455335.03574,1607455335.03418,1607455633.72214
1,4,2,3,17,5,3,c3_HowFace,1,smiling?,115,F_695.jpg,1607455026.49693,1607455026.51936,292.621172418594,7.21080470085144,299.841174592972,301.942144622803,0.3,306.09406255722,0.683648824691772,306.788195123672,1,left,0.676692008972168,306.777711381912,604.465207567215,607.225207567215,1607455321.8781,1607455321.89402,1607455329.0981,1607455329.0998,1607455331.19907,1607455335.35099,1607455335.35285,1607455336.04512,1607455336.03464,1607455633.72214
1,4,2,3,17,6,3,c3_HowFace,1,smiling?,119,F_139.jpg,1607455026.49693,1607455026.51936,292.621172418594,7.21080470085144,299.841174592972,301.942144622803,0.3,307.094524850845,0.666975259780884,307.763350954056,1,left,0.650309085845947,307.761500110626,604.465207567215,607.225207567215,1607455321.8781,1607455321.89402,1607455329.0981,1607455329.0998,1607455331.19907,1607455336.35145,1607455336.35339,1607455337.02028,1607455337.01843,1607455633.72214
1,4,2,3,17,7,3,c3_HowFace,1,smiling?,116,F_083.jpg,1607455026.49693,1607455026.51936,292.621172418594,7.21080470085144,299.841174592972,301.942144622803,0.3,308.078312387466,0.600277185440063,308.680417051315,1,left,0.5834801197052,308.678589572907,604.465207567215,607.225207567215,1607455321.8781,1607455321.89402,1607455329.0981,1607455329.0998,1607455331.19907,1607455337.33524,1607455337.33731,1607455337.93735,1607455337.93552,1607455633.72214
1,4,2,3,17,8,3,c3_HowFace,2,smiling?,120,F_758.jpg,1607455026.49693,1607455026.51936,292.621172418594,7.21080470085144,299.841174592972,301.942144622803,0.3,308.995402088165,0.600276947021484,309.597848167419,2,right,0.579254865646362,309.595679035187,604.465207567215,607.225207567215,1607455321.8781,1607455321.89402,1607455329.0981,1607455329.0998,1607455331.19907,1607455338.25233,1607455338.25432,1607455338.85478,1607455338.85261,1607455633.72214
1,4,2,3,18,1,1,c1_WhyFace,1,admiring?,1,F_593.jpg,1607455026.49693,1607455026.51936,309.67905210495,7.94302201271057,317.632725467682,319.733695497513,2.10097002983093,319.883764734268,0.933765172958374,320.819543113709,1,left,0.909235954284668,320.817529907227,604.465207567215,607.225207567215,1607455338.93598,1607455338.9376,1607455346.88965,1607455346.89691,1607455348.99062,1607455349.14069,1607455349.14694,1607455350.07647,1607455350.07446,1607455633.72214
1,4,2,3,18,2,1,c1_WhyFace,2,admiring?,2,F_129.jpg,1607455026.49693,1607455026.51936,309.67905210495,7.94302201271057,317.632725467682,319.733695497513,0.3,321.134342899323,0.650300741195679,321.789808979034,1,left,0.638176918029785,321.784643640518,604.465207567215,607.225207567215,1607455338.93598,1607455338.9376,1607455346.88965,1607455346.89691,1607455348.99062,1607455350.39127,1607455350.39239,1607455351.04674,1607455351.04157,1607455633.72214
1,4,2,3,18,3,1,c1_WhyFace,1,admiring?,5,F_759.jpg,1607455026.49693,1607455026.51936,309.67905210495,7.94302201271057,317.632725467682,319.733695497513,0.3,322.101456632614,1.23390293121338,323.336970081329,1,left,1.21081495285034,323.335359563828,604.465207567215,607.225207567215,1607455338.93598,1607455338.9376,1607455346.88965,1607455346.89691,1607455348.99062,1607455351.35839,1607455351.36335,1607455352.5939,1607455352.59229,1607455633.72214
1,4,2,3,18,4,1,c1_WhyFace,2,admiring?,6,F_692.jpg,1607455026.49693,1607455026.51936,309.67905210495,7.94302201271057,317.632725467682,319.733695497513,0.3,323.652172555923,1.43399477005005,325.090214004517,2,right,1.41405582427979,325.086167325974,604.465207567215,607.225207567215,1607455338.93598,1607455338.9376,1607455346.88965,1607455346.89691,1607455348.99062,1607455352.9091,1607455352.91355,1607455354.34714,1607455354.3431,1607455633.72214
1,4,2,3,18,5,1,c1_WhyFace,1,admiring?,4,F_779.jpg,1607455026.49693,1607455026.51936,309.67905210495,7.94302201271057,317.632725467682,319.733695497513,0.3,325.402980556488,0.817044019699097,326.223795166016,1,left,0.805469989776611,326.220024576187,604.465207567215,607.225207567215,1607455338.93598,1607455338.9376,1607455346.88965,1607455346.89691,1607455348.99062,1607455354.65991,1607455354.66389,1607455355.48072,1607455355.47695,1607455633.72214
1,4,2,3,18,6,1,c1_WhyFace,1,admiring?,8,F_590.jpg,1607455026.49693,1607455026.51936,309.67905210495,7.94302201271057,317.632725467682,319.733695497513,0.3,326.536837568283,1.26725220680237,327.807268133163,1,left,1.25652503967285,327.804089775085,604.465207567215,607.225207567215,1607455338.93598,1607455338.9376,1607455346.88965,1607455346.89691,1607455348.99062,1607455355.79377,1607455355.79696,1607455357.0642,1607455357.06102,1607455633.72214
1,4,2,3,18,7,1,c1_WhyFace,1,admiring?,7,F_648.jpg,1607455026.49693,1607455026.51936,309.67905210495,7.94302201271057,317.632725467682,319.733695497513,0.3,328.120903720856,1.18387866020203,329.306940069199,1,left,1.16543197631836,329.304782381058,604.465207567215,607.225207567215,1607455338.93598,1607455338.9376,1607455346.88965,1607455346.89691,1607455348.99062,1607455357.37783,1607455357.38039,1607455358.56387,1607455358.56171,1607455633.72214
1,4,2,3,18,8,1,c1_WhyFace,2,admiring?,3,F_110.jpg,1607455026.49693,1607455026.51936,309.67905210495,7.94302201271057,317.632725467682,319.733695497513,0.3,329.621596803665,0.900414943695068,330.523929109573,2,right,0.887573957443237,330.52201174736,604.465207567215,607.225207567215,1607455338.93598,1607455338.9376,1607455346.88965,1607455346.89691,1607455348.99062,1607455358.87853,1607455358.88085,1607455359.78086,1607455359.77894,1607455633.72214
1,4,2,3,19,1,2,c2_WhyHand,1,competing?,9,H_261.jpg,1607455026.49693,1607455026.51936,330.588709106445,4.92338895797729,335.52432226181,337.625292768478,2.10097050666809,337.775362482071,0.900416374206543,338.677277078629,1,left,0.879187107086182,338.675778856277,604.465207567215,607.225207567215,1607455359.84564,1607455359.84703,1607455364.78125,1607455364.78288,1607455366.88222,1607455367.03229,1607455367.03416,1607455367.93421,1607455367.93271,1607455633.72214
1,4,2,3,19,2,2,c2_WhyHand,1,competing?,15,H_170.jpg,1607455026.49693,1607455026.51936,330.588709106445,4.92338895797729,335.52432226181,337.625292768478,0.3,338.992589702606,1.01713824272156,340.011437168121,1,left,0.99746298789978,340.009727945328,604.465207567215,607.225207567215,1607455359.84564,1607455359.84703,1607455364.78125,1607455364.78288,1607455366.88222,1607455368.24952,1607455368.25129,1607455369.26837,1607455369.26666,1607455633.72214
1,4,2,3,19,3,2,c2_WhyHand,2,competing?,12,H_483.jpg,1607455026.49693,1607455026.51936,330.588709106445,4.92338895797729,335.52432226181,337.625292768478,0.3,340.326540222168,0.600276708602905,340.928754081726,1,left,0.578349828720093,340.926816930771,604.465207567215,607.225207567215,1607455359.84564,1607455359.84703,1607455364.78125,1607455364.78288,1607455366.88222,1607455369.58347,1607455369.58532,1607455370.18568,1607455370.18375,1607455633.72214
1,4,2,3,19,4,2,c2_WhyHand,1,competing?,14,H_132.jpg,1607455026.49693,1607455026.51936,330.588709106445,4.92338895797729,335.52432226181,337.625292768478,0.3,341.243630876541,1.71746039390564,343.144446125031,1,left,1.88133687973022,342.961091270447,604.465207567215,607.225207567215,1607455359.84564,1607455359.84703,1607455364.78125,1607455364.78288,1607455366.88222,1607455370.50056,1607455370.50282,1607455372.40138,1607455372.21802,1607455633.72214
1,4,2,3,19,5,2,c2_WhyHand,1,competing?,16,H_136.jpg,1607455026.49693,1607455026.51936,330.588709106445,4.92338895797729,335.52432226181,337.625292768478,0.3,343.277902593613,0.683649778366089,343.963555088043,1,left,0.6663978099823,343.961552371979,604.465207567215,607.225207567215,1607455359.84564,1607455359.84703,1607455364.78125,1607455364.78288,1607455366.88222,1607455372.53483,1607455372.53613,1607455373.22048,1607455373.21848,1607455633.72214
1,4,2,3,19,6,2,c2_WhyHand,1,competing?,13,H_003.jpg,1607455026.49693,1607455026.51936,330.588709106445,4.92338895797729,335.52432226181,337.625292768478,0.3,344.278365364075,1.05048513412476,345.341680994034,1,left,1.04485201835632,345.328850498199,604.465207567215,607.225207567215,1607455359.84564,1607455359.84703,1607455364.78125,1607455364.78288,1607455366.88222,1607455373.53529,1607455373.53707,1607455374.59861,1607455374.58578,1607455633.72214
1,4,2,3,19,7,2,c2_WhyHand,2,competing?,10,H_126.jpg,1607455026.49693,1607455026.51936,330.588709106445,4.92338895797729,335.52432226181,337.625292768478,0.3,345.645663490295,0.933765411376953,346.581256141663,2,right,0.916754961013794,346.579428901672,604.465207567215,607.225207567215,1607455359.84564,1607455359.84703,1607455364.78125,1607455364.78288,1607455366.88222,1607455374.90259,1607455374.90431,1607455375.83819,1607455375.83636,1607455633.72214
1,4,2,3,19,8,2,c2_WhyHand,2,competing?,11,H_502.jpg,1607455026.49693,1607455026.51936,330.588709106445,4.92338895797729,335.52432226181,337.625292768478,0.3,346.896241416931,0.983787775039673,347.891978969574,2,right,0.973285913467407,347.880029191971,604.465207567215,607.225207567215,1607455359.84564,1607455359.84703,1607455364.78125,1607455364.78288,1607455366.88222,1607455376.15317,1607455376.15464,1607455377.14891,1607455377.13696,1607455633.72214
1,4,2,3,20,1,4,c4_HowHand,1,reaching?,111,H_003.jpg,1607455026.49693,1607455026.51936,347.963401784897,9.02861928939819,357.000909318924,359.101879587173,2.10097026824951,359.251948823929,1.55071592330933,360.810055007935,1,left,1.53841590881348,360.802664747238,604.465207567215,607.225207567215,1607455377.22033,1607455377.23238,1607455386.25784,1607455386.26713,1607455388.35881,1607455388.50888,1607455388.51705,1607455390.06698,1607455390.05959,1607455633.72214
1,4,2,3,20,2,4,c4_HowHand,1,reaching?,110,H_364.jpg,1607455026.49693,1607455026.51936,347.963401784897,9.02861928939819,357.000909318924,359.101879587173,0.3,361.119477024078,0.716999292373657,361.843542089462,1,left,0.708615064620972,361.836476316452,604.465207567215,607.225207567215,1607455377.22033,1607455377.23238,1607455386.25784,1607455386.26713,1607455388.35881,1607455390.37641,1607455390.37807,1607455391.10047,1607455391.09341,1607455633.72214
1,4,2,3,20,3,4,c4_HowHand,2,reaching?,108,H_532.jpg,1607455026.49693,1607455026.51936,347.963401784897,9.02861928939819,357.000909318924,359.101879587173,0.3,362.153288831711,0.883740901947021,363.043245067596,2,right,0.877794981002808,363.037029733658,604.465207567215,607.225207567215,1607455377.22033,1607455377.23238,1607455386.25784,1607455386.26713,1607455388.35881,1607455391.41022,1607455391.41202,1607455392.30017,1607455392.29396,1607455633.72214
1,4,2,3,20,4,4,c4_HowHand,1,reaching?,106,H_006.jpg,1607455026.49693,1607455026.51936,347.963401784897,9.02861928939819,357.000909318924,359.101879587173,0.3,363.35384344101,0.767019987106323,364.127047052383,1,left,0.756805896759033,364.120863428116,604.465207567215,607.225207567215,1607455377.22033,1607455377.23238,1607455386.25784,1607455386.26713,1607455388.35881,1607455392.61077,1607455392.61291,1607455393.38398,1607455393.37779,1607455633.72214
1,4,2,3,20,5,4,c4_HowHand,2,reaching?,105,H_438.jpg,1607455026.49693,1607455026.51936,347.963401784897,9.02861928939819,357.000909318924,359.101879587173,0.3,364.437676897049,1.25057768821716,365.690656175613,2,right,1.23115611076355,365.688254585266,604.465207567215,607.225207567215,1607455377.22033,1607455377.23238,1607455386.25784,1607455386.26713,1607455388.35881,1607455393.69461,1607455393.69619,1607455394.94759,1607455394.94518,1607455633.72214
1,4,2,3,20,6,4,c4_HowHand,1,reaching?,107,H_007.jpg,1607455026.49693,1607455026.51936,347.963401784897,9.02861928939819,357.000909318924,359.101879587173,0.3,366.005067815781,0.833719253540039,366.843131055832,1,left,0.825925827026367,366.838787069321,604.465207567215,607.225207567215,1607455377.22033,1607455377.23238,1607455386.25784,1607455386.26713,1607455388.35881,1607455395.262,1607455395.26403,1607455396.10006,1607455396.09572,1607455633.72214
1,4,2,3,20,7,4,c4_HowHand,1,reaching?,109,H_474.jpg,1607455026.49693,1607455026.51936,347.963401784897,9.02861928939819,357.000909318924,359.101879587173,0.3,367.155598154068,1.23390412330627,368.39402007103,1,left,1.21951508522034,368.389502277374,604.465207567215,607.225207567215,1607455377.22033,1607455377.23238,1607455386.25784,1607455386.26713,1607455388.35881,1607455396.41253,1607455396.41744,1607455397.65095,1607455397.64643,1607455633.72214
1,4,2,3,20,8,4,c4_HowHand,2,reaching?,112,H_132.jpg,1607455026.49693,1607455026.51936,347.963401784897,9.02861928939819,357.000909318924,359.101879587173,0.3,368.706315746307,1.38397216796875,370.094228019714,1,left,1.37341594696045,370.090287914276,604.465207567215,607.225207567215,1607455377.22033,1607455377.23238,1607455386.25784,1607455386.26713,1607455388.35881,1607455397.96324,1607455397.96693,1607455399.35116,1607455399.34722,1607455633.72214
1,4,2,3,21,1,3,c3_HowFace,1,open mouth?,73,F_403.jpg,1607455026.49693,1607455026.51936,370.173659553528,4.65833044052124,374.842482318878,376.943452348709,2.10097002983093,377.093522062302,1.23390221595764,378.34453414917,1,left,1.22791695594788,378.327424278259,604.465207567215,607.225207567215,1607455399.43059,1607455399.43436,1607455404.09941,1607455404.10122,1607455406.20038,1607455406.35045,1607455406.35212,1607455407.60146,1607455407.58435,1607455633.72214
1,4,2,3,21,2,3,c3_HowFace,2,open mouth?,79,F_648.jpg,1607455026.49693,1607455026.51936,370.173659553528,4.65833044052124,374.842482318878,376.943452348709,0.3,378.644238462448,0.783695936203003,379.429666032791,2,right,0.76915979385376,379.427934398651,604.465207567215,607.225207567215,1607455399.43059,1607455399.43436,1607455404.09941,1607455404.10122,1607455406.20038,1607455407.90117,1607455407.90293,1607455408.68659,1607455408.68486,1607455633.72214
1,4,2,3,21,3,3,c3_HowFace,1,open mouth?,74,F_776.jpg,1607455026.49693,1607455026.51936,370.173659553528,4.65833044052124,374.842482318878,376.943452348709,0.3,379.744746675491,0.733672380447388,380.480466117859,1,left,0.714356184005737,380.478419055939,604.465207567215,607.225207567215,1607455399.43059,1607455399.43436,1607455404.09941,1607455404.10122,1607455406.20038,1607455409.00168,1607455409.00311,1607455409.7374,1607455409.73535,1607455633.72214
1,4,2,3,21,4,3,c3_HowFace,2,open mouth?,77,F_584.jpg,1607455026.49693,1607455026.51936,370.173659553528,4.65833044052124,374.842482318878,376.943452348709,0.3,380.795232286453,1.70078587532043,382.497508993149,2,right,1.68972492218018,382.496018161774,604.465207567215,607.225207567215,1607455399.43059,1607455399.43436,1607455404.09941,1607455404.10122,1607455406.20038,1607455410.05216,1607455410.05361,1607455411.75444,1607455411.75295,1607455633.72214
1,4,2,3,21,5,3,c3_HowFace,1,open mouth?,80,F_844.jpg,1607455026.49693,1607455026.51936,370.173659553528,4.65833044052124,374.842482318878,376.943452348709,0.3,382.812830915451,0.533578872680664,383.348371973038,1,left,0.522549867630005,383.346409788132,604.465207567215,607.225207567215,1607455399.43059,1607455399.43436,1607455404.09941,1607455404.10122,1607455406.20038,1607455412.06976,1607455412.07164,1607455412.6053,1607455412.60334,1607455633.72214
1,4,2,3,21,6,3,c3_HowFace,1,open mouth?,78,F_692.jpg,1607455026.49693,1607455026.51936,370.173659553528,4.65833044052124,374.842482318878,376.943452348709,0.3,383.663223495483,0.716998100280762,384.395542135239,1,left,0.708443880081177,384.380221595764,604.465207567215,607.225207567215,1607455399.43059,1607455399.43436,1607455404.09941,1607455404.10122,1607455406.20038,1607455412.92015,1607455412.9221,1607455413.65247,1607455413.63715,1607455633.72214
1,4,2,3,21,7,3,c3_HowFace,1,open mouth?,75,F_086.jpg,1607455026.49693,1607455026.51936,370.173659553528,4.65833044052124,374.842482318878,376.943452348709,0.3,384.697033395767,0.533581733703613,385.245439043045,1,left,0.525086164474487,385.230615129471,604.465207567215,607.225207567215,1607455399.43059,1607455399.43436,1607455404.09941,1607455404.10122,1607455406.20038,1607455413.95396,1607455413.95561,1607455414.50237,1607455414.48754,1607455633.72214
1,4,2,3,21,8,3,c3_HowFace,2,open mouth?,76,F_544.jpg,1607455026.49693,1607455026.51936,370.173659553528,4.65833044052124,374.842482318878,376.943452348709,0.3,385.547428121567,0.716996669769287,386.265995016098,2,right,0.696170091629028,386.264424791336,604.465207567215,607.225207567215,1607455399.43059,1607455399.43436,1607455404.09941,1607455404.10122,1607455406.20038,1607455414.80436,1607455414.80609,1607455415.52292,1607455415.52135,1607455633.72214
1,4,2,3,22,1,1,c1_WhyFace,1,argument?,42,F_403.jpg,1607455026.49693,1607455026.51936,386.331122865677,7.1769802570343,393.517776002884,395.618745555878,2.10096955299377,395.768814077377,1.48401951789856,397.254728069305,1,left,1.45247197151184,397.252833595276,604.465207567215,607.225207567215,1607455415.58805,1607455415.60235,1607455422.7747,1607455422.78715,1607455424.87567,1607455425.02574,1607455425.03711,1607455426.51166,1607455426.50976,1607455633.72214
1,4,2,3,22,2,1,c1_WhyFace,2,argument?,46,F_844.jpg,1607455026.49693,1607455026.51936,386.331122865677,7.1769802570343,393.517776002884,395.618745555878,0.3,397.569646587372,0.733671903610229,398.313520183563,2,right,0.724723815917969,398.303318490982,604.465207567215,607.225207567215,1607455415.58805,1607455415.60235,1607455422.7747,1607455422.78715,1607455424.87567,1607455426.82658,1607455426.82815,1607455427.57045,1607455427.56025,1607455633.72214
1,4,2,3,22,3,1,c1_WhyFace,1,argument?,41,F_712.jpg,1607455026.49693,1607455026.51936,386.331122865677,7.1769802570343,393.517776002884,395.618745555878,0.3,398.620131721497,1.63408756256104,400.263234128952,1,left,1.62599301338196,400.254219284058,604.465207567215,607.225207567215,1607455415.58805,1607455415.60235,1607455422.7747,1607455422.78715,1607455424.87567,1607455427.87706,1607455427.87879,1607455429.52016,1607455429.51115,1607455633.72214
1,4,2,3,22,4,1,c1_WhyFace,1,argument?,48,F_758.jpg,1607455026.49693,1607455026.51936,386.331122865677,7.1769802570343,393.517776002884,395.618745555878,0.3,400.571033468246,0.716997385025024,401.297203054428,1,left,0.711112022399902,401.288030853271,604.465207567215,607.225207567215,1607455415.58805,1607455415.60235,1607455422.7747,1607455422.78715,1607455424.87567,1607455429.82796,1607455429.82984,1607455430.55413,1607455430.54496,1607455633.72214
1,4,2,3,22,5,1,c1_WhyFace,2,argument?,45,F_433.jpg,1607455026.49693,1607455026.51936,386.331122865677,7.1769802570343,393.517776002884,395.618745555878,0.3,401.604843606949,0.96711254119873,402.580553045273,2,right,0.959275007247925,402.571956148148,604.465207567215,607.225207567215,1607455415.58805,1607455415.60235,1607455422.7747,1607455422.78715,1607455424.87567,1607455430.86177,1607455430.86418,1607455431.83748,1607455431.82889,1607455633.72214
1,4,2,3,22,6,1,c1_WhyFace,1,argument?,43,F_716.jpg,1607455026.49693,1607455026.51936,386.331122865677,7.1769802570343,393.517776002884,395.618745555878,0.3,402.888768424988,0.633628368377686,403.530204048157,1,left,0.619851112365723,403.522396793365,604.465207567215,607.225207567215,1607455415.58805,1607455415.60235,1607455422.7747,1607455422.78715,1607455424.87567,1607455432.1457,1607455432.14737,1607455432.78713,1607455432.77933,1607455633.72214
1,4,2,3,22,7,1,c1_WhyFace,2,argument?,44,F_139.jpg,1607455026.49693,1607455026.51936,386.331122865677,7.1769802570343,393.517776002884,395.618745555878,0.3,403.839209308624,1.23390316963196,405.080692043304,2,right,1.22111296653748,405.073112478256,604.465207567215,607.225207567215,1607455415.58805,1607455415.60235,1607455422.7747,1607455422.78715,1607455424.87567,1607455433.09614,1607455433.09811,1607455434.33762,1607455434.33004,1607455633.72214
1,4,2,3,22,8,1,c1_WhyFace,1,argument?,47,F_743.jpg,1607455026.49693,1607455026.51936,386.331122865677,7.1769802570343,393.517776002884,395.618745555878,0.3,405.389925947189,1.35062265396118,406.747501125336,1,left,1.34542107582092,406.740548601151,604.465207567215,607.225207567215,1607455415.58805,1607455415.60235,1607455422.7747,1607455422.78715,1607455424.87567,1607455434.64685,1607455434.64883,1607455436.00443,1607455435.99748,1607455633.72214
1,4,2,3,23,1,2,c2_WhyHand,1,helping?,39,H_024.jpg,1607455026.49693,1607455026.51936,406.823919286728,4.90421080589294,411.742859115601,413.84382938385,2.10097026824951,413.993899335861,1.18388080596924,415.181553115845,2,right,1.1689920425415,415.17778014183,604.465207567215,607.225207567215,1607455436.08085,1607455436.0875,1607455440.99979,1607455441.00496,1607455443.10076,1607455443.25083,1607455443.25532,1607455444.43848,1607455444.43471,1607455633.72214
1,4,2,3,23,2,2,c2_WhyHand,1,helping?,36,H_349.jpg,1607455026.49693,1607455026.51936,406.823919286728,4.90421080589294,411.742859115601,413.84382938385,0.3,415.494592657089,0.633626222610474,416.130347957611,1,left,0.611999034881592,416.1282188797,604.465207567215,607.225207567215,1607455436.08085,1607455436.0875,1607455440.99979,1607455441.00496,1607455443.10076,1607455444.75152,1607455444.7543,1607455445.38728,1607455445.38515,1607455633.72214
1,4,2,3,23,3,2,c2_WhyHand,1,helping?,38,H_077.jpg,1607455026.49693,1607455026.51936,406.823919286728,4.90421080589294,411.742859115601,413.84382938385,0.3,416.445030918121,1.01713705062866,417.465260019302,1,left,1.00106382369995,417.46216796875,604.465207567215,607.225207567215,1607455436.08085,1607455436.0875,1607455440.99979,1607455441.00496,1607455443.10076,1607455445.70196,1607455445.70547,1607455446.72219,1607455446.7191,1607455633.72214
1,4,2,3,23,4,2,c2_WhyHand,1,helping?,37,H_474.jpg,1607455026.49693,1607455026.51936,406.823919286728,4.90421080589294,411.742859115601,413.84382938385,0.3,417.778980722427,0.867067813873291,418.648548116684,1,left,0.847755193710327,418.646048536301,604.465207567215,607.225207567215,1607455436.08085,1607455436.0875,1607455440.99979,1607455441.00496,1607455443.10076,1607455447.03591,1607455447.03881,1607455447.90548,1607455447.90298,1607455633.72214
1,4,2,3,23,5,2,c2_WhyHand,2,helping?,33,H_091.jpg,1607455026.49693,1607455026.51936,406.823919286728,4.90421080589294,411.742859115601,413.84382938385,0.3,418.962860097885,1.16720628738403,420.131797065735,2,right,1.15987110137939,420.130066385269,604.465207567215,607.225207567215,1607455436.08085,1607455436.0875,1607455440.99979,1607455441.00496,1607455443.10076,1607455448.21979,1607455448.22214,1607455449.38873,1607455449.387,1607455633.72214
1,4,2,3,23,6,2,c2_WhyHand,2,helping?,35,H_159.jpg,1607455026.49693,1607455026.51936,406.823919286728,4.90421080589294,411.742859115601,413.84382938385,0.3,420.446879854202,1.41732168197632,421.865725030899,1,left,1.40295720100403,421.864201536179,604.465207567215,607.225207567215,1607455436.08085,1607455436.0875,1607455440.99979,1607455441.00496,1607455443.10076,1607455449.70381,1607455449.70598,1607455451.12265,1607455451.12113,1607455633.72214
1,4,2,3,23,7,2,c2_WhyHand,1,helping?,34,H_111.jpg,1607455026.49693,1607455026.51936,406.823919286728,4.90421080589294,411.742859115601,413.84382938385,0.3,422.181014766693,0.983787059783936,423.166638126373,1,left,0.974822998046875,423.164801826477,604.465207567215,607.225207567215,1607455436.08085,1607455436.0875,1607455440.99979,1607455441.00496,1607455443.10076,1607455451.43794,1607455451.43891,1607455452.42357,1607455452.42173,1607455633.72214
1,4,2,3,23,8,2,c2_WhyHand,2,helping?,40,H_012.jpg,1607455026.49693,1607455026.51936,406.823919286728,4.90421080589294,411.742859115601,413.84382938385,0.3,423.481614341736,1.26725172996521,424.750632038116,2,right,1.24770998954773,424.748866071701,604.465207567215,607.225207567215,1607455436.08085,1607455436.0875,1607455440.99979,1607455441.00496,1607455443.10076,1607455452.73854,1607455452.74004,1607455454.00756,1607455454.0058,1607455633.72214
1,4,2,3,24,1,4,c4_HowHand,1,both hands?,122,H_111.jpg,1607455026.49693,1607455026.51936,424.832239141464,4.96574902534485,429.801200380325,431.902171602249,2.10097122192383,432.052240600586,1.66743683815002,433.733060112,1,left,1.64646291732788,433.719677438736,604.465207567215,607.225207567215,1607455454.08917,1607455454.09095,1607455459.05813,1607455459.07326,1607455461.1591,1607455461.30917,1607455461.32344,1607455462.98999,1607455462.97661,1607455633.72214
1,4,2,3,24,2,4,c4_HowHand,1,both hands?,128,H_027.jpg,1607455026.49693,1607455026.51936,424.832239141464,4.96574902534485,429.801200380325,431.902171602249,0.3,434.036489715576,0.867066621780396,434.905413141251,1,left,0.850672006607056,434.903556337357,604.465207567215,607.225207567215,1607455454.08917,1607455454.09095,1607455459.05813,1607455459.07326,1607455461.1591,1607455463.29342,1607455463.29524,1607455464.16234,1607455464.16049,1607455633.72214
1,4,2,3,24,3,4,c4_HowHand,2,both hands?,121,H_091.jpg,1607455026.49693,1607455026.51936,424.832239141464,4.96574902534485,429.801200380325,431.902171602249,0.3,435.220370759964,1.53404092788696,436.767001142502,2,right,1.52588796615601,436.754411687851,604.465207567215,607.225207567215,1607455454.08917,1607455454.09095,1607455459.05813,1607455459.07326,1607455461.1591,1607455464.4773,1607455464.47904,1607455466.02393,1607455466.01134,1607455633.72214
1,4,2,3,24,4,4,c4_HowHand,1,both hands?,123,H_167.jpg,1607455026.49693,1607455026.51936,424.832239141464,4.96574902534485,429.801200380325,431.902171602249,0.3,437.07122587204,0.750345468521118,437.823469152451,1,left,0.736234903335571,437.821571340561,604.465207567215,607.225207567215,1607455454.08917,1607455454.09095,1607455459.05813,1607455459.07326,1607455461.1591,1607455466.32815,1607455466.32981,1607455467.0804,1607455467.0785,1607455633.72214
1,4,2,3,24,5,4,c4_HowHand,1,both hands?,124,H_581.jpg,1607455026.49693,1607455026.51936,424.832239141464,4.96574902534485,429.801200380325,431.902171602249,0.3,438.138384809494,1.15053176879883,439.300568094254,1,left,1.1408429145813,439.288916578293,604.465207567215,607.225207567215,1607455454.08917,1607455454.09095,1607455459.05813,1607455459.07326,1607455461.1591,1607455467.39531,1607455467.39749,1607455468.5575,1607455468.54585,1607455633.72214
1,4,2,3,24,6,4,c4_HowHand,2,both hands?,126,H_159.jpg,1607455026.49693,1607455026.51936,424.832239141464,4.96574902534485,429.801200380325,431.902171602249,0.3,439.605729808807,1.38397145271301,440.991919984818,2,right,1.36797308921814,440.98970126152,604.465207567215,607.225207567215,1607455454.08917,1607455454.09095,1607455459.05813,1607455459.07326,1607455461.1591,1607455468.86266,1607455468.86442,1607455470.24885,1607455470.24663,1607455633.72214
1,4,2,3,24,7,4,c4_HowHand,1,both hands?,127,H_349.jpg,1607455026.49693,1607455026.51936,424.832239141464,4.96574902534485,429.801200380325,431.902171602249,0.3,441.306515207291,0.767020225524902,442.075453033447,1,left,0.753077983856201,442.073535432816,604.465207567215,607.225207567215,1607455454.08917,1607455454.09095,1607455459.05813,1607455459.07326,1607455461.1591,1607455470.56344,1607455470.56533,1607455471.33238,1607455471.33046,1607455633.72214
1,4,2,3,24,8,4,c4_HowHand,2,both hands?,125,H_627.jpg,1607455026.49693,1607455026.51936,424.832239141464,4.96574902534485,429.801200380325,431.902171602249,0.3,442.390348424912,1.25057792663574,443.650591125488,2,right,1.24212098121643,443.640926351547,604.465207567215,607.225207567215,1607455454.08917,1607455454.09095,1607455459.05813,1607455459.07326,1607455461.1591,1607455471.64728,1607455471.64927,1607455472.90752,1607455472.89786,1607455633.72214
1,4,2,3,25,1,2,c2_WhyHand,1,healthy?,18,H_438.jpg,1607455026.49693,1607455026.51936,443.724297513962,3.5907735824585,447.325961580276,449.426931371689,2.10096979141235,449.5770013237,0.850391864776611,450.434365024567,1,left,0.835360050201416,450.427393188477,604.465207567215,607.225207567215,1607455472.98123,1607455472.99101,1607455476.58289,1607455476.59197,1607455478.68386,1607455478.83393,1607455478.84233,1607455479.69129,1607455479.68432,1607455633.72214
1,4,2,3,25,2,2,c2_WhyHand,1,healthy?,23,H_364.jpg,1607455026.49693,1607455026.51936,443.724297513962,3.5907735824585,447.325961580276,449.426931371689,0.3,450.744207134247,0.700324058532715,451.451483955383,1,left,0.690514087677002,451.44453119278,604.465207567215,607.225207567215,1607455472.98123,1607455472.99101,1607455476.58289,1607455476.59197,1607455478.68386,1607455480.00114,1607455480.00302,1607455480.70841,1607455480.70146,1607455633.72214
1,4,2,3,25,3,2,c2_WhyHand,1,healthy?,17,H_362.jpg,1607455026.49693,1607455026.51936,443.724297513962,3.5907735824585,447.325961580276,449.426931371689,0.3,451.761343231201,0.967113494873047,452.734910001755,1,left,0.955339908599854,452.728456726074,604.465207567215,607.225207567215,1607455472.98123,1607455472.99101,1607455476.58289,1607455476.59197,1607455478.68386,1607455481.01827,1607455481.02017,1607455481.99184,1607455481.98539,1607455633.72214
1,4,2,3,25,4,2,c2_WhyHand,2,healthy?,24,H_019.jpg,1607455026.49693,1607455026.51936,443.724297513962,3.5907735824585,447.325961580276,449.426931371689,0.3,453.045269479752,0.800370454788208,453.851314058304,1,left,0.794960021972656,453.84563993454,604.465207567215,607.225207567215,1607455472.98123,1607455472.99101,1607455476.58289,1607455476.59197,1607455478.68386,1607455482.3022,1607455482.30424,1607455483.10824,1607455483.10257,1607455633.72214
1,4,2,3,25,5,2,c2_WhyHand,1,healthy?,19,H_167.jpg,1607455026.49693,1607455026.51936,443.724297513962,3.5907735824585,447.325961580276,449.426931371689,0.3,454.16245221138,1.43399572372437,455.601423969269,1,left,1.42548489570618,455.596447935104,604.465207567215,607.225207567215,1607455472.98123,1607455472.99101,1607455476.58289,1607455476.59197,1607455478.68386,1607455483.41938,1607455483.42132,1607455484.85835,1607455484.85338,1607455633.72214
1,4,2,3,25,6,2,c2_WhyHand,2,healthy?,20,H_007.jpg,1607455026.49693,1607455026.51936,443.724297513962,3.5907735824585,447.325961580276,449.426931371689,0.3,455.913261880875,1.53404092788696,457.451593151093,2,right,1.51823592185974,457.447302808762,604.465207567215,607.225207567215,1607455472.98123,1607455472.99101,1607455476.58289,1607455476.59197,1607455478.68386,1607455485.17019,1607455485.17567,1607455486.70852,1607455486.70423,1607455633.72214
1,4,2,3,25,7,2,c2_WhyHand,1,healthy?,21,H_627.jpg,1607455026.49693,1607455026.51936,443.724297513962,3.5907735824585,447.325961580276,449.426931371689,0.3,457.764115800858,1.71745991706848,NaN,0,NA,0,459.481575717926,604.465207567215,607.225207567215,1607455472.98123,1607455472.99101,1607455476.58289,1607455476.59197,1607455478.68386,1607455487.02104,1607455487.02565,NaN,1607455488.7385,1607455633.72214
1,4,2,3,25,8,2,c2_WhyHand,2,healthy?,22,H_130.jpg,1607455026.49693,1607455026.51936,443.724297513962,3.5907735824585,447.325961580276,449.426931371689,0.3,459.798390140533,0.166742086410522,459.968435993195,1,left,0.155068874359131,459.965132226944,604.465207567215,607.225207567215,1607455472.98123,1607455472.99101,1607455476.58289,1607455476.59197,1607455478.68386,1607455489.05532,1607455489.0588,1607455489.22536,1607455489.22206,1607455633.72214
1,4,2,3,26,1,4,c4_HowHand,1,pressing button?,82,H_126.jpg,1607455026.49693,1607455026.51936,460.048504581451,6.32061839103699,466.38476442337,468.48573469162,2.10097026824951,468.63580488205,0.90041446685791,469.537822952271,1,left,0.883405923843384,469.536219348907,604.465207567215,607.225207567215,1607455489.30543,1607455489.30909,1607455495.64169,1607455495.64353,1607455497.74266,1607455497.89273,1607455497.89473,1607455498.79475,1607455498.79315,1607455633.72214
1,4,2,3,26,2,4,c4_HowHand,2,pressing button?,85,H_130.jpg,1607455026.49693,1607455026.51936,460.048504581451,6.32061839103699,466.38476442337,468.48573469162,0.3,469.853033294678,0.733672380447388,470.588379135132,2,right,0.716032981872559,470.586705675125,604.465207567215,607.225207567215,1607455489.30543,1607455489.30909,1607455495.64169,1607455495.64353,1607455497.74266,1607455499.10996,1607455499.11189,1607455499.84531,1607455499.84363,1607455633.72214
1,4,2,3,26,3,4,c4_HowHand,1,pressing button?,84,H_483.jpg,1607455026.49693,1607455026.51936,460.048504581451,6.32061839103699,466.38476442337,468.48573469162,0.3,470.903518667221,0.666974067687988,471.586311092377,1,left,0.661450147628784,471.570492734909,604.465207567215,607.225207567215,1607455489.30543,1607455489.30909,1607455495.64169,1607455495.64353,1607455497.74266,1607455500.16045,1607455500.16194,1607455500.84324,1607455500.82742,1607455633.72214
1,4,2,3,26,4,4,c4_HowHand,2,pressing button?,87,H_024.jpg,1607455026.49693,1607455026.51936,460.048504581451,6.32061839103699,466.38476442337,468.48573469162,0.3,471.887303342819,1.61741662025452,473.50629114151,2,right,1.60034608840942,473.504719963074,604.465207567215,607.225207567215,1607455489.30543,1607455489.30909,1607455495.64169,1607455495.64353,1607455497.74266,1607455501.14423,1607455501.146,1607455502.76322,1607455502.76165,1607455633.72214
1,4,2,3,26,5,4,c4_HowHand,1,pressing button?,86,H_332.jpg,1607455026.49693,1607455026.51936,460.048504581451,6.32061839103699,466.38476442337,468.48573469162,0.3,473.821532716751,0.600277185440063,474.423428049088,1,left,0.581861019134521,474.421809902191,604.465207567215,607.225207567215,1607455489.30543,1607455489.30909,1607455495.64169,1607455495.64353,1607455497.74266,1607455503.07846,1607455503.08052,1607455503.68036,1607455503.67874,1607455633.72214
1,4,2,3,26,6,4,c4_HowHand,1,pressing button?,88,H_019.jpg,1607455026.49693,1607455026.51936,460.048504581451,6.32061839103699,466.38476442337,468.48573469162,0.3,474.738622179031,0.817044496536255,475.557631959915,1,left,0.799710035324097,475.555666675568,604.465207567215,607.225207567215,1607455489.30543,1607455489.30909,1607455495.64169,1607455495.64353,1607455497.74266,1607455503.99555,1607455503.99717,1607455504.81456,1607455504.8126,1607455633.72214
1,4,2,3,26,7,4,c4_HowHand,2,pressing button?,81,H_261.jpg,1607455026.49693,1607455026.51936,460.048504581451,6.32061839103699,466.38476442337,468.48573469162,0.3,475.872479906082,1.13385677337646,477.007901182175,2,right,1.11231708526611,477.006336679459,604.465207567215,607.225207567215,1607455489.30543,1607455489.30909,1607455495.64169,1607455495.64353,1607455497.74266,1607455505.12941,1607455505.13152,1607455506.26483,1607455506.26327,1607455633.72214
1,4,2,3,26,8,4,c4_HowHand,1,pressing button?,83,H_502.jpg,1607455026.49693,1607455026.51936,460.048504581451,6.32061839103699,466.38476442337,468.48573469162,0.3,477.323149909973,0.967112302780151,478.291953077316,1,left,0.95362114906311,478.290262212753,604.465207567215,607.225207567215,1607455489.30543,1607455489.30909,1607455495.64169,1607455495.64353,1607455497.74266,1607455506.58008,1607455506.58111,1607455507.54888,1607455507.54719,1607455633.72214
1,4,2,3,27,1,3,c3_HowFace,1,looking at camera?,60,F_618.jpg,1607455026.49693,1607455026.51936,478.373634805679,5.5253312587738,483.909525384903,486.010495414734,2.10097002983093,486.160564174652,0.950439929962158,487.112998952866,1,left,0.936264038085938,487.111004104614,604.465207567215,607.225207567215,1607455507.63056,1607455507.63238,1607455513.16645,1607455513.17865,1607455515.26742,1607455515.41749,1607455515.41955,1607455516.36993,1607455516.36793,1607455633.72214
1,4,2,3,27,2,3,c3_HowFace,2,looking at camera?,58,F_754.jpg,1607455026.49693,1607455026.51936,478.373634805679,5.5253312587738,483.909525384903,486.010495414734,0.3,487.427816619873,1.2339038848877,488.671298017502,2,right,1.22397589683533,488.661720504761,604.465207567215,607.225207567215,1607455507.63056,1607455507.63238,1607455513.16645,1607455513.17865,1607455515.26742,1607455516.68475,1607455516.6868,1607455517.92823,1607455517.91865,1607455633.72214
1,4,2,3,27,3,3,c3_HowFace,1,looking at camera?,59,F_129.jpg,1607455026.49693,1607455026.51936,478.373634805679,5.5253312587738,483.909525384903,486.010495414734,0.3,488.978533735275,0.666973829269409,489.647413005829,1,left,0.648867845535278,489.645507564545,604.465207567215,607.225207567215,1607455507.63056,1607455507.63238,1607455513.16645,1607455513.17865,1607455515.26742,1607455518.23546,1607455518.23791,1607455518.90434,1607455518.90244,1607455633.72214
1,4,2,3,27,4,3,c3_HowFace,1,looking at camera?,62,F_598.jpg,1607455026.49693,1607455026.51936,478.373634805679,5.5253312587738,483.909525384903,486.010495414734,0.3,489.962320318222,1.71746063232422,NaN,0,NA,0,491.679780950546,604.465207567215,607.225207567215,1607455507.63056,1607455507.63238,1607455513.16645,1607455513.17865,1607455515.26742,1607455519.21925,1607455519.22068,NaN,1607455520.93671,1607455633.72214
1,4,2,3,27,5,3,c3_HowFace,1,looking at camera?,64,F_128.jpg,1607455026.49693,1607455026.51936,478.373634805679,5.5253312587738,483.909525384903,486.010495414734,0.3,491.996594419479,1.71746039390564,NaN,0,NA,0,493.714054813385,604.465207567215,607.225207567215,1607455507.63056,1607455507.63238,1607455513.16645,1607455513.17865,1607455515.26742,1607455521.25352,1607455521.25532,NaN,1607455522.97098,1607455633.72214
1,4,2,3,27,6,3,c3_HowFace,2,looking at camera?,57,F_582.jpg,1607455026.49693,1607455026.51936,478.373634805679,5.5253312587738,483.909525384903,486.010495414734,0.3,494.030866374969,1.71746039390564,495.754080047607,1,left,1.70350713729858,495.748326768875,604.465207567215,607.225207567215,1607455507.63056,1607455507.63238,1607455513.16645,1607455513.17865,1607455515.26742,1607455523.2878,1607455523.28939,1607455525.01101,1607455525.00526,1607455633.72214
1,4,2,3,27,7,3,c3_HowFace,1,looking at camera?,61,F_774.jpg,1607455026.49693,1607455026.51936,478.373634805679,5.5253312587738,483.909525384903,486.010495414734,0.3,496.065140714645,0.750346183776855,496.822004070282,1,left,0.74035382270813,496.815486898422,604.465207567215,607.225207567215,1607455507.63056,1607455507.63238,1607455513.16645,1607455513.17865,1607455515.26742,1607455525.32207,1607455525.32398,1607455526.07893,1607455526.07242,1607455633.72214
1,4,2,3,27,8,3,c3_HowFace,2,looking at camera?,63,F_743.jpg,1607455026.49693,1607455026.51936,478.373634805679,5.5253312587738,483.909525384903,486.010495414734,0.3,497.132299175262,0.75034761428833,497.889075984955,2,right,0.744237899780273,497.882646789551,604.465207567215,607.225207567215,1607455507.63056,1607455507.63238,1607455513.16645,1607455513.17865,1607455515.26742,1607455526.38923,1607455526.39092,1607455527.146,1607455527.13958,1607455633.72214
1,4,2,3,28,1,1,c1_WhyFace,1,self-doubt?,25,F_798.jpg,1607455026.49693,1607455026.51936,497.982692708969,4.88029336929321,502.868281831741,504.969253292084,2.10097146034241,505.119321575165,1.7174596786499,506.923901071548,1,left,1.78492207527161,506.836781253815,604.465207567215,607.225207567215,1607455527.23962,1607455527.24604,1607455532.12521,1607455532.12888,1607455534.22618,1607455534.37625,1607455534.3796,1607455536.18083,1607455536.09371,1607455633.72214
1,4,2,3,28,2,1,c1_WhyFace,2,self-doubt?,27,F_086.jpg,1607455026.49693,1607455026.51936,497.982692708969,4.88029336929321,502.868281831741,504.969253292084,0.3,507.153595676422,0.716996908187866,507.872688999176,2,right,0.706720113754272,507.87059258461,604.465207567215,607.225207567215,1607455527.23962,1607455527.24604,1607455532.12521,1607455532.12888,1607455534.22618,1607455536.41052,1607455536.41301,1607455537.12962,1607455537.12752,1607455633.72214
