src_subject_id,session_id,run_id,param_counterbalance_ver,param_block_num,param_trial_num,param_cond_type_num,param_cond_type_string,param_normative_response,param_ques_type_string,param_image_num,param_image_filename,param_trigger_onset,param_start_biopac,event01_fixation,event01_fixation_dur,event01_blockquestion_onset,event01_block_isi_blacksreen,event01_blockquestion_dur,event02_image_onset,event02_image_dur,event03_response_onset,event03_response_key,event03_response_keyname,event03_RT,event04_shortquestion_onset,param_end_instruct_onset,param_experiment_duration,RAW_e1_fixation,RAW_e1_fixation_biopac,RAW_e1_blockquestion_onset,RAW_e1_blockquestion_onset_biopac,RAW_e1_block_isi_blacksreen,RAW_e2_image_onset,RAW_e2_image_onset_biopac,RAW_e3_response_onset,RAW_e4_shortquestion_onset,RAW_param_end_instruct_onset,accuracy
56,4,2,4,1,1,3,c3_HowFace,1,smiling?,118,F_759.jpg,1629928496.45541,1629928496.45775,0.015792598724365,0.025395393371582,0.0491380596160886,2.11657690048218,2.06743884086609,2.26663230895996,1.10041069984436,3.36885594367981,1,left,1.0670850276947,3.36704300880432,604.474542369843,607.234542369843,1629928499.2312,1629928499.23722,1629928499.26454,1629928499.26741,1629928501.33198,1629928501.48204,1629928501.48446,1629928502.58426,1629928502.58245,1629929103.68995,1
56,4,2,4,1,2,3,c3_HowFace,2,smiling?,114,F_412.jpg,1629928496.45541,1629928496.45775,0.015792598724365,0.025395393371582,0.0491380596160886,2.11657690048218,0.3,3.68382786750793,0.583550930023193,4.26863907814026,3,right,0.57415509223938,4.26737879753113,604.474542369843,607.234542369843,1629928499.2312,1629928499.23722,1629928499.26454,1629928499.26741,1629928501.33198,1629928502.89923,1629928502.90127,1629928503.48405,1629928503.48278,1629929103.68995,0
56,4,2,4,1,3,3,c3_HowFace,1,smiling?,117,F_593.jpg,1629928496.45541,1629928496.45775,0.015792598724365,0.025395393371582,0.0491380596160886,2.11657690048218,0.3,4.58416365623474,0.616895914077759,5.20280908584595,1,left,0.598965883255005,5.2010595703125,604.474542369843,607.234542369843,1629928499.2312,1629928499.23722,1629928499.26454,1629928499.26741,1629928501.33198,1629928503.79957,1629928503.80133,1629928504.41822,1629928504.41647,1629929103.68995,1
56,4,2,4,1,4,3,c3_HowFace,2,smiling?,113,F_712.jpg,1629928496.45541,1629928496.45775,0.015792598724365,0.025395393371582,0.0491380596160886,2.11657690048218,0.3,5.51784442901611,0.716934442520142,6.23622106552124,3,right,0.700659990310669,6.23477887153626,604.474542369843,607.234542369843,1629928499.2312,1629928499.23722,1629928499.26454,1629928499.26741,1629928501.33198,1629928504.73325,1629928504.73524,1629928505.45163,1629928505.45018,1629929103.68995,0
56,4,2,4,1,5,3,c3_HowFace,1,smiling?,115,F_695.jpg,1629928496.45541,1629928496.45775,0.015792598724365,0.025395393371582,0.0491380596160886,2.11657690048218,0.3,6.55156373023987,1.11708331108093,7.67279910087585,1,left,1.09299683570862,7.6686470413208,604.474542369843,607.234542369843,1629928499.2312,1629928499.23722,1629928499.26454,1629928499.26741,1629928501.33198,1629928505.76697,1629928505.76927,1629928506.88821,1629928506.88405,1629929103.68995,1
56,4,2,4,1,6,3,c3_HowFace,1,smiling?,119,F_139.jpg,1629928496.45541,1629928496.45775,0.015792598724365,0.025395393371582,0.0491380596160886,2.11657690048218,0.3,7.98543118476868,0.533532381057739,8.52063797950745,1,left,0.522810220718384,8.51896356582642,604.474542369843,607.234542369843,1629928499.2312,1629928499.23722,1629928499.26454,1629928499.26741,1629928501.33198,1629928507.20084,1629928507.20248,1629928507.73604,1629928507.73437,1629929103.68995,1
56,4,2,4,1,7,3,c3_HowFace,1,smiling?,116,F_083.jpg,1629928496.45541,1629928496.45775,0.015792598724365,0.025395393371582,0.0491380596160886,2.11657690048218,0.3,8.83574866294861,0.666916370391846,9.5041589641571,1,left,0.656469821929932,9.50266503334045,604.474542369843,607.234542369843,1629928499.2312,1629928499.23722,1629928499.26454,1629928499.26741,1629928501.33198,1629928508.05115,1629928508.05298,1629928508.71956,1629928508.71807,1629929103.68995,1
56,4,2,4,1,8,3,c3_HowFace,2,smiling?,120,F_758.jpg,1629928496.45541,1629928496.45775,0.015792598724365,0.025395393371582,0.0491380596160886,2.11657690048218,0.3,9.81944989204407,0.750279664993286,10.5715420150757,3,right,0.731353998184204,10.5697295570374,604.474542369843,607.234542369843,1629928499.2312,1629928499.23722,1629928499.26454,1629928499.26741,1629928501.33198,1629928509.03486,1629928509.03618,1629928509.78695,1629928509.78514,1629929103.68995,0
56,4,2,4,2,1,1,c1_WhyFace,1,admiring?,1,F_593.jpg,1629928496.45541,1629928496.45775,10.6864385509491,8.42268753051758,19.1229185962677,21.2237019443512,2.1007833480835,21.3737587833405,1.10040998458862,22.4853939914703,1,left,1.08895492553711,22.4741687679291,604.474542369843,607.234542369843,1629928509.90184,1629928509.90364,1629928518.33832,1629928518.34045,1629928520.43911,1629928520.58916,1629928520.59102,1629928521.7008,1629928521.68957,1629929103.68995,1
56,4,2,4,2,2,1,c1_WhyFace,2,admiring?,2,F_129.jpg,1629928496.45541,1629928496.45775,10.6864385509491,8.42268753051758,19.1229185962677,21.2237019443512,0.3,22.7909531497955,1.05039167404175,23.8427750968933,1,left,1.03448104858398,23.8413448238373,604.474542369843,607.234542369843,1629928509.90184,1629928509.90364,1629928518.33832,1629928518.34045,1629928520.43911,1629928522.00636,1629928522.00816,1629928523.05818,1629928523.05675,1629929103.68995,0
56,4,2,4,2,3,1,c1_WhyFace,1,admiring?,5,F_759.jpg,1629928496.45541,1629928496.45775,10.6864385509491,8.42268753051758,19.1229185962677,21.2237019443512,0.3,24.1581294441223,0.83364462852478,25.0022301578522,1,left,0.821239948272705,24.9917740726471,604.474542369843,607.234542369843,1629928509.90184,1629928509.90364,1629928518.33832,1629928518.34045,1629928520.43911,1629928523.37354,1629928523.37525,1629928524.21764,1629928524.20718,1629929103.68995,1
56,4,2,4,2,4,1,c1_WhyFace,2,admiring?,6,F_692.jpg,1629928496.45541,1629928496.45775,10.6864385509491,8.42268753051758,19.1229185962677,21.2237019443512,0.3,25.3085589313507,0.983700037002563,26.294032087326,3,right,0.961378812789917,26.2922589683533,604.474542369843,607.234542369843,1629928509.90184,1629928509.90364,1629928518.33832,1629928518.34045,1629928520.43911,1629928524.52396,1629928524.52582,1629928525.50944,1629928525.50766,1629929103.68995,0
56,4,2,4,2,5,1,c1_WhyFace,1,admiring?,4,F_779.jpg,1629928496.45541,1629928496.45775,10.6864385509491,8.42268753051758,19.1229185962677,21.2237019443512,0.3,26.6090438270569,0.75027871131897,27.368760099411,1,left,0.739245891571045,27.3593225383759,604.474542369843,607.234542369843,1629928509.90184,1629928509.90364,1629928518.33832,1629928518.34045,1629928520.43911,1629928525.82445,1629928525.82621,1629928526.58417,1629928526.57473,1629929103.68995,1
56,4,2,4,2,6,1,c1_WhyFace,1,admiring?,8,F_590.jpg,1629928496.45541,1629928496.45775,10.6864385509491,8.42268753051758,19.1229185962677,21.2237019443512,0.3,27.6761085891724,0.800297975540161,28.4857649707794,1,left,0.793694019317627,28.4764065647125,604.474542369843,607.234542369843,1629928509.90184,1629928509.90364,1629928518.33832,1629928518.34045,1629928520.43911,1629928526.89151,1629928526.89299,1629928527.70117,1629928527.69181,1629929103.68995,1
56,4,2,4,2,7,1,c1_WhyFace,1,admiring?,7,F_648.jpg,1629928496.45541,1629928496.45775,10.6864385509491,8.42268753051758,19.1229185962677,21.2237019443512,0.3,28.7931916618347,0.633569955825806,29.4355530643463,1,left,0.620028972625732,29.4267616176605,604.474542369843,607.234542369843,1629928509.90184,1629928509.90364,1629928518.33832,1629928518.34045,1629928520.43911,1629928528.0086,1629928528.01068,1629928528.65096,1629928528.64217,1629929103.68995,1
56,4,2,4,2,8,1,c1_WhyFace,2,admiring?,3,F_110.jpg,1629928496.45541,1629928496.45775,10.6864385509491,8.42268753051758,19.1229185962677,21.2237019443512,0.3,29.7435462379456,0.633569478988647,30.3858470821381,3,right,0.618680953979492,30.3771157169342,604.474542369843,607.234542369843,1629928509.90184,1629928509.90364,1629928518.33832,1629928518.34045,1629928520.43911,1629928528.95895,1629928528.96086,1629928529.60125,1629928529.59252,1629929103.68995,0
56,4,2,4,3,1,2,c2_WhyHand,1,competing?,9,H_261.jpg,1629928496.45541,1629928496.45775,30.4604802036285,7.70264673233032,38.1800250911713,40.2808091545105,2.10078406333923,40.4308648014069,0.833643674850464,41.2690241241455,1,left,0.8164381980896,41.2645084762573,604.474542369843,607.234542369843,1629928529.67589,1629928529.68456,1629928537.39543,1629928537.39748,1629928539.49622,1629928539.64627,1629928539.64817,1629928540.48443,1629928540.47991,1629929103.68995,1
56,4,2,4,3,2,2,c2_WhyHand,1,competing?,15,H_170.jpg,1629928496.45541,1629928496.45775,30.4604802036285,7.70264673233032,38.1800250911713,40.2808091545105,0.3,41.5812935733795,0.683587789535522,42.2688119316101,1,left,0.673333168029785,42.264881362915,604.474542369843,607.234542369843,1629928529.67589,1629928529.68456,1629928537.39543,1629928537.39748,1629928539.49622,1629928540.7967,1629928540.80109,1629928541.48422,1629928541.48029,1629929103.68995,1
56,4,2,4,3,3,2,c2_WhyHand,2,competing?,12,H_483.jpg,1629928496.45541,1629928496.45775,30.4604802036285,7.70264673233032,38.1800250911713,40.2808091545105,0.3,42.5816662216187,0.900336980819702,43.4853999519348,3,right,0.886067867279053,43.4820032024384,604.474542369843,607.234542369843,1629928529.67589,1629928529.68456,1629928537.39543,1629928537.39748,1629928539.49622,1629928541.79707,1629928541.80096,1629928542.70081,1629928542.69741,1629929103.68995,0
56,4,2,4,3,4,2,c2_WhyHand,1,competing?,14,H_132.jpg,1629928496.45541,1629928496.45775,30.4604802036285,7.70264673233032,38.1800250911713,40.2808091545105,0.3,43.7987875843048,0.600224256515503,44.4017081165314,1,left,0.585629940032959,44.3990118408203,604.474542369843,607.234542369843,1629928529.67589,1629928529.68456,1629928537.39543,1629928537.39748,1629928539.49622,1629928543.01419,1629928543.01756,1629928543.61711,1629928543.61442,1629929103.68995,1
56,4,2,4,3,5,2,c2_WhyHand,1,competing?,16,H_136.jpg,1629928496.45541,1629928496.45775,30.4604802036285,7.70264673233032,38.1800250911713,40.2808091545105,0.3,44.7157964611053,0.866990566253662,45.5850739383698,1,left,0.852581977844238,45.582787027359,604.474542369843,607.234542369843,1629928529.67589,1629928529.68456,1629928537.39543,1629928537.39748,1629928539.49622,1629928543.9312,1629928543.93421,1629928544.80048,1629928544.79819,1629929103.68995,1
56,4,2,4,3,6,2,c2_WhyHand,1,competing?,13,H_003.jpg,1629928496.45541,1629928496.45775,30.4604802036285,7.70264673233032,38.1800250911713,40.2808091545105,0.3,45.8995706939697,0.700260400772095,46.6019210720062,1,left,0.682684898376465,46.5998310947418,604.474542369843,607.234542369843,1629928529.67589,1629928529.68456,1629928537.39543,1629928537.39748,1629928539.49622,1629928545.11498,1629928545.11793,1629928545.81733,1629928545.81524,1629929103.68995,1
56,4,2,4,3,7,2,c2_WhyHand,2,competing?,10,H_126.jpg,1629928496.45541,1629928496.45775,30.4604802036285,7.70264673233032,38.1800250911713,40.2808091545105,0.3,46.916616191864,0.750280380249023,47.6685960197449,3,right,0.739936828613281,47.666896572113,604.474542369843,607.234542369843,1629928529.67589,1629928529.68456,1629928537.39543,1629928537.39748,1629928539.49622,1629928546.13202,1629928546.13421,1629928546.884,1629928546.8823,1629929103.68995,0
56,4,2,4,3,8,2,c2_WhyHand,2,competing?,11,H_502.jpg,1629928496.45541,1629928496.45775,30.4604802036285,7.70264673233032,38.1800250911713,40.2808091545105,0.3,47.9836819076538,0.950354337692261,48.935151090622,3,right,0.92875599861145,48.9340362453461,604.474542369843,607.234542369843,1629928529.67589,1629928529.68456,1629928537.39543,1629928537.39748,1629928539.49622,1629928547.19909,1629928547.20101,1629928548.15056,1629928548.14944,1629929103.68995,0
56,4,2,4,4,1,4,c4_HowHand,1,reaching?,111,H_003.jpg,1629928496.45541,1629928496.45775,49.0007276439667,11.6443853378296,60.6550738716126,62.7558567428589,2.10078287124634,62.9059123897553,0.650243043899536,63.5684621238709,1,left,0.641126871109009,63.5561554336548,604.474542369843,607.234542369843,1629928548.21613,1629928548.21773,1629928559.87048,1629928559.87257,1629928561.97126,1629928562.12132,1629928562.12315,1629928562.78387,1629928562.77156,1629929103.68995,1
56,4,2,4,4,2,4,c4_HowHand,1,reaching?,110,H_364.jpg,1629928496.45541,1629928496.45775,49.0007276439667,11.6443853378296,60.6550738716126,62.7558567428589,0.3,63.8729395771027,0.800299167633057,64.685424079895,1,left,0.788246870040894,64.6732387447357,604.474542369843,607.234542369843,1629928548.21613,1629928548.21773,1629928559.87048,1629928559.87257,1629928561.97126,1629928563.08835,1629928563.09034,1629928563.90083,1629928563.88864,1629929103.68995,1
56,4,2,4,4,3,4,c4_HowHand,2,reaching?,108,H_532.jpg,1629928496.45541,1629928496.45775,49.0007276439667,11.6443853378296,60.6550738716126,62.7558567428589,0.3,64.9900240802765,0.850316762924194,65.8413300418854,3,right,0.837100982666016,65.8403408432007,604.474542369843,607.234542369843,1629928548.21613,1629928548.21773,1629928559.87048,1629928559.87257,1629928561.97126,1629928564.20543,1629928564.20696,1629928565.05674,1629928565.05575,1629929103.68995,0
56,4,2,4,4,4,4,c4_HowHand,1,reaching?,106,H_006.jpg,1629928496.45541,1629928496.45775,49.0007276439667,11.6443853378296,60.6550738716126,62.7558567428589,0.3,66.1571259403229,0.766952514648438,66.9258439445496,1,left,0.747185945510864,66.9240784549713,604.474542369843,607.234542369843,1629928548.21613,1629928548.21773,1629928559.87048,1629928559.87257,1629928561.97126,1629928565.37253,1629928565.37434,1629928566.14125,1629928566.13948,1629929103.68995,1
56,4,2,4,4,5,4,c4_HowHand,2,reaching?,105,H_438.jpg,1629928496.45541,1629928496.45775,49.0007276439667,11.6443853378296,60.6550738716126,62.7558567428589,0.3,67.2408625984192,1.05039191246033,68.2925100231171,3,right,1.02897191047668,68.2912545108795,604.474542369843,607.234542369843,1629928548.21613,1629928548.21773,1629928559.87048,1629928559.87257,1629928561.97126,1629928566.45627,1629928566.45754,1629928567.50792,1629928567.50666,1629929103.68995,0
56,4,2,4,4,6,4,c4_HowHand,1,reaching?,107,H_007.jpg,1629928496.45541,1629928496.45775,49.0007276439667,11.6443853378296,60.6550738716126,62.7558567428589,0.3,68.6080393695831,0.60022497177124,69.2190151119232,1,left,0.58827805519104,69.2082643413544,604.474542369843,607.234542369843,1629928548.21613,1629928548.21773,1629928559.87048,1629928559.87257,1629928561.97126,1629928567.82345,1629928567.8249,1629928568.43442,1629928568.42367,1629929103.68995,1
56,4,2,4,4,7,4,c4_HowHand,1,reaching?,109,H_474.jpg,1629928496.45541,1629928496.45775,49.0007276439667,11.6443853378296,60.6550738716126,62.7558567428589,0.3,69.5250475311279,1.15042877197266,70.6856939697266,1,left,1.14335703849792,70.6754763031006,604.474542369843,607.234542369843,1629928548.21613,1629928548.21773,1629928559.87048,1629928559.87257,1629928561.97126,1629928568.74045,1629928568.74188,1629928569.9011,1629928569.89088,1629929103.68995,1
56,4,2,4,4,8,4,c4_HowHand,2,reaching?,112,H_132.jpg,1629928496.45541,1629928496.45775,49.0007276439667,11.6443853378296,60.6550738716126,62.7558567428589,0.3,70.9922614002228,0.800299644470215,71.8025929832458,3,right,0.789754152297974,71.792561044693,604.474542369843,607.234542369843,1629928548.21613,1629928548.21773,1629928559.87048,1629928559.87257,1629928561.97126,1629928570.20767,1629928570.20946,1629928571.018,1629928571.00797,1629929103.68995,0
56,4,2,4,5,1,3,c3_HowFace,1,open mouth?,73,F_403.jpg,1629928496.45541,1629928496.45775,71.8592517280579,7.89457440376282,79.7621989154816,81.8629825019836,2.10078358650208,82.0130383872986,0.633569240570068,82.6476271057129,1,left,0.607329845428467,82.6466076278686,604.474542369843,607.234542369843,1629928571.07466,1629928571.08558,1629928578.9776,1629928578.98557,1629928581.07839,1629928581.22844,1629928581.23477,1629928581.86303,1629928581.86201,1629929103.68995,1
56,4,2,4,5,2,3,c3_HowFace,2,open mouth?,79,F_648.jpg,1629928496.45541,1629928496.45775,71.8592517280579,7.89457440376282,79.7621989154816,81.8629825019836,0.3,82.9633927249908,0.516860246658325,83.4856510066986,3,right,0.502063989639282,83.4802529716492,604.474542369843,607.234542369843,1629928571.07466,1629928571.08558,1629928578.9776,1629928578.98557,1629928581.07839,1629928582.1788,1629928582.18047,1629928582.70106,1629928582.69566,1629929103.68995,0
56,4,2,4,5,3,3,c3_HowFace,1,open mouth?,74,F_776.jpg,1629928496.45541,1629928496.45775,71.8592517280579,7.89457440376282,79.7621989154816,81.8629825019836,0.3,83.797037115097,0.483513355255127,84.2815351390839,1,left,0.461674928665161,84.2805504703522,604.474542369843,607.234542369843,1629928571.07466,1629928571.08558,1629928578.9776,1629928578.98557,1629928581.07839,1629928583.01244,1629928583.01418,1629928583.49694,1629928583.49596,1629929103.68995,1
56,4,2,4,5,4,3,c3_HowFace,2,open mouth?,77,F_584.jpg,1629928496.45541,1629928496.45775,71.8592517280579,7.89457440376282,79.7621989154816,81.8629825019836,0.3,84.5973350906372,0.600223779678345,85.2024130725861,3,right,0.59063196182251,85.1975588703155,604.474542369843,607.234542369843,1629928571.07466,1629928571.08558,1629928578.9776,1629928578.98557,1629928581.07839,1629928583.81274,1629928583.81475,1629928584.41782,1629928584.41296,1629929103.68995,0
56,4,2,4,5,5,3,c3_HowFace,1,open mouth?,80,F_844.jpg,1629928496.45541,1629928496.45775,71.8592517280579,7.89457440376282,79.7621989154816,81.8629825019836,0.3,85.5143449211121,0.583549499511719,86.1025230789185,1,left,0.567754983901978,86.0978944206238,604.474542369843,607.234542369843,1629928571.07466,1629928571.08558,1629928578.9776,1629928578.98557,1629928581.07839,1629928584.72975,1629928584.73433,1629928585.31793,1629928585.3133,1629929103.68995,1
56,4,2,4,5,6,3,c3_HowFace,1,open mouth?,78,F_692.jpg,1629928496.45541,1629928496.45775,71.8592517280579,7.89457440376282,79.7621989154816,81.8629825019836,0.3,86.4146799945831,0.633569717407227,87.0521500015259,1,left,0.62087607383728,87.0482497119904,604.474542369843,607.234542369843,1629928571.07466,1629928571.08558,1629928578.9776,1629928578.98557,1629928581.07839,1629928585.63009,1629928585.63428,1629928586.26756,1629928586.26366,1629929103.68995,1
56,4,2,4,5,7,3,c3_HowFace,1,open mouth?,75,F_086.jpg,1629928496.45541,1629928496.45775,71.8592517280579,7.89457440376282,79.7621989154816,81.8629825019836,0.3,87.365034570694,0.55020546913147,87.9189801120758,1,left,0.527005910873413,87.9152400398254,604.474542369843,607.234542369843,1629928571.07466,1629928571.08558,1629928578.9776,1629928578.98557,1629928581.07839,1629928586.58044,1629928586.58449,1629928587.13439,1629928587.13065,1629929103.68995,1
56,4,2,4,5,8,3,c3_HowFace,2,open mouth?,76,F_544.jpg,1629928496.45541,1629928496.45775,71.8592517280579,7.89457440376282,79.7621989154816,81.8629825019836,0.3,88.2320237064362,0.666916131973267,88.9017410182953,3,right,0.652798891067505,88.8989398384094,604.474542369843,607.234542369843,1629928571.07466,1629928571.08558,1629928578.9776,1629928578.98557,1629928581.07839,1629928587.44743,1629928587.45106,1629928588.11715,1629928588.11435,1629929103.68995,0
56,4,2,4,6,1,1,c1_WhyFace,1,argument?,42,F_403.jpg,1629928496.45541,1629928496.45775,88.9656317138672,12.2672803401947,101.236873617172,103.337657680511,2.10078406333923,103.487713804245,0.78362512588501,104.272966136932,1,left,0.749291896820068,104.27133893013,604.474542369843,607.234542369843,1629928588.18104,1629928588.18428,1629928600.45228,1629928600.46825,1629928602.55306,1629928602.70312,1629928602.71815,1629928603.48837,1629928603.48674,1629929103.68995,1
56,4,2,4,6,2,1,c1_WhyFace,2,argument?,46,F_844.jpg,1629928496.45541,1629928496.45775,88.9656317138672,12.2672803401947,101.236873617172,103.337657680511,0.3,104.588123311996,0.633570194244385,105.235151042938,3,right,0.625302076339722,105.221693506241,604.474542369843,607.234542369843,1629928588.18104,1629928588.18428,1629928600.45228,1629928600.46825,1629928602.55306,1629928603.80353,1629928603.8053,1629928604.45056,1629928604.4371,1629929103.68995,0
56,4,2,4,6,3,1,c1_WhyFace,1,argument?,41,F_712.jpg,1629928496.45541,1629928496.45775,88.9656317138672,12.2672803401947,101.236873617172,103.337657680511,0.3,105.538479318619,0.783624887466431,106.323177089691,1,left,0.769103050231934,106.322104206085,604.474542369843,607.234542369843,1629928588.18104,1629928588.18428,1629928600.45228,1629928600.46825,1629928602.55306,1629928604.75389,1629928604.7557,1629928605.53858,1629928605.53751,1629929103.68995,1
56,4,2,4,6,4,1,c1_WhyFace,1,argument?,48,F_758.jpg,1629928496.45541,1629928496.45775,88.9656317138672,12.2672803401947,101.236873617172,103.337657680511,0.3,106.63888882637,0.800297975540161,107.440533151627,1,left,0.78488302230835,107.43918680191,604.474542369843,607.234542369843,1629928588.18104,1629928588.18428,1629928600.45228,1629928600.46825,1629928602.55306,1629928605.85429,1629928605.85579,1629928606.65594,1629928606.65459,1629929103.68995,1
56,4,2,4,6,5,1,c1_WhyFace,2,argument?,45,F_433.jpg,1629928496.45541,1629928496.45775,88.9656317138672,12.2672803401947,101.236873617172,103.337657680511,0.3,107.755971899033,0.700260639190674,108.45732211113,3,right,0.68364691734314,108.456232538223,604.474542369843,607.234542369843,1629928588.18104,1629928588.18428,1629928600.45228,1629928600.46825,1629928602.55306,1629928606.97138,1629928606.97302,1629928607.67273,1629928607.67164,1629929103.68995,0
56,4,2,4,6,6,1,c1_WhyFace,1,argument?,43,F_716.jpg,1629928496.45541,1629928496.45775,88.9656317138672,12.2672803401947,101.236873617172,103.337657680511,0.3,108.773017396927,0.816972255706787,109.591925134659,1,left,0.79925012588501,109.589989652634,604.474542369843,607.234542369843,1629928588.18104,1629928588.18428,1629928600.45228,1629928600.46825,1629928602.55306,1629928607.98842,1629928607.99015,1629928608.80733,1629928608.8054,1629929103.68995,1
56,4,2,4,6,7,1,c1_WhyFace,2,argument?,44,F_139.jpg,1629928496.45541,1629928496.45775,88.9656317138672,12.2672803401947,101.236873617172,103.337657680511,0.3,109.906773557663,0.633569955825806,110.551742067337,3,right,0.622525930404663,110.540343513489,604.474542369843,607.234542369843,1629928588.18104,1629928588.18428,1629928600.45228,1629928600.46825,1629928602.55306,1629928609.12218,1629928609.12375,1629928609.76715,1629928609.75575,1629929103.68995,0
56,4,2,4,6,8,1,c1_WhyFace,1,argument?,47,F_743.jpg,1629928496.45541,1629928496.45775,88.9656317138672,12.2672803401947,101.236873617172,103.337657680511,0.3,110.857129087448,0.600222587585449,111.458914031982,1,left,0.581063985824585,111.457351675034,604.474542369843,607.234542369843,1629928588.18104,1629928588.18428,1629928600.45228,1629928600.46825,1629928602.55306,1629928610.07254,1629928610.07454,1629928610.67432,1629928610.67276,1629929103.68995,1
56,4,2,4,7,1,2,c2_WhyHand,1,helping?,39,H_024.jpg,1629928496.45541,1629928496.45775,111.524044027328,12.1909730434418,123.72859500885,125.829378833771,2.10078382492065,125.979434957504,0.850317001342773,126.835942020416,3,right,0.827409029006958,126.829751958847,604.474542369843,607.234542369843,1629928610.73945,1629928610.74097,1629928622.944,1629928622.95208,1629928625.04478,1629928625.19484,1629928625.20158,1629928626.05135,1629928626.04516,1629929103.68995,0
56,4,2,4,7,2,2,c2_WhyHand,1,helping?,36,H_349.jpg,1629928496.45541,1629928496.45775,111.524044027328,12.1909730434418,123.72859500885,125.829378833771,0.3,127.146536340713,0.783625602722168,127.93593000412,1,left,0.768848180770874,127.930161943436,604.474542369843,607.234542369843,1629928610.73945,1629928610.74097,1629928622.944,1629928622.95208,1629928625.04478,1629928626.36194,1629928626.36297,1629928627.15134,1629928627.14557,1629929103.68995,1
56,4,2,4,7,3,2,c2_WhyHand,1,helping?,38,H_077.jpg,1629928496.45541,1629928496.45775,111.524044027328,12.1909730434418,123.72859500885,125.829378833771,0.3,128.246947278976,0.566877365112305,128.815336933136,1,left,0.543328046798706,128.813824644089,604.474542369843,607.234542369843,1629928610.73945,1629928610.74097,1629928622.944,1629928622.95208,1629928625.04478,1629928627.46235,1629928627.46395,1629928628.03074,1629928628.02923,1629929103.68995,1
56,4,2,4,7,4,2,c2_WhyHand,1,helping?,37,H_474.jpg,1629928496.45541,1629928496.45775,111.524044027328,12.1909730434418,123.72859500885,125.829378833771,0.3,129.130609502792,0.917009115219116,130.049539079666,1,left,0.896077156066895,130.047618618011,604.474542369843,607.234542369843,1629928610.73945,1629928610.74097,1629928622.944,1629928622.95208,1629928625.04478,1629928628.34602,1629928628.34765,1629928629.26495,1629928629.26302,1629929103.68995,1
56,4,2,4,7,5,2,c2_WhyHand,2,helping?,33,H_091.jpg,1629928496.45541,1629928496.45775,111.524044027328,12.1909730434418,123.72859500885,125.829378833771,0.3,130.364402523041,0.766952753067017,131.13298915863,1,left,0.743414878845215,131.131355276108,604.474542369843,607.234542369843,1629928610.73945,1629928610.74097,1629928622.944,1629928622.95208,1629928625.04478,1629928629.57981,1629928629.58411,1629928630.3484,1629928630.34676,1629929103.68995,0
56,4,2,4,7,6,2,c2_WhyHand,2,helping?,35,H_159.jpg,1629928496.45541,1629928496.45775,111.524044027328,12.1909730434418,123.72859500885,125.829378833771,0.3,131.448140850067,1.20044660568237,132.65241812706,1,left,1.18641209602356,132.64858745575,604.474542369843,607.234542369843,1629928610.73945,1629928610.74097,1629928622.944,1629928622.95208,1629928625.04478,1629928630.66355,1629928630.66774,1629928631.86782,1629928631.86399,1629929103.68995,0
56,4,2,4,7,7,2,c2_WhyHand,1,helping?,34,H_111.jpg,1629928496.45541,1629928496.45775,111.524044027328,12.1909730434418,123.72859500885,125.829378833771,0.3,132.965372314453,1.30048584938049,134.268470993042,1,left,1.28599500656128,134.265858163834,604.474542369843,607.234542369843,1629928610.73945,1629928610.74097,1629928622.944,1629928622.95208,1629928625.04478,1629928632.18078,1629928632.18465,1629928633.48388,1629928633.48126,1629929103.68995,1
56,4,2,4,7,8,2,c2_WhyHand,2,helping?,40,H_012.jpg,1629928496.45541,1629928496.45775,111.524044027328,12.1909730434418,123.72859500885,125.829378833771,0.3,134.582642784119,0.950353622436523,135.535006990433,3,right,0.941232204437256,135.532996406555,604.474542369843,607.234542369843,1629928610.73945,1629928610.74097,1629928622.944,1629928622.95208,1629928625.04478,1629928633.79805,1629928633.80093,1629928634.75041,1629928634.7484,1629929103.68995,0
56,4,2,4,8,1,4,c4_HowHand,1,both hands?,122,H_111.jpg,1629928496.45541,1629928496.45775,135.599688520432,5.64531064033508,141.251796712875,143.352579345703,2.10078263282776,143.502635946274,0.883662223815918,144.387305011749,1,left,0.870816946029663,144.38629817009,604.474542369843,607.234542369843,1629928634.81509,1629928634.81758,1629928640.4672,1629928640.46903,1629928642.56799,1629928642.71804,1629928642.71984,1629928643.60271,1629928643.6017,1629929103.68995,1
56,4,2,4,8,2,4,c4_HowHand,1,both hands?,128,H_027.jpg,1629928496.45541,1629928496.45775,135.599688520432,5.64531064033508,141.251796712875,143.352579345703,0.3,144.703083505631,0.733607292175293,145.437689056396,1,left,0.717828989028931,145.436690797806,604.474542369843,607.234542369843,1629928634.81509,1629928634.81758,1629928640.4672,1629928640.46903,1629928642.56799,1629928643.91849,1629928643.91985,1629928644.6531,1629928644.6521,1629929103.68995,1
56,4,2,4,8,3,4,c4_HowHand,2,both hands?,121,H_091.jpg,1629928496.45541,1629928496.45775,135.599688520432,5.64531064033508,141.251796712875,143.352579345703,0.3,145.753474941254,0.850317478179932,146.604727020264,3,right,0.839184045791626,146.603792419434,604.474542369843,607.234542369843,1629928634.81509,1629928634.81758,1629928640.4672,1629928640.46903,1629928642.56799,1629928644.96888,1629928644.97068,1629928645.82013,1629928645.8192,1629929103.68995,0
56,4,2,4,8,4,4,c4_HowHand,1,both hands?,123,H_167.jpg,1629928496.45541,1629928496.45775,135.599688520432,5.64531064033508,141.251796712875,143.352579345703,0.3,146.920577516556,1.15042948722839,148.085417976379,1,left,1.14098310470581,148.071007003784,604.474542369843,607.234542369843,1629928634.81509,1629928634.81758,1629928640.4672,1629928640.46903,1629928642.56799,1629928646.13598,1629928646.13757,1629928647.30082,1629928647.28641,1629929103.68995,1
56,4,2,4,8,5,4,c4_HowHand,1,both hands?,124,H_581.jpg,1629928496.45541,1629928496.45775,135.599688520432,5.64531064033508,141.251796712875,143.352579345703,0.3,148.387791624069,0.900335788726807,149.302283992767,1,left,0.890017032623291,149.288127412796,604.474542369843,607.234542369843,1629928634.81509,1629928634.81758,1629928640.4672,1629928640.46903,1629928642.56799,1629928647.6032,1629928647.60479,1629928648.51769,1629928648.50353,1629929103.68995,1
56,4,2,4,8,6,4,c4_HowHand,2,both hands?,126,H_159.jpg,1629928496.45541,1629928496.45775,135.599688520432,5.64531064033508,141.251796712875,143.352579345703,0.3,149.604912033081,0.816970825195312,150.435523023605,3,right,0.809637069702148,150.421882858276,604.474542369843,607.234542369843,1629928634.81509,1629928634.81758,1629928640.4672,1629928640.46903,1629928642.56799,1629928648.82032,1629928648.82195,1629928649.65093,1629928649.63729,1629929103.68995,0
56,4,2,4,8,7,4,c4_HowHand,1,both hands?,127,H_349.jpg,1629928496.45541,1629928496.45775,135.599688520432,5.64531064033508,141.251796712875,143.352579345703,0.3,150.738667955399,0.566877841949463,151.31884311676,1,left,0.555532932281494,151.305545797348,604.474542369843,607.234542369843,1629928634.81509,1629928634.81758,1629928640.4672,1629928640.46903,1629928642.56799,1629928649.95407,1629928649.95589,1629928650.53425,1629928650.52095,1629929103.68995,1
56,4,2,4,8,8,4,c4_HowHand,2,both hands?,125,H_627.jpg,1629928496.45541,1629928496.45775,135.599688520432,5.64531064033508,141.251796712875,143.352579345703,0.3,151.622330417633,0.833644151687622,152.468439092636,3,right,0.824508905410767,152.455974569321,604.474542369843,607.234542369843,1629928634.81509,1629928634.81758,1629928640.4672,1629928640.46903,1629928642.56799,1629928650.83774,1629928650.83929,1629928651.68385,1629928651.67138,1629929103.68995,0
56,4,2,4,9,1,2,c2_WhyHand,1,healthy?,18,H_438.jpg,1629928496.45541,1629928496.45775,152.522666683197,6.25224041938782,158.7916705513,160.892454853058,2.10078430175781,161.042509784698,1.06706500053406,162.110656967163,1,left,1.04785418510437,162.109574785233,604.474542369843,607.234542369843,1629928651.73807,1629928651.7511,1629928658.00708,1629928658.00886,1629928660.10786,1629928660.25792,1629928660.26008,1629928661.32606,1629928661.32498,1629929103.68995,1
56,4,2,4,9,2,2,c2_WhyHand,1,healthy?,23,H_364.jpg,1629928496.45541,1629928496.45775,152.522666683197,6.25224041938782,158.7916705513,160.892454853058,0.3,162.426359405518,0.800298690795898,163.228441944122,1,left,0.777122020721436,163.226658096313,604.474542369843,607.234542369843,1629928651.73807,1629928651.7511,1629928658.00708,1629928658.00886,1629928660.10786,1629928661.64177,1629928661.64392,1629928662.44385,1629928662.44206,1629929103.68995,1
56,4,2,4,9,3,2,c2_WhyHand,1,healthy?,17,H_362.jpg,1629928496.45541,1629928496.45775,152.522666683197,6.25224041938782,158.7916705513,160.892454853058,0.3,163.543442955017,0.80029821395874,164.344748010635,1,left,0.77887487411499,164.343741168976,604.474542369843,607.234542369843,1629928651.73807,1629928651.7511,1629928658.00708,1629928658.00886,1629928660.10786,1629928662.75885,1629928662.7607,1629928663.56015,1629928663.55915,1629929103.68995,1
56,4,2,4,9,4,2,c2_WhyHand,2,healthy?,24,H_019.jpg,1629928496.45541,1629928496.45775,152.522666683197,6.25224041938782,158.7916705513,160.892454853058,0.3,164.660525312424,0.800299882888794,165.468723049164,3,right,0.790472984313965,165.460825195313,604.474542369843,607.234542369843,1629928651.73807,1629928651.7511,1629928658.00708,1629928658.00886,1629928660.10786,1629928663.87593,1629928663.87762,1629928664.68413,1629928664.67623,1629929103.68995,0
56,4,2,4,9,5,2,c2_WhyHand,1,healthy?,19,H_167.jpg,1629928496.45541,1629928496.45775,152.522666683197,6.25224041938782,158.7916705513,160.892454853058,0.3,165.777609577179,0.633569002151489,166.419203987122,1,left,0.620259046554565,166.41117857933,604.474542369843,607.234542369843,1629928651.73807,1629928651.7511,1629928658.00708,1629928658.00886,1629928660.10786,1629928664.99302,1629928664.9946,1629928665.63461,1629928665.62658,1629929103.68995,1
56,4,2,4,9,6,2,c2_WhyHand,2,healthy?,20,H_007.jpg,1629928496.45541,1629928496.45775,152.522666683197,6.25224041938782,158.7916705513,160.892454853058,0.3,166.727963676453,0.816972255706787,167.552119960785,3,right,0.803530931472778,167.544935932159,604.474542369843,607.234542369843,1629928651.73807,1629928651.7511,1629928658.00708,1629928658.00886,1629928660.10786,1629928665.94337,1629928665.94479,1629928666.76753,1629928666.76034,1629929103.68995,0
56,4,2,4,9,7,2,c2_WhyHand,1,healthy?,21,H_627.jpg,1629928496.45541,1629928496.45775,152.522666683197,6.25224041938782,158.7916705513,160.892454853058,0.3,167.86171959877,0.833643913269043,168.702413072586,1,left,0.825559854507446,168.695363512039,604.474542369843,607.234542369843,1629928651.73807,1629928651.7511,1629928658.00708,1629928658.00886,1629928660.10786,1629928667.07713,1629928667.07903,1629928667.91782,1629928667.91077,1629929103.68995,1
56,4,2,4,9,8,2,c2_WhyHand,2,healthy?,22,H_130.jpg,1629928496.45541,1629928496.45775,152.522666683197,6.25224041938782,158.7916705513,160.892454853058,0.3,169.01214884758,1.23379325866699,170.251765003204,1,left,1.22313189506531,170.245942106247,604.474542369843,607.234542369843,1629928651.73807,1629928651.7511,1629928658.00708,1629928658.00886,1629928660.10786,1629928668.22755,1629928668.22911,1629928669.46717,1629928669.46135,1629929103.68995,0
56,4,2,4,10,1,4,c4_HowHand,1,pressing button?,82,H_126.jpg,1629928496.45541,1629928496.45775,170.329306592941,7.12160348892212,177.465301742554,179.5660846138,2.10078287124634,179.716140737534,0.700261116027832,180.418502082825,1,left,0.677277088165283,180.416401853561,604.474542369843,607.234542369843,1629928669.54471,1629928669.54663,1629928676.68071,1629928676.6846,1629928678.78149,1629928678.93155,1629928678.93432,1629928679.63391,1629928679.63181,1629929103.68995,1
56,4,2,4,10,2,4,c4_HowHand,2,pressing button?,85,H_130.jpg,1629928496.45541,1629928496.45775,170.329306592941,7.12160348892212,177.465301742554,179.5660846138,0.3,180.733186235428,0.716934442520142,181.451817026138,3,right,0.697921991348267,181.450120677948,604.474542369843,607.234542369843,1629928669.54471,1629928669.54663,1629928676.68071,1629928676.6846,1629928678.78149,1629928679.94859,1629928679.95104,1629928680.66722,1629928680.66553,1629929103.68995,0
56,4,2,4,10,3,4,c4_HowHand,1,pressing button?,84,H_483.jpg,1629928496.45541,1629928496.45775,170.329306592941,7.12160348892212,177.465301742554,179.5660846138,0.3,181.76690577507,0.583549737930298,182.351711025238,1,left,0.572762966156006,182.350455513,604.474542369843,607.234542369843,1629928669.54471,1629928669.54663,1629928676.68071,1629928676.6846,1629928678.78149,1629928680.98231,1629928680.98437,1629928681.56712,1629928681.56586,1629929103.68995,1
56,4,2,4,10,4,4,c4_HowHand,2,pressing button?,87,H_024.jpg,1629928496.45541,1629928496.45775,170.329306592941,7.12160348892212,177.465301742554,179.5660846138,0.3,182.66724108696,0.883663177490234,183.552714099884,3,right,0.865940093994141,183.55090426445,604.474542369843,607.234542369843,1629928669.54471,1629928669.54663,1629928676.68071,1629928676.6846,1629928678.78149,1629928681.88265,1629928681.88411,1629928682.76812,1629928682.76631,1629929103.68995,0
56,4,2,4,10,5,4,c4_HowHand,1,pressing button?,86,H_332.jpg,1629928496.45541,1629928496.45775,170.329306592941,7.12160348892212,177.465301742554,179.5660846138,0.3,183.867688169479,0.866990327835083,184.736372938156,1,left,0.847743988037109,184.734678497314,604.474542369843,607.234542369843,1629928669.54471,1629928669.54663,1629928676.68071,1629928676.6846,1629928678.78149,1629928683.08309,1629928683.08471,1629928683.95178,1629928683.95008,1629929103.68995,1
56,4,2,4,10,6,4,c4_HowHand,1,pressing button?,88,H_019.jpg,1629928496.45541,1629928496.45775,170.329306592941,7.12160348892212,177.465301742554,179.5660846138,0.3,185.051463832855,0.80029821395874,185.853229036331,1,left,0.777373075485229,185.851762046814,604.474542369843,607.234542369843,1629928669.54471,1629928669.54663,1629928676.68071,1629928676.6846,1629928678.78149,1629928684.26687,1629928684.26817,1629928685.06863,1629928685.06717,1629929103.68995,1
56,4,2,4,10,7,4,c4_HowHand,2,pressing button?,81,H_261.jpg,1629928496.45541,1629928496.45775,170.329306592941,7.12160348892212,177.465301742554,179.5660846138,0.3,186.16854642868,0.866990566253662,187.051823129654,3,right,0.860504150390625,187.035536994934,604.474542369843,607.234542369843,1629928669.54471,1629928669.54663,1629928676.68071,1629928676.6846,1629928678.78149,1629928685.38395,1629928685.38549,1629928686.26723,1629928686.25094,1629929103.68995,0
56,4,2,4,10,8,4,c4_HowHand,1,pressing button?,83,H_502.jpg,1629928496.45541,1629928496.45775,170.329306592941,7.12160348892212,177.465301742554,179.5660846138,0.3,187.352321615219,0.566878080368042,187.920274963379,1,left,0.550871133804321,187.919199695587,604.474542369843,607.234542369843,1629928669.54471,1629928669.54663,1629928676.68071,1629928676.6846,1629928678.78149,1629928686.56773,1629928686.56923,1629928687.13568,1629928687.13461,1629929103.68995,1
56,4,2,4,11,1,3,c3_HowFace,1,looking at camera?,60,F_618.jpg,1629928496.45541,1629928496.45775,187.985890855789,10.9453392028809,198.9399771595,201.040759315491,2.1007821559906,201.19081615448,0.533530712127686,201.725790014267,1,left,0.511931896209717,201.724346866608,604.474542369843,607.234542369843,1629928687.2013,1629928687.20221,1629928698.15538,1629928698.16796,1629928700.25617,1629928700.40622,1629928700.40843,1629928700.9412,1629928700.93975,1629929103.68995,1
56,4,2,4,11,2,3,c3_HowFace,2,looking at camera?,58,F_754.jpg,1629928496.45541,1629928496.45775,187.985890855789,10.9453392028809,198.9399771595,201.040759315491,0.3,202.041133155823,0.666915893554688,202.70941113472,3,right,0.652719020843506,202.708049049377,604.474542369843,607.234542369843,1629928687.2013,1629928687.20221,1629928698.15538,1629928698.16796,1629928700.25617,1629928701.25654,1629928701.25818,1629928701.92482,1629928701.92345,1629929103.68995,0
56,4,2,4,11,3,3,c3_HowFace,1,looking at camera?,59,F_129.jpg,1629928496.45541,1629928496.45775,187.985890855789,10.9453392028809,198.9399771595,201.040759315491,0.3,203.024832954407,0.466840267181396,203.502319087982,1,left,0.457815170288086,203.491673221588,604.474542369843,607.234542369843,1629928687.2013,1629928687.20221,1629928698.15538,1629928698.16796,1629928700.25617,1629928702.24024,1629928702.24198,1629928702.71773,1629928702.70708,1629929103.68995,1
56,4,2,4,11,4,3,c3_HowFace,1,looking at camera?,62,F_598.jpg,1629928496.45541,1629928496.45775,187.985890855789,10.9453392028809,198.9399771595,201.040759315491,0.3,203.80845831871,0.83364462852478,204.643591156006,1,left,0.817888021469116,204.642102947235,604.474542369843,607.234542369843,1629928687.2013,1629928687.20221,1629928698.15538,1629928698.16796,1629928700.25617,1629928703.02386,1629928703.02521,1629928703.859,1629928703.85751,1629929103.68995,1
56,4,2,4,11,5,3,c3_HowFace,1,looking at camera?,64,F_128.jpg,1629928496.45541,1629928496.45775,187.985890855789,10.9453392028809,198.9399771595,201.040759315491,0.3,204.958888044357,0.716933965682983,205.685129156113,1,left,0.706188917160034,205.67582201004,604.474542369843,607.234542369843,1629928687.2013,1629928687.20221,1629928698.15538,1629928698.16796,1629928700.25617,1629928704.17429,1629928704.17593,1629928704.90054,1629928704.89123,1629929103.68995,1
56,4,2,4,11,6,3,c3_HowFace,2,looking at camera?,57,F_582.jpg,1629928496.45541,1629928496.45775,187.985890855789,10.9453392028809,198.9399771595,201.040759315491,0.3,205.99260591507,0.866990804672241,206.860962142944,3,right,0.844913005828857,206.859596719742,604.474542369843,607.234542369843,1629928687.2013,1629928687.20221,1629928698.15538,1629928698.16796,1629928700.25617,1629928705.20801,1629928705.20961,1629928706.07637,1629928706.075,1629929103.68995,0
56,4,2,4,11,7,3,c3_HowFace,1,looking at camera?,61,F_774.jpg,1629928496.45541,1629928496.45775,187.985890855789,10.9453392028809,198.9399771595,201.040759315491,0.3,207.176380624771,0.566878318786621,207.745021095276,1,left,0.548531770706177,207.743258943558,604.474542369843,607.234542369843,1629928687.2013,1629928687.20221,1629928698.15538,1629928698.16796,1629928700.25617,1629928706.39179,1629928706.3936,1629928706.96043,1629928706.95866,1629929103.68995,1
56,4,2,4,11,8,3,c3_HowFace,2,looking at camera?,63,F_743.jpg,1629928496.45541,1629928496.45775,187.985890855789,10.9453392028809,198.9399771595,201.040759315491,0.3,208.060043802261,0.666915893554688,208.728409042358,3,right,0.644064903259277,208.726959695816,604.474542369843,607.234542369843,1629928687.2013,1629928687.20221,1629928698.15538,1629928698.16796,1629928700.25617,1629928707.27545,1629928707.27711,1629928707.94381,1629928707.94237,1629929103.68995,0
56,4,2,4,12,1,1,c1_WhyFace,1,self-doubt?,25,F_798.jpg,1629928496.45541,1629928496.45775,208.810323467255,8.91056966781616,217.730317106247,219.831101169586,2.10078406333923,219.981156578064,0.816971302032471,220.801848163605,1,left,0.79624605178833,220.798127880096,604.474542369843,607.234542369843,1629928708.02573,1629928708.02726,1629928716.94572,1629928716.95171,1629928719.04651,1629928719.19656,1629928719.20177,1629928720.01725,1629928720.01353,1629929103.68995,1
56,4,2,4,12,2,1,c1_WhyFace,2,self-doubt?,27,F_086.jpg,1629928496.45541,1629928496.45775,208.810323467255,8.91056966781616,217.730317106247,219.831101169586,0.3,221.114912500381,0.733607053756714,221.85178612709,3,right,0.711236000061035,221.848519554138,604.474542369843,607.234542369843,1629928708.02573,1629928708.02726,1629928716.94572,1629928716.95171,1629928719.04651,1629928720.33032,1629928720.3345,1629928721.06719,1629928721.06393,1629929103.68995,0
56,4,2,4,12,3,1,c1_WhyFace,1,self-doubt?,29,F_544.jpg,1629928496.45541,1629928496.45775,208.810323467255,8.91056966781616,217.730317106247,219.831101169586,0.3,222.16530465126,0.633569478988647,222.801743021011,1,left,0.617369174957275,222.798874130249,604.474542369843,607.234542369843,1629928708.02573,1629928708.02726,1629928716.94572,1629928716.95171,1629928719.04651,1629928721.38071,1629928721.38453,1629928722.01715,1629928722.01428,1629929103.68995,1
56,4,2,4,12,4,1,c1_WhyFace,1,self-doubt?,28,F_754.jpg,1629928496.45541,1629928496.45775,208.810323467255,8.91056966781616,217.730317106247,219.831101169586,0.3,223.115658988953,1.00037240982056,224.11882399559,1,left,0.984847068786621,224.116031398773,604.474542369843,607.234542369843,1629928708.02573,1629928708.02726,1629928716.94572,1629928716.95171,1629928719.04651,1629928722.33106,1629928722.33463,1629928723.33423,1629928723.33144,1629929103.68995,1
56,4,2,4,12,5,1,c1_WhyFace,1,self-doubt?,26,F_111.jpg,1629928496.45541,1629928496.45775,208.810323467255,8.91056966781616,217.730317106247,219.831101169586,0.3,224.432816257477,0.950354337692261,225.385884990692,1,left,0.936779022216797,225.383170595169,604.474542369843,607.234542369843,1629928708.02573,1629928708.02726,1629928716.94572,1629928716.95171,1629928719.04651,1629928723.64822,1629928723.65114,1629928724.60129,1629928724.59858,1629929103.68995,1
56,4,2,4,12,6,1,c1_WhyFace,1,self-doubt?,30,F_584.jpg,1629928496.45541,1629928496.45775,208.810323467255,8.91056966781616,217.730317106247,219.831101169586,0.3,225.699955453873,0.816971063613892,226.519129981995,3,right,0.795867919921875,226.516926517487,604.474542369843,607.234542369843,1629928708.02573,1629928708.02726,1629928716.94572,1629928716.95171,1629928719.04651,1629928724.91536,1629928724.91794,1629928725.73454,1629928725.73233,1629929103.68995,0
56,4,2,4,12,7,1,c1_WhyFace,2,self-doubt?,32,F_128.jpg,1629928496.45541,1629928496.45775,208.810323467255,8.91056966781616,217.730317106247,219.831101169586,0.3,226.833711853027,0.933681011199951,227.768408050537,3,right,0.923192977905273,227.767392864227,604.474542369843,607.234542369843,1629928708.02573,1629928708.02726,1629928716.94572,1629928716.95171,1629928719.04651,1629928726.04912,1629928726.05094,1629928726.98381,1629928726.9828,1629929103.68995,0
56,4,2,4,12,8,1,c1_WhyFace,2,self-doubt?,31,F_774.jpg,1629928496.45541,1629928496.45775,208.810323467255,8.91056966781616,217.730317106247,219.831101169586,0.3,228.084178676605,1.03371810913086,229.119133939743,3,right,1.02237701416016,229.117896785736,604.474542369843,607.234542369843,1629928708.02573,1629928708.02726,1629928716.94572,1629928716.95171,1629928719.04651,1629928727.29958,1629928727.30082,1629928728.33454,1629928728.3333,1629929103.68995,0
56,4,2,4,13,1,2,c2_WhyHand,1,self-protection?,91,H_581.jpg,1629928496.45541,1629928496.45775,229.184588422775,6.06641960144043,235.270191898346,237.354302158356,2.08411026000977,237.504358043671,0.700260400772095,238.218914022446,1,left,0.680130004882812,238.204618444443,604.474542369843,607.234542369843,1629928728.39999,1629928728.40147,1629928734.4856,1629928734.48751,1629928736.56971,1629928736.71976,1629928736.73459,1629928737.43432,1629928737.42002,1629929103.68995,1
56,4,2,4,13,2,2,c2_WhyHand,1,self-protection?,89,H_443.jpg,1629928496.45541,1629928496.45775,229.184588422775,6.06641960144043,235.270191898346,237.354302158356,0.3,238.521403541565,1.26714038848877,239.789580097198,3,right,1.2468159198761,239.788543930054,604.474542369843,607.234542369843,1629928728.39999,1629928728.40147,1629928734.4856,1629928734.48751,1629928736.56971,1629928737.73681,1629928737.73844,1629928739.00499,1629928739.00395,1629929103.68995,0
56,4,2,4,13,3,2,c2_WhyHand,2,self-protection?,95,H_332.jpg,1629928496.45541,1629928496.45775,229.184588422775,6.06641960144043,235.270191898346,237.354302158356,0.3,240.105327596664,0.933681964874268,241.051888933182,3,right,0.926022052764893,241.039009561539,604.474542369843,607.234542369843,1629928728.39999,1629928728.40147,1629928734.4856,1629928734.48751,1629928736.56971,1629928739.32073,1629928739.32266,1629928740.26729,1629928740.25442,1629929103.68995,0
56,4,2,4,13,4,2,c2_WhyHand,1,self-protection?,96,H_027.jpg,1629928496.45541,1629928496.45775,229.184588422775,6.06641960144043,235.270191898346,237.354302158356,0.3,241.355793943405,0.983700275421143,242.34086607933,1,left,0.962646007537842,242.339494218826,604.474542369843,607.234542369843,1629928728.39999,1629928728.40147,1629928734.4856,1629928734.48751,1629928736.56971,1629928740.5712,1629928740.57279,1629928741.55627,1629928741.5549,1629929103.68995,1
56,4,2,4,13,5,2,c2_WhyHand,2,self-protection?,92,H_532.jpg,1629928496.45541,1629928496.45775,229.184588422775,6.06641960144043,235.270191898346,237.354302158356,0.3,242.65627907753,0.800298452377319,243.468750944138,3,right,0.791484117507935,243.456577529907,604.474542369843,607.234542369843,1629928728.39999,1629928728.40147,1629928734.4856,1629928734.48751,1629928736.56971,1629928741.87169,1629928741.87309,1629928742.68416,1629928742.67198,1629929103.68995,0
56,4,2,4,13,6,2,c2_WhyHand,1,self-protection?,94,H_189.jpg,1629928496.45541,1629928496.45775,229.184588422775,6.06641960144043,235.270191898346,237.354302158356,0.3,243.773362150192,1.20044851303101,244.975212087631,1,left,1.18592095375061,244.973810663223,604.474542369843,607.234542369843,1629928728.39999,1629928728.40147,1629928734.4856,1629928734.48751,1629928736.56971,1629928742.98877,1629928742.99075,1629928744.19062,1629928744.18922,1629929103.68995,1
56,4,2,4,13,7,2,c2_WhyHand,2,self-protection?,90,H_006.jpg,1629928496.45541,1629928496.45775,229.184588422775,6.06641960144043,235.270191898346,237.354302158356,0.3,245.290595283508,1.03371858596802,246.325716962814,3,right,1.01916289329529,246.324313869476,604.474542369843,607.234542369843,1629928728.39999,1629928728.40147,1629928734.4856,1629928734.48751,1629928736.56971,1629928744.506,1629928744.50767,1629928745.54112,1629928745.53972,1629929103.68995,0
56,4,2,4,13,8,2,c2_WhyHand,1,self-protection?,93,H_038.jpg,1629928496.45541,1629928496.45775,229.184588422775,6.06641960144043,235.270191898346,237.354302158356,0.3,246.641099205017,1.18377351760864,247.825967063904,1,left,1.16094493865967,247.824872722626,604.474542369843,607.234542369843,1629928728.39999,1629928728.40147,1629928734.4856,1629928734.48751,1629928736.56971,1629928745.85651,1629928745.85818,1629928747.04137,1629928747.04028,1629929103.68995,1
56,4,2,4,14,1,4,c4_HowHand,1,lifting?,50,H_443.jpg,1629928496.45541,1629928496.45775,247.891564359665,5.23452663421631,253.143524160385,255.244306316376,2.1007821559906,255.394362440109,0.833643436431885,256.235705127716,1,left,0.820047855377197,256.228005876541,604.474542369843,607.234542369843,1629928747.10697,1629928747.10869,1629928752.35893,1629928752.36087,1629928754.45971,1629928754.60977,1629928754.61161,1629928755.45111,1629928755.44341,1629929103.68995,1
56,4,2,4,14,2,4,c4_HowHand,2,lifting?,51,H_038.jpg,1629928496.45541,1629928496.45775,247.891564359665,5.23452663421631,253.143524160385,255.244306316376,0.3,256.544790735245,1.11708426475525,257.668493022919,1,left,1.09918999671936,257.661875,604.474542369843,607.234542369843,1629928747.10697,1629928747.10869,1629928752.35893,1629928752.36087,1629928754.45971,1629928755.7602,1629928755.76226,1629928756.8839,1629928756.87728,1629929103.68995,0
56,4,2,4,14,3,4,c4_HowHand,1,lifting?,56,H_136.jpg,1629928496.45541,1629928496.45775,247.891564359665,5.23452663421631,253.143524160385,255.244306316376,0.3,257.978659381866,0.750280141830444,258.735121955872,1,left,0.739459991455078,258.728939523697,604.474542369843,607.234542369843,1629928747.10697,1629928747.10869,1629928752.35893,1629928752.36087,1629928754.45971,1629928757.19407,1629928757.19561,1629928757.95053,1629928757.94435,1629929103.68995,1
56,4,2,4,14,4,4,c4_HowHand,2,lifting?,55,H_012.jpg,1629928496.45541,1629928496.45775,247.891564359665,5.23452663421631,253.143524160385,255.244306316376,0.3,259.045724382401,0.766953468322754,259.818819036484,3,right,0.752727031707764,259.812677850723,604.474542369843,607.234542369843,1629928747.10697,1629928747.10869,1629928752.35893,1629928752.36087,1629928754.45971,1629928758.26113,1629928758.2629,1629928759.03422,1629928759.02808,1629929103.68995,0
56,4,2,4,14,5,4,c4_HowHand,1,lifting?,49,H_362.jpg,1629928496.45541,1629928496.45775,247.891564359665,5.23452663421631,253.143524160385,255.244306316376,0.3,260.129461755753,0.766953229904175,260.901839962006,1,left,0.756065845489502,260.896414985657,604.474542369843,607.234542369843,1629928747.10697,1629928747.10869,1629928752.35893,1629928752.36087,1629928754.45971,1629928759.34487,1629928759.34663,1629928760.11725,1629928760.11182,1629929103.68995,1
56,4,2,4,14,6,4,c4_HowHand,1,lifting?,52,H_189.jpg,1629928496.45541,1629928496.45775,247.891564359665,5.23452663421631,253.143524160385,255.244306316376,0.3,261.213199367523,0.733606576919556,261.95240901947,1,left,0.725474119186401,261.946805944443,604.474542369843,607.234542369843,1629928747.10697,1629928747.10869,1629928752.35893,1629928752.36087,1629928754.45971,1629928760.42861,1629928760.4302,1629928761.16781,1629928761.16221,1629929103.68995,1
56,4,2,4,14,7,4,c4_HowHand,1,lifting?,54,H_170.jpg,1629928496.45541,1629928496.45775,247.891564359665,5.23452663421631,253.143524160385,255.244306316376,0.3,262.263591995239,1.11708283424377,263.385125150681,3,right,1.10556197166443,263.380674829483,604.474542369843,607.234542369843,1629928747.10697,1629928747.10869,1629928752.35893,1629928752.36087,1629928754.45971,1629928761.479,1629928761.48064,1629928762.60053,1629928762.59608,1629929103.68995,0
56,4,2,4,14,8,4,c4_HowHand,2,lifting?,53,H_077.jpg,1629928496.45541,1629928496.45775,247.891564359665,5.23452663421631,253.143524160385,255.244306316376,0.3,263.697458734512,1.18377494812012,264.8851420784,3,right,1.16461896896362,264.881233682632,604.474542369843,607.234542369843,1629928747.10697,1629928747.10869,1629928752.35893,1629928752.36087,1629928754.45971,1629928762.91286,1629928762.91458,1629928764.10055,1629928764.09664,1629929103.68995,0
56,4,2,4,15,1,3,c3_HowFace,1,looking to side?,67,F_716.jpg,1629928496.45541,1629928496.45775,264.947924127579,6.05297899246216,271.016855707169,273.117638339996,2.10078263282776,273.267694940567,0.566876888275146,273.83565615654,1,left,0.548645973205566,273.834571828842,604.474542369843,607.234542369843,1629928764.16333,1629928764.16783,1629928770.23226,1629928770.23454,1629928772.33304,1629928772.4831,1629928772.48467,1629928773.05106,1629928773.04998,1629929103.68995,1
56,4,2,4,15,2,3,c3_HowFace,2,looking to side?,65,F_798.jpg,1629928496.45541,1629928496.45775,264.947924127579,6.05297899246216,271.016855707169,273.117638339996,0.3,274.151358118057,0.967026710510254,275.120095005035,3,right,0.946020126342773,275.118384828568,604.474542369843,607.234542369843,1629928764.16333,1629928764.16783,1629928770.23226,1629928770.23454,1629928772.33304,1629928773.36676,1629928773.36849,1629928774.3355,1629928774.33379,1629929103.68995,0
56,4,2,4,15,3,3,c3_HowFace,1,looking to side?,68,F_760.jpg,1629928496.45541,1629928496.45775,264.947924127579,6.05297899246216,271.016855707169,273.117638339996,0.3,275.43516992569,0.733606576919556,276.169790973663,1,left,0.711879968643188,276.168776502609,604.474542369843,607.234542369843,1629928764.16333,1629928764.16783,1629928770.23226,1629928770.23454,1629928772.33304,1629928774.65058,1629928774.65212,1629928775.3852,1629928775.38418,1629929103.68995,1
56,4,2,4,15,4,3,c3_HowFace,1,looking to side?,69,F_110.jpg,1629928496.45541,1629928496.45775,264.947924127579,6.05297899246216,271.016855707169,273.117638339996,0.3,276.485561361313,0.90033483505249,277.38702796936,1,left,0.889888048171997,277.385896196365,604.474542369843,607.234542369843,1629928764.16333,1629928764.16783,1629928770.23226,1629928770.23454,1629928772.33304,1629928775.70097,1629928775.70252,1629928776.60243,1629928776.6013,1629929103.68995,1
56,4,2,4,15,5,3,c3_HowFace,2,looking to side?,70,F_779.jpg,1629928496.45541,1629928496.45775,264.947924127579,6.05297899246216,271.016855707169,273.117638339996,0.3,277.702681531906,0.516860008239746,278.220689048767,1,left,0.503005981445312,278.219541540146,604.474542369843,607.234542369843,1629928764.16333,1629928764.16783,1629928770.23226,1629928770.23454,1629928772.33304,1629928776.91809,1629928776.91955,1629928777.43609,1629928777.43495,1629929103.68995,0
56,4,2,4,15,6,3,c3_HowFace,1,looking to side?,72,F_590.jpg,1629928496.45541,1629928496.45775,264.947924127579,6.05297899246216,271.016855707169,273.117638339996,0.3,278.536325922012,1.01704668998718,279.554809083939,1,left,0.992624998092651,279.553372612,604.474542369843,607.234542369843,1629928764.16333,1629928764.16783,1629928770.23226,1629928770.23454,1629928772.33304,1629928777.75173,1629928777.75349,1629928778.77022,1629928778.76878,1629929103.68995,1
56,4,2,4,15,7,3,c3_HowFace,2,looking to side?,66,F_111.jpg,1629928496.45541,1629928496.45775,264.947924127579,6.05297899246216,271.016855707169,273.117638339996,0.3,279.87015627861,0.766953229904175,280.651781072617,3,right,0.758064985275269,280.637109508514,604.474542369843,607.234542369843,1629928764.16333,1629928764.16783,1629928770.23226,1629928770.23454,1629928772.33304,1629928779.08556,1629928779.08735,1629928779.86719,1629928779.85252,1629929103.68995,0
56,4,2,4,15,8,3,c3_HowFace,1,looking to side?,71,F_433.jpg,1629928496.45541,1629928496.45775,264.947924127579,6.05297899246216,271.016855707169,273.117638339996,0.3,280.953894844055,0.600224018096924,281.555382003784,1,left,0.579966068267822,281.554118862152,604.474542369843,607.234542369843,1629928764.16333,1629928764.16783,1629928770.23226,1629928770.23454,1629928772.33304,1629928780.1693,1629928780.17096,1629928780.77079,1629928780.76952,1629929103.68995,1
56,4,2,4,16,1,1,c1_WhyFace,1,proud?,101,F_083.jpg,1629928496.45541,1629928496.45775,281.637483110428,6.89345788955688,288.540056695938,290.640840759277,2.10078406333923,290.790895929337,0.733606576919556,291.526327123642,1,left,0.713759899139404,291.524502506256,604.474542369843,607.234542369843,1629928780.85289,1629928780.8545,1629928787.75546,1629928787.76786,1629928789.85625,1629928790.0063,1629928790.00825,1629928790.74173,1629928790.73991,1629929103.68995,1
56,4,2,4,16,2,1,c1_WhyFace,1,proud?,97,F_582.jpg,1629928496.45541,1629928496.45775,281.637483110428,6.89345788955688,288.540056695938,290.640840759277,0.3,291.841287603378,0.650243282318115,292.493008127213,1,left,0.631630897521973,292.491530885696,604.474542369843,607.234542369843,1629928780.85289,1629928780.8545,1629928787.75546,1629928787.76786,1629928789.85625,1629928791.05669,1629928791.0585,1629928791.70841,1629928791.70694,1629929103.68995,1
56,4,2,4,16,3,1,c1_WhyFace,1,proud?,103,F_618.jpg,1629928496.45541,1629928496.45775,281.637483110428,6.89345788955688,288.540056695938,290.640840759277,0.3,292.8083157444,0.683587789535522,293.502392997742,1,left,0.675604820251465,293.491903533936,604.474542369843,607.234542369843,1629928780.85289,1629928780.8545,1629928787.75546,1629928787.76786,1629928789.85625,1629928792.02372,1629928792.0261,1629928792.7178,1629928792.70731,1629929103.68995,1
56,4,2,4,16,4,1,c1_WhyFace,2,proud?,100,F_776.jpg,1629928496.45541,1629928496.45775,281.637483110428,6.89345788955688,288.540056695938,290.640840759277,0.3,293.808688869476,0.967026710510254,294.785360088348,3,right,0.959501981735229,294.775715579987,604.474542369843,607.234542369843,1629928780.85289,1629928780.8545,1629928787.75546,1629928787.76786,1629928789.85625,1629928793.02409,1629928793.02562,1629928794.00077,1629928793.99112,1629929103.68995,0
56,4,2,4,16,5,1,c1_WhyFace,1,proud?,104,F_598.jpg,1629928496.45541,1629928496.45775,281.637483110428,6.89345788955688,288.540056695938,290.640840759277,0.3,295.09250043869,1.13375639915466,296.235972156525,1,left,1.1239869594574,296.226256837845,604.474542369843,607.234542369843,1629928780.85289,1629928780.8545,1629928787.75546,1629928787.76786,1629928789.85625,1629928794.30791,1629928794.30967,1629928795.45138,1629928795.44166,1629929103.68995,1
56,4,2,4,16,6,1,c1_WhyFace,2,proud?,102,F_760.jpg,1629928496.45541,1629928496.45775,281.637483110428,6.89345788955688,288.540056695938,290.640840759277,0.3,296.543040742874,0.733606576919556,297.285464992523,3,right,0.72302508354187,297.276647319794,604.474542369843,607.234542369843,1629928780.85289,1629928780.8545,1629928787.75546,1629928787.76786,1629928789.85625,1629928795.75845,1629928795.76003,1629928796.50087,1629928796.49205,1629929103.68995,0
56,4,2,4,16,7,1,c1_WhyFace,2,proud?,98,F_412.jpg,1629928496.45541,1629928496.45775,281.637483110428,6.89345788955688,288.540056695938,290.640840759277,0.3,297.593432655334,0.683588981628418,298.278452148438,3,right,0.663714170455933,298.277021636963,604.474542369843,607.234542369843,1629928780.85289,1629928780.8545,1629928787.75546,1629928787.76786,1629928789.85625,1629928796.80884,1629928796.81086,1629928797.49386,1629928797.49243,1629929103.68995,0
56,4,2,4,16,8,1,c1_WhyFace,1,proud?,99,F_695.jpg,1629928496.45541,1629928496.45775,281.637483110428,6.89345788955688,288.540056695938,290.640840759277,0.3,298.593805303574,1.01704788208008,299.618668069839,1,left,1.00178694725037,299.610853185654,604.474542369843,607.234542369843,1629928780.85289,1629928780.8545,1629928787.75546,1629928787.76786,1629928789.85625,1629928797.80921,1629928797.81113,1629928798.83407,1629928798.82626,1629929103.68995,1
56,4,2,4,17,1,3,c3_HowFace,1,smiling?,115,F_695.jpg,1629928496.45541,1629928496.45775,299.694216718674,6.62669444084167,306.330022087097,308.430807580948,2.10078549385071,308.580863227844,0.666916847229004,309.249163141251,1,left,0.64220404624939,309.247780075073,604.474542369843,607.234542369843,1629928798.90962,1629928798.91152,1629928805.54543,1629928805.55086,1629928807.64621,1629928807.79627,1629928807.80099,1629928808.46457,1629928808.46319,1629929103.68995,1
56,4,2,4,17,2,3,c3_HowFace,2,smiling?,114,F_412.jpg,1629928496.45541,1629928496.45775,299.694216718674,6.62669444084167,306.330022087097,308.430807580948,0.3,309.564563503265,0.633570432662964,310.202481021881,3,right,0.620408773422241,310.198133935928,604.474542369843,607.234542369843,1629928798.90962,1629928798.91152,1629928805.54543,1629928805.55086,1629928807.64621,1629928808.77997,1629928808.78459,1629928809.41789,1629928809.41354,1629929103.68995,0
56,4,2,4,17,3,3,c3_HowFace,1,smiling?,117,F_593.jpg,1629928496.45541,1629928496.45775,299.694216718674,6.62669444084167,306.330022087097,308.430807580948,0.3,310.514919033051,0.550204753875732,311.069173088074,1,left,0.529989004135132,311.065123786926,604.474542369843,607.234542369843,1629928798.90962,1629928798.91152,1629928805.54543,1629928805.55086,1629928807.64621,1629928809.73032,1629928809.73433,1629928810.28458,1629928810.28053,1629929103.68995,1
56,4,2,4,17,4,3,c3_HowFace,1,smiling?,119,F_139.jpg,1629928496.45541,1629928496.45775,299.694216718674,6.62669444084167,306.330022087097,308.430807580948,0.3,311.38190864563,0.800297975540161,312.185456027985,1,left,0.77822208404541,312.18220662117,604.474542369843,607.234542369843,1629928798.90962,1629928798.91152,1629928805.54543,1629928805.55086,1629928807.64621,1629928810.59731,1629928810.60175,1629928811.40086,1629928811.39761,1629929103.68995,1
56,4,2,4,17,5,3,c3_HowFace,2,smiling?,113,F_712.jpg,1629928496.45541,1629928496.45775,299.694216718674,6.62669444084167,306.330022087097,308.430807580948,0.3,312.498991956711,0.666914701461792,313.168471088409,3,right,0.654726982116699,313.165906658173,604.474542369843,607.234542369843,1629928798.90962,1629928798.91152,1629928805.54543,1629928805.55086,1629928807.64621,1629928811.7144,1629928811.71794,1629928812.38388,1629928812.38131,1629929103.68995,0
56,4,2,4,17,6,3,c3_HowFace,1,smiling?,118,F_759.jpg,1629928496.45541,1629928496.45775,299.694216718674,6.62669444084167,306.330022087097,308.430807580948,0.3,313.482692232132,0.566877365112305,314.051721086502,1,left,0.555555820465088,314.049569597244,604.474542369843,607.234542369843,1629928798.90962,1629928798.91152,1629928805.54543,1629928805.55086,1629928807.64621,1629928812.6981,1629928812.70098,1629928813.26713,1629928813.26498,1629929103.68995,1
56,4,2,4,17,7,3,c3_HowFace,2,smiling?,120,F_758.jpg,1629928496.45541,1629928496.45775,299.694216718674,6.62669444084167,306.330022087097,308.430807580948,0.3,314.366353979111,0.833644866943359,315.202541103363,3,right,0.823065042495728,315.199998846054,604.474542369843,607.234542369843,1629928798.90962,1629928798.91152,1629928805.54543,1629928805.55086,1629928807.64621,1629928813.58176,1629928813.58451,1629928814.41795,1629928814.4154,1629929103.68995,0
56,4,2,4,17,8,3,c3_HowFace,1,smiling?,116,F_083.jpg,1629928496.45541,1629928496.45775,299.694216718674,6.62669444084167,306.330022087097,308.430807580948,0.3,315.516783943176,0.600224018096924,316.11904715538,1,left,0.585224151611328,316.117007961273,604.474542369843,607.234542369843,1629928798.90962,1629928798.91152,1629928805.54543,1629928805.55086,1629928807.64621,1629928814.73219,1629928814.73469,1629928815.33445,1629928815.33241,1629929103.68995,1
56,4,2,4,18,1,1,c1_WhyFace,1,admiring?,4,F_779.jpg,1629928496.45541,1629928496.45775,316.183698406219,9.19127869606018,325.387131443024,327.487914791107,2.1007833480835,327.637970914841,0.700260639190674,328.351827135086,1,left,0.692144870758057,328.338231554031,604.474542369843,607.234542369843,1629928815.3991,1629928815.40043,1629928824.60254,1629928824.60413,1629928826.70332,1629928826.85338,1629928826.85518,1629928827.56723,1629928827.55364,1629929103.68995,1
56,4,2,4,18,2,1,c1_WhyFace,2,admiring?,3,F_110.jpg,1629928496.45541,1629928496.45775,316.183698406219,9.19127869606018,325.387131443024,327.487914791107,0.3,328.655016651154,0.53353214263916,329.190274944305,3,right,0.509680986404419,329.188548793793,604.474542369843,607.234542369843,1629928815.3991,1629928815.40043,1629928824.60254,1629928824.60413,1629928826.70332,1629928827.87042,1629928827.872,1629928828.40568,1629928828.40395,1629929103.68995,0
56,4,2,4,18,3,1,c1_WhyFace,1,admiring?,8,F_590.jpg,1629928496.45541,1629928496.45775,316.183698406219,9.19127869606018,325.387131443024,327.487914791107,0.3,329.505333414078,0.900336742401123,330.41906498909,1,left,0.88994288444519,330.405670156479,604.474542369843,607.234542369843,1629928815.3991,1629928815.40043,1629928824.60254,1629928824.60413,1629928826.70332,1629928828.72074,1629928828.72268,1629928829.63447,1629928829.62108,1629929103.68995,1
56,4,2,4,18,4,1,c1_WhyFace,1,admiring?,7,F_648.jpg,1629928496.45541,1629928496.45775,316.183698406219,9.19127869606018,325.387131443024,327.487914791107,0.3,330.722454776764,0.700260162353516,331.435116043091,1,left,0.690019130706787,331.422714939117,604.474542369843,607.234542369843,1629928815.3991,1629928815.40043,1629928824.60254,1629928824.60413,1629928826.70332,1629928829.93786,1629928829.93975,1629928830.65052,1629928830.63812,1629929103.68995,1
56,4,2,4,18,5,1,c1_WhyFace,1,admiring?,5,F_759.jpg,1629928496.45541,1629928496.45775,316.183698406219,9.19127869606018,325.387131443024,327.487914791107,0.3,331.739499320984,0.583550930023193,332.324660053253,1,left,0.565968990325928,332.323050251007,604.474542369843,607.234542369843,1629928815.3991,1629928815.40043,1629928824.60254,1629928824.60413,1629928826.70332,1629928830.95491,1629928830.95634,1629928831.54007,1629928831.53846,1629929103.68995,1
56,4,2,4,18,6,1,c1_WhyFace,2,admiring?,2,F_129.jpg,1629928496.45541,1629928496.45775,316.183698406219,9.19127869606018,325.387131443024,327.487914791107,0.3,332.639835586548,0.550204992294312,333.191209068298,1,left,0.535423040390015,333.190040578842,604.474542369843,607.234542369843,1629928815.3991,1629928815.40043,1629928824.60254,1629928824.60413,1629928826.70332,1629928831.85524,1629928831.85683,1629928832.40662,1629928832.40545,1629929103.68995,0
56,4,2,4,18,7,1,c1_WhyFace,1,admiring?,1,F_593.jpg,1629928496.45541,1629928496.45775,316.183698406219,9.19127869606018,325.387131443024,327.487914791107,0.3,333.506826868057,0.550203800201416,334.069174995422,1,left,0.542671918869019,334.057030668259,604.474542369843,607.234542369843,1629928815.3991,1629928815.40043,1629928824.60254,1629928824.60413,1629928826.70332,1629928832.72223,1629928832.72403,1629928833.28458,1629928833.27244,1629929103.68995,1
56,4,2,4,18,8,1,c1_WhyFace,2,admiring?,6,F_692.jpg,1629928496.45541,1629928496.45775,316.183698406219,9.19127869606018,325.387131443024,327.487914791107,0.3,334.373818864822,0.583548307418823,334.96877907753,1,left,0.575762987136841,334.957367172241,604.474542369843,607.234542369843,1629928815.3991,1629928815.40043,1629928824.60254,1629928824.60413,1629928826.70332,1629928833.58922,1629928833.59109,1629928834.18419,1629928834.17277,1629929103.68995,0
56,4,2,4,19,1,2,c2_WhyHand,1,healthy?,23,H_364.jpg,1629928496.45541,1629928496.45775,335.04073094368,8.40422916412354,343.460538139343,345.561321964264,2.10078382492065,345.711378087997,0.700260162353516,346.418537130356,1,left,0.688632965087891,346.411638250351,604.474542369843,607.234542369843,1629928834.25614,1629928834.25712,1629928842.67594,1629928842.67747,1629928844.77673,1629928844.92678,1629928844.92865,1629928845.63394,1629928845.62704,1629929103.68995,1
56,4,2,4,19,2,2,c2_WhyHand,2,healthy?,20,H_007.jpg,1629928496.45541,1629928496.45775,335.04073094368,8.40422916412354,343.460538139343,345.561321964264,0.3,346.728422393799,0.833645820617676,347.568832149506,3,right,0.822468042373657,347.562068214417,604.474542369843,607.234542369843,1629928834.25614,1629928834.25712,1629928842.67594,1629928842.67747,1629928844.77673,1629928845.94383,1629928845.94558,1629928846.78424,1629928846.77747,1629929103.68995,0
56,4,2,4,19,3,2,c2_WhyHand,1,healthy?,19,H_167.jpg,1629928496.45541,1629928496.45775,335.04073094368,8.40422916412354,343.460538139343,345.561321964264,0.3,347.878851642609,0.58355188369751,348.468812932968,1,left,0.575713157653809,348.462403526306,604.474542369843,607.234542369843,1629928834.25614,1629928834.25712,1629928842.67594,1629928842.67747,1629928844.77673,1629928847.09426,1629928847.09582,1629928847.68422,1629928847.67781,1629929103.68995,1
56,4,2,4,19,4,2,c2_WhyHand,2,healthy?,22,H_130.jpg,1629928496.45541,1629928496.45775,335.04073094368,8.40422916412354,343.460538139343,345.561321964264,0.3,348.779187908173,0.917008876800537,349.701874961853,1,left,0.904783964157104,349.696196784973,604.474542369843,607.234542369843,1629928834.25614,1629928834.25712,1629928842.67594,1629928842.67747,1629928844.77673,1629928847.99459,1629928847.99603,1629928848.91728,1629928848.9116,1629929103.68995,0
56,4,2,4,19,5,2,c2_WhyHand,1,healthy?,18,H_438.jpg,1629928496.45541,1629928496.45775,335.04073094368,8.40422916412354,343.460538139343,345.561321964264,0.3,350.012981882095,0.983700275421143,350.998224964142,1,left,0.963982105255127,350.996682157516,604.474542369843,607.234542369843,1629928834.25614,1629928834.25712,1629928842.67594,1629928842.67747,1629928844.77673,1629928849.22839,1629928849.23011,1629928850.21363,1629928850.21209,1629929103.68995,1
56,4,2,4,19,6,2,c2_WhyHand,2,healthy?,24,H_019.jpg,1629928496.45541,1629928496.45775,335.04073094368,8.40422916412354,343.460538139343,345.561321964264,0.3,351.313466777802,0.816970825195312,352.135123958588,3,right,0.805041074752808,352.130437602997,604.474542369843,607.234542369843,1629928834.25614,1629928834.25712,1629928842.67594,1629928842.67747,1629928844.77673,1629928850.52887,1629928850.53063,1629928851.35053,1629928851.34584,1629929103.68995,0
56,4,2,4,19,7,2,c2_WhyHand,1,healthy?,17,H_362.jpg,1629928496.45541,1629928496.45775,335.04073094368,8.40422916412354,343.460538139343,345.561321964264,0.3,352.447222700119,0.666915416717529,353.118849983215,1,left,0.658316135406494,353.114138116837,604.474542369843,607.234542369843,1629928834.25614,1629928834.25712,1629928842.67594,1629928842.67747,1629928844.77673,1629928851.66263,1629928851.66422,1629928852.33426,1629928852.32954,1629929103.68995,1
56,4,2,4,19,8,2,c2_WhyHand,1,healthy?,21,H_627.jpg,1629928496.45541,1629928496.45775,335.04073094368,8.40422916412354,343.460538139343,345.561321964264,0.3,353.430922737122,0.750279188156128,354.185268154144,1,left,0.735400915145874,354.181201925278,604.474542369843,607.234542369843,1629928834.25614,1629928834.25712,1629928842.67594,1629928842.67747,1629928844.77673,1629928852.64633,1629928852.6477,1629928853.40067,1629928853.39661,1629929103.68995,1
56,4,2,4,20,1,4,c4_HowHand,1,pressing button?,82,H_126.jpg,1629928496.45541,1629928496.45775,354.264566650391,6.69739031791687,360.967066993713,363.067850103378,2.10078310966492,363.217905511856,0.583550930023193,363.80286907196,1,left,0.570885896682739,363.801456441879,604.474542369843,607.234542369843,1629928853.47997,1629928853.48438,1629928860.18247,1629928860.18451,1629928862.28326,1629928862.43331,1629928862.43502,1629928863.01828,1629928863.01686,1629929103.68995,1
56,4,2,4,20,2,4,c4_HowHand,1,pressing button?,86,H_332.jpg,1629928496.45541,1629928496.45775,354.264566650391,6.69739031791687,360.967066993713,363.067850103378,0.3,364.118242015839,0.550204992294312,364.669877996445,1,left,0.539800882339478,364.668447008133,604.474542369843,607.234542369843,1629928853.47997,1629928853.48438,1629928860.18247,1629928860.18451,1629928862.28326,1629928863.33365,1629928863.33552,1629928863.88528,1629928863.88385,1629929103.68995,1
56,4,2,4,20,3,4,c4_HowHand,2,pressing button?,81,H_261.jpg,1629928496.45541,1629928496.45775,354.264566650391,6.69739031791687,360.967066993713,363.067850103378,0.3,364.985231866837,0.800297737121582,365.78657793045,3,right,0.787839889526367,365.785529603958,604.474542369843,607.234542369843,1629928853.47997,1629928853.48438,1629928860.18247,1629928860.18451,1629928862.28326,1629928864.20064,1629928864.20256,1629928865.00198,1629928865.00094,1629929103.68995,0
56,4,2,4,20,4,4,c4_HowHand,2,pressing button?,87,H_024.jpg,1629928496.45541,1629928496.45775,354.264566650391,6.69739031791687,360.967066993713,363.067850103378,0.3,366.102314939499,0.933681964874268,367.036957015991,3,right,0.924548864364624,367.035996904373,604.474542369843,607.234542369843,1629928853.47997,1629928853.48438,1629928860.18247,1629928860.18451,1629928862.28326,1629928865.31772,1629928865.31961,1629928866.25236,1629928866.2514,1629929103.68995,0
56,4,2,4,20,5,4,c4_HowHand,1,pressing button?,83,H_502.jpg,1629928496.45541,1629928496.45775,354.264566650391,6.69739031791687,360.967066993713,363.067850103378,0.3,367.352781524658,0.633569478988647,367.987425079346,1,left,0.623793840408325,367.986351003647,604.474542369843,607.234542369843,1629928853.47997,1629928853.48438,1629928860.18247,1629928860.18451,1629928862.28326,1629928866.56819,1629928866.56964,1629928867.20283,1629928867.20176,1629929103.68995,1
56,4,2,4,20,6,4,c4_HowHand,2,pressing button?,85,H_130.jpg,1629928496.45541,1629928496.45775,354.264566650391,6.69739031791687,360.967066993713,363.067850103378,0.3,368.303135623932,0.750280141830444,369.055065145493,3,right,0.729542970657349,369.053415765762,604.474542369843,607.234542369843,1629928853.47997,1629928853.48438,1629928860.18247,1629928860.18451,1629928862.28326,1629928867.51854,1629928867.51992,1629928868.27047,1629928868.26882,1629929103.68995,0
56,4,2,4,20,7,4,c4_HowHand,1,pressing button?,88,H_019.jpg,1629928496.45541,1629928496.45775,354.264566650391,6.69739031791687,360.967066993713,363.067850103378,0.3,369.370199670792,0.633569955825806,370.018552055359,1,left,0.625041007995605,370.003769626617,604.474542369843,607.234542369843,1629928853.47997,1629928853.48438,1629928860.18247,1629928860.18451,1629928862.28326,1629928868.58561,1629928868.58717,1629928869.23396,1629928869.21918,1629929103.68995,1
56,4,2,4,20,8,4,c4_HowHand,1,pressing button?,84,H_483.jpg,1629928496.45541,1629928496.45775,354.264566650391,6.69739031791687,360.967066993713,363.067850103378,0.3,370.320554962158,0.800297498703003,371.135277023315,1,left,0.790431022644043,371.120852460861,604.474542369843,607.234542369843,1629928853.47997,1629928853.48438,1629928860.18247,1629928860.18451,1629928862.28326,1629928869.53596,1629928869.53774,1629928870.35068,1629928870.33626,1629929103.68995,1
56,4,2,4,21,1,3,c3_HowFace,1,looking to side?,72,F_590.jpg,1629928496.45541,1629928496.45775,371.220890512466,7.63097453117371,378.857070674896,380.957854738235,2.10078406333923,381.107910861969,0.883662700653076,381.993210067749,1,left,0.852339029312134,381.991573562622,604.474542369843,607.234542369843,1629928870.4363,1629928870.43807,1629928878.07248,1629928878.08428,1629928880.17326,1629928880.32332,1629928880.3345,1629928881.20862,1629928881.20698,1629929103.68995,1
56,4,2,4,21,2,3,c3_HowFace,1,looking to side?,69,F_110.jpg,1629928496.45541,1629928496.45775,371.220890512466,7.63097453117371,378.857070674896,380.957854738235,0.3,382.308358659744,0.9170081615448,383.235183944702,1,left,0.902238130569458,383.225366821289,604.474542369843,607.234542369843,1629928870.4363,1629928870.43807,1629928878.07248,1629928878.08428,1629928880.17326,1629928881.52376,1629928881.52565,1629928882.45059,1629928882.44077,1629929103.68995,1
56,4,2,4,21,3,3,c3_HowFace,1,looking to side?,68,F_760.jpg,1629928496.45541,1629928496.45775,371.220890512466,7.63097453117371,378.857070674896,380.957854738235,0.3,383.542153110504,0.783624410629272,384.32704996109,1,left,0.766275882720947,384.325777521133,604.474542369843,607.234542369843,1629928870.4363,1629928870.43807,1629928878.07248,1629928878.08428,1629928880.17326,1629928882.75756,1629928882.75898,1629928883.54246,1629928883.54118,1629929103.68995,1
56,4,2,4,21,4,3,c3_HowFace,2,looking to side?,70,F_779.jpg,1629928496.45541,1629928496.45775,371.220890512466,7.63097453117371,378.857070674896,380.957854738235,0.3,384.642562618256,1.53390526771545,386.177504053116,3,right,1.51674890518188,386.176467885971,604.474542369843,607.234542369843,1629928870.4363,1629928870.43807,1629928878.07248,1629928878.08428,1629928880.17326,1629928883.85797,1629928883.85963,1629928885.39291,1629928885.39187,1629929103.68995,0
56,4,2,4,21,5,3,c3_HowFace,1,looking to side?,71,F_433.jpg,1629928496.45541,1629928496.45775,371.220890512466,7.63097453117371,378.857070674896,380.957854738235,0.3,386.493252983093,0.733606338500977,387.2357280159,1,left,0.726055860519409,387.226859321594,604.474542369843,607.234542369843,1629928870.4363,1629928870.43807,1629928878.07248,1629928878.08428,1629928880.17326,1629928885.70866,1629928885.71072,1629928886.45113,1629928886.44227,1629929103.68995,1
56,4,2,4,21,6,3,c3_HowFace,2,looking to side?,65,F_798.jpg,1629928496.45541,1629928496.45775,371.220890512466,7.63097453117371,378.857070674896,380.957854738235,0.3,387.543643941879,0.866990566253662,388.418550004959,3,right,0.856146097183228,388.410634508133,604.474542369843,607.234542369843,1629928870.4363,1629928870.43807,1629928878.07248,1629928878.08428,1629928880.17326,1629928886.75905,1629928886.76052,1629928887.63396,1629928887.62604,1629929103.68995,0
56,4,2,4,21,7,3,c3_HowFace,1,looking to side?,67,F_716.jpg,1629928496.45541,1629928496.45775,371.220890512466,7.63097453117371,378.857070674896,380.957854738235,0.3,388.727417697907,0.616897344589233,389.345323076248,1,left,0.594903945922852,389.344315042496,604.474542369843,607.234542369843,1629928870.4363,1629928870.43807,1629928878.07248,1629928878.08428,1629928880.17326,1629928887.94282,1629928887.94431,1629928888.56073,1629928888.55972,1629929103.68995,1
56,4,2,4,21,8,3,c3_HowFace,2,looking to side?,66,F_111.jpg,1629928496.45541,1629928496.45775,371.220890512466,7.63097453117371,378.857070674896,380.957854738235,0.3,389.661100616455,0.750280618667603,390.418636074066,3,right,0.741576910018921,390.411381235123,604.474542369843,607.234542369843,1629928870.4363,1629928870.43807,1629928878.07248,1629928878.08428,1629928880.17326,1629928888.87651,1629928888.87813,1629928889.63404,1629928889.62679,1629929103.68995,0
56,4,2,4,22,1,1,c1_WhyFace,1,argument?,42,F_403.jpg,1629928496.45541,1629928496.45775,390.494745006561,6.19717001914978,396.697056760788,398.797841539383,2.10078477859497,398.947896232605,0.666916847229004,399.619133939743,1,left,0.64505410194397,399.614813079834,604.474542369843,607.234542369843,1629928889.71015,1629928889.71784,1629928895.91246,1629928895.91833,1629928898.01325,1629928898.1633,1629928898.16815,1629928898.83454,1629928898.83022,1629929103.68995,1
56,4,2,4,22,2,1,c1_WhyFace,2,argument?,44,F_139.jpg,1629928496.45541,1629928496.45775,390.494745006561,6.19717001914978,396.697056760788,398.797841539383,0.3,399.931597700119,0.7669517993927,400.701850166321,3,right,0.745558023452759,400.698549499512,604.474542369843,607.234542369843,1629928889.71015,1629928889.71784,1629928895.91246,1629928895.91833,1629928898.01325,1629928899.147,1629928899.15101,1629928899.91726,1629928899.91396,1629929103.68995,0
56,4,2,4,22,3,1,c1_WhyFace,1,argument?,47,F_743.jpg,1629928496.45541,1629928496.45775,390.494745006561,6.19717001914978,396.697056760788,398.797841539383,0.3,401.015334596634,0.583551168441772,401.601858129501,1,left,0.562807083129883,401.598885765076,604.474542369843,607.234542369843,1629928889.71015,1629928889.71784,1629928895.91246,1629928895.91833,1629928898.01325,1629928900.23074,1629928900.23467,1629928900.81726,1629928900.81429,1629929103.68995,1
56,4,2,4,22,4,1,c1_WhyFace,2,argument?,45,F_433.jpg,1629928496.45541,1629928496.45775,390.494745006561,6.19717001914978,396.697056760788,398.797841539383,0.3,401.915670862198,0.700261116027832,402.618977060318,3,right,0.677093982696533,402.615931978226,604.474542369843,607.234542369843,1629928889.71015,1629928889.71784,1629928895.91246,1629928895.91833,1629928898.01325,1629928901.13108,1629928901.1342,1629928901.83438,1629928901.83134,1629929103.68995,0
56,4,2,4,22,5,1,c1_WhyFace,1,argument?,43,F_716.jpg,1629928496.45541,1629928496.45775,390.494745006561,6.19717001914978,396.697056760788,398.797841539383,0.3,402.932716598511,0.733607053756714,403.668810119629,1,left,0.715402126312256,403.666323652267,604.474542369843,607.234542369843,1629928889.71015,1629928889.71784,1629928895.91246,1629928895.91833,1629928898.01325,1629928902.14812,1629928902.15111,1629928902.88422,1629928902.88173,1629929103.68995,1
56,4,2,4,22,6,1,c1_WhyFace,1,argument?,48,F_758.jpg,1629928496.45541,1629928496.45775,390.494745006561,6.19717001914978,396.697056760788,398.797841539383,0.3,403.983108510971,0.850316286087036,404.834522953033,1,left,0.826485157012939,404.833424797058,604.474542369843,607.234542369843,1629928889.71015,1629928889.71784,1629928895.91246,1629928895.91833,1629928898.01325,1629928903.19851,1629928903.20091,1629928904.04993,1629928904.04883,1629929103.68995,1
56,4,2,4,22,7,1,c1_WhyFace,2,argument?,46,F_844.jpg,1629928496.45541,1629928496.45775,390.494745006561,6.19717001914978,396.697056760788,398.797841539383,0.3,405.150210371017,0.716933488845825,405.86847495079,3,right,0.705509901046753,405.867143859863,604.474542369843,607.234542369843,1629928889.71015,1629928889.71784,1629928895.91246,1629928895.91833,1629928898.01325,1629928904.36562,1629928904.36775,1629928905.08388,1629928905.08255,1629929103.68995,0
56,4,2,4,22,8,1,c1_WhyFace,1,argument?,41,F_712.jpg,1629928496.45541,1629928496.45775,390.494745006561,6.19717001914978,396.697056760788,398.797841539383,0.3,406.183928956985,0.833643913269043,407.018648138046,1,left,0.81134819984436,407.017572870255,604.474542369843,607.234542369843,1629928889.71015,1629928889.71784,1629928895.91246,1629928895.91833,1629928898.01325,1629928905.39933,1629928905.40085,1629928906.23405,1629928906.23298,1629929103.68995,1
56,4,2,4,23,1,2,c2_WhyHand,1,self-protection?,94,H_189.jpg,1629928496.45541,1629928496.45775,407.084264984131,7.44769716262817,414.537043561935,416.637828102112,2.10078454017639,416.787883033752,0.833645105361938,417.622668972015,1,left,0.799407005310059,417.621528139114,604.474542369843,607.234542369843,1629928906.29967,1629928906.30054,1629928913.75245,1629928913.7681,1629928915.85323,1629928916.00329,1629928916.01812,1629928916.83807,1629928916.83693,1629929103.68995,1
56,4,2,4,23,2,2,c2_WhyHand,1,self-protection?,93,H_038.jpg,1629928496.45541,1629928496.45775,407.084264984131,7.44769716262817,414.537043561935,416.637828102112,0.3,417.938312997818,0.63356876373291,418.573485126495,1,left,0.612895011901855,418.571881761551,604.474542369843,607.234542369843,1629928906.29967,1629928906.30054,1629928913.75245,1629928913.7681,1629928915.85323,1629928917.15372,1629928917.15527,1629928917.78889,1629928917.78729,1629929103.68995,1
56,4,2,4,23,3,2,c2_WhyHand,1,self-protection?,91,H_581.jpg,1629928496.45541,1629928496.45775,407.084264984131,7.44769716262817,414.537043561935,416.637828102112,0.3,418.888666620255,1.35050392150879,420.240771999359,3,right,1.32820701599121,420.239170541763,604.474542369843,607.234542369843,1629928906.29967,1629928906.30054,1629928913.75245,1629928913.7681,1629928915.85323,1629928918.10407,1629928918.10587,1629928919.45618,1629928919.45458,1629929103.68995,0
56,4,2,4,23,4,2,c2_WhyHand,2,self-protection?,90,H_006.jpg,1629928496.45541,1629928496.45775,407.084264984131,7.44769716262817,414.537043561935,416.637828102112,0.3,420.555956115723,0.917007446289062,421.474454154968,3,right,0.900456190109253,421.472963562012,604.474542369843,607.234542369843,1629928906.29967,1629928906.30054,1629928913.75245,1629928913.7681,1629928915.85323,1629928919.77136,1629928919.77296,1629928920.68986,1629928920.68837,1629929103.68995,0
56,4,2,4,23,5,2,c2_WhyHand,1,self-protection?,96,H_027.jpg,1629928496.45541,1629928496.45775,407.084264984131,7.44769716262817,414.537043561935,416.637828102112,0.3,421.789748420715,0.733607053756714,422.53564499855,1,left,0.725682020187378,422.523355474472,604.474542369843,607.234542369843,1629928906.29967,1629928906.30054,1629928913.75245,1629928913.7681,1629928915.85323,1629928921.00515,1629928921.00671,1629928921.75105,1629928921.73876,1629929103.68995,1
56,4,2,4,23,6,2,c2_WhyHand,2,self-protection?,95,H_332.jpg,1629928496.45541,1629928496.45775,407.084264984131,7.44769716262817,414.537043561935,416.637828102112,0.3,422.840140810013,1.15042805671692,424.002428998947,3,right,1.13753008842468,423.99056886673,604.474542369843,607.234542369843,1629928906.29967,1629928906.30054,1629928913.75245,1629928913.7681,1629928915.85323,1629928922.05555,1629928922.05754,1629928923.21783,1629928923.20597,1629929103.68995,0
56,4,2,4,23,7,2,c2_WhyHand,1,self-protection?,89,H_443.jpg,1629928496.45541,1629928496.45775,407.084264984131,7.44769716262817,414.537043561935,416.637828102112,0.3,424.30735253334,1.71730828285217,426.02631901741,3,right,1.69943189620972,426.024660816193,604.474542369843,607.234542369843,1629928906.29967,1629928906.30054,1629928913.75245,1629928913.7681,1629928915.85323,1629928923.52276,1629928923.52453,1629928925.24172,1629928925.24007,1629929103.68995,0
56,4,2,4,23,8,2,c2_WhyHand,2,self-protection?,92,H_532.jpg,1629928496.45541,1629928496.45775,407.084264984131,7.44769716262817,414.537043561935,416.637828102112,0.3,426.341446628571,0.733606338500977,427.076051940918,3,right,0.711347103118896,427.075052967072,604.474542369843,607.234542369843,1629928906.29967,1629928906.30054,1629928913.75245,1629928913.7681,1629928915.85323,1629928925.55685,1629928925.55872,1629928926.29146,1629928926.29046,1629929103.68995,0
56,4,2,4,24,1,4,c4_HowHand,1,both hands?,124,H_581.jpg,1629928496.45541,1629928496.45775,427.15841673851,4.89046025276184,432.060245742798,434.16103099823,2.10078525543213,434.311084976196,0.816970348358154,435.13538693428,1,left,0.801990032196045,435.128055324554,604.474542369843,607.234542369843,1629928926.37382,1629928926.37513,1629928931.27565,1629928931.28429,1629928933.37644,1629928933.52649,1629928933.53561,1629928934.35079,1629928934.34346,1629929103.68995,1
56,4,2,4,24,2,4,c4_HowHand,1,both hands?,127,H_349.jpg,1629928496.45541,1629928496.45775,427.15841673851,4.89046025276184,432.060245742798,434.16103099823,0.3,435.444840898514,0.566878080368042,436.019051065445,1,left,0.550620079040527,436.011718978882,604.474542369843,607.234542369843,1629928926.37382,1629928926.37513,1629928931.27565,1629928931.28429,1629928933.37644,1629928934.66025,1629928934.66204,1629928935.23446,1629928935.22712,1629929103.68995,1
56,4,2,4,24,3,4,c4_HowHand,2,both hands?,126,H_159.jpg,1629928496.45541,1629928496.45775,427.15841673851,4.89046025276184,432.060245742798,434.16103099823,0.3,436.328503360748,0.666916608810425,437.002522935867,3,right,0.65782904624939,436.995419969559,604.474542369843,607.234542369843,1629928926.37382,1629928926.37513,1629928931.27565,1629928931.28429,1629928933.37644,1629928935.54391,1629928935.5457,1629928936.21793,1629928936.21083,1629929103.68995,0
56,4,2,4,24,4,4,c4_HowHand,1,both hands?,122,H_111.jpg,1629928496.45541,1629928496.45775,427.15841673851,4.89046025276184,432.060245742798,434.16103099823,0.3,437.312203159332,0.683588981628418,438.002176036835,1,left,0.673848152160645,437.995792140961,604.474542369843,607.234542369843,1629928926.37382,1629928926.37513,1629928931.27565,1629928931.28429,1629928933.37644,1629928936.52761,1629928936.52926,1629928937.21758,1629928937.2112,1629929103.68995,1
56,4,2,4,24,5,4,c4_HowHand,2,both hands?,125,H_627.jpg,1629928496.45541,1629928496.45775,427.15841673851,4.89046025276184,432.060245742798,434.16103099823,0.3,438.312576761246,0.816971302032471,439.13515709877,3,right,0.806419849395752,439.129548063278,604.474542369843,607.234542369843,1629928926.37382,1629928926.37513,1629928931.27565,1629928931.28429,1629928933.37644,1629928937.52798,1629928937.52951,1629928938.35056,1629928938.34495,1629929103.68995,0
56,4,2,4,24,6,4,c4_HowHand,1,both hands?,123,H_167.jpg,1629928496.45541,1629928496.45775,427.15841673851,4.89046025276184,432.060245742798,434.16103099823,0.3,439.446333637238,0.983700037002563,440.435594072342,1,left,0.976289987564087,440.43003367424,604.474542369843,607.234542369843,1629928926.37382,1629928926.37513,1629928931.27565,1629928931.28429,1629928933.37644,1629928938.66174,1629928938.66339,1629928939.651,1629928939.64544,1629929103.68995,1
56,4,2,4,24,7,4,c4_HowHand,1,both hands?,128,H_027.jpg,1629928496.45541,1629928496.45775,427.15841673851,4.89046025276184,432.060245742798,434.16103099823,0.3,440.746819009781,0.866988897323608,441.618946065903,1,left,0.859819173812866,441.613807907105,604.474542369843,607.234542369843,1629928926.37382,1629928926.37513,1629928931.27565,1629928931.28429,1629928933.37644,1629928939.96222,1629928939.96397,1629928940.83435,1629928940.82921,1629929103.68995,1
56,4,2,4,24,8,4,c4_HowHand,2,both hands?,121,H_091.jpg,1629928496.45541,1629928496.45775,427.15841673851,4.89046025276184,432.060245742798,434.16103099823,0.3,441.930593004227,0.833643913269043,442.768501987457,3,right,0.815414905548096,442.764236917496,604.474542369843,607.234542369843,1629928926.37382,1629928926.37513,1629928931.27565,1629928931.28429,1629928933.37644,1629928941.146,1629928941.14769,1629928941.98391,1629928941.97964,1629929103.68995,0
56,4,2,4,25,1,2,c2_WhyHand,1,competing?,15,H_170.jpg,1629928496.45541,1629928496.45775,442.864274730682,6.97467637062073,449.850213756561,451.950996627808,2.10078287124634,452.101052751541,0.716934442520142,452.8189539814,1,left,0.708795785903931,452.817987194061,604.474542369843,607.234542369843,1629928942.07968,1629928942.08133,1629928949.06562,1629928949.06778,1629928951.1664,1629928951.31646,1629928951.31816,1629928952.03436,1629928952.03339,1629929103.68995,1
56,4,2,4,25,2,2,c2_WhyHand,1,competing?,14,H_132.jpg,1629928496.45541,1629928496.45775,442.864274730682,6.97467637062073,449.850213756561,451.950996627808,0.3,453.134771575928,0.78362512588501,453.919381132126,1,left,0.774320840835571,453.918396701813,604.474542369843,607.234542369843,1629928942.07968,1629928942.08133,1629928949.06562,1629928949.06778,1629928951.1664,1629928952.35018,1629928952.35181,1629928953.13479,1629928953.1338,1629929103.68995,1
56,4,2,4,25,3,2,c2_WhyHand,2,competing?,10,H_126.jpg,1629928496.45541,1629928496.45775,442.864274730682,6.97467637062073,449.850213756561,451.950996627808,0.3,454.235181322098,0.833644866943359,455.069903125763,3,right,0.816586971282959,455.068826189041,604.474542369843,607.234542369843,1629928942.07968,1629928942.08133,1629928949.06562,1629928949.06778,1629928951.1664,1629928953.45059,1629928953.45199,1629928954.28531,1629928954.28423,1629929103.68995,0
56,4,2,4,25,4,2,c2_WhyHand,1,competing?,13,H_003.jpg,1629928496.45541,1629928496.45775,442.864274730682,6.97467637062073,449.850213756561,451.950996627808,0.3,455.385610570908,0.750279188156128,456.136770954132,1,left,0.741079092025757,456.135889759064,604.474542369843,607.234542369843,1629928942.07968,1629928942.08133,1629928949.06562,1629928949.06778,1629928951.1664,1629928954.60102,1629928954.60243,1629928955.35218,1629928955.3513,1629929103.68995,1
56,4,2,4,25,5,2,c2_WhyHand,2,competing?,11,H_502.jpg,1629928496.45541,1629928496.45775,442.864274730682,6.97467637062073,449.850213756561,451.950996627808,0.3,456.452675094605,0.883662700653076,457.337365140915,3,right,0.868321895599365,457.336337795258,604.474542369843,607.234542369843,1629928942.07968,1629928942.08133,1629928949.06562,1629928949.06778,1629928951.1664,1629928955.66808,1629928955.66972,1629928956.55277,1629928956.55174,1629929103.68995,0
56,4,2,4,25,6,2,c2_WhyHand,1,competing?,16,H_136.jpg,1629928496.45541,1629928496.45775,442.864274730682,6.97467637062073,449.850213756561,451.950996627808,0.3,457.653122415543,0.750280141830444,458.404509057999,1,left,0.732448816299438,458.403402557373,604.474542369843,607.234542369843,1629928942.07968,1629928942.08133,1629928949.06562,1629928949.06778,1629928951.1664,1629928956.86853,1629928956.87021,1629928957.61992,1629928957.61881,1629929103.68995,1
56,4,2,4,25,7,2,c2_WhyHand,2,competing?,12,H_483.jpg,1629928496.45541,1629928496.45775,442.864274730682,6.97467637062073,449.850213756561,451.950996627808,0.3,458.720187654495,0.983700275421143,459.705291023254,3,right,0.966029167175293,459.703887929916,604.474542369843,607.234542369843,1629928942.07968,1629928942.08133,1629928949.06562,1629928949.06778,1629928951.1664,1629928957.93559,1629928957.93709,1629928958.9207,1629928958.91929,1629929103.68995,0
56,4,2,4,25,8,2,c2_WhyHand,1,competing?,9,H_261.jpg,1629928496.45541,1629928496.45775,442.864274730682,6.97467637062073,449.850213756561,451.950996627808,0.3,460.020673027039,0.616895437240601,460.652414073944,1,left,0.609259843826294,460.637568464279,604.474542369843,607.234542369843,1629928942.07968,1629928942.08133,1629928949.06562,1629928949.06778,1629928951.1664,1629928959.23608,1629928959.2378,1629928959.86782,1629928959.85297,1629929103.68995,1
56,4,2,4,26,1,4,c4_HowHand,1,lifting?,49,H_362.jpg,1629928496.45541,1629928496.45775,460.73760723114,6.99127888679504,467.740217676163,469.841001739502,2.10078406333923,469.991056909561,0.600223541259766,470.592439165115,1,left,0.585994005203247,470.591280450821,604.474542369843,607.234542369843,1629928959.95301,1629928959.95464,1629928966.95562,1629928966.95751,1629928969.05641,1629928969.20646,1629928969.2079,1629928969.80785,1629928969.80669,1629929103.68995,1
56,4,2,4,26,2,4,c4_HowHand,2,lifting?,55,H_012.jpg,1629928496.45541,1629928496.45775,460.73760723114,6.99127888679504,467.740217676163,469.841001739502,0.3,470.908065309525,0.716934204101562,471.626466026306,3,right,0.696717023849487,471.624999513626,604.474542369843,607.234542369843,1629928959.95301,1629928959.95464,1629928966.95562,1629928966.95751,1629928969.05641,1629928970.12347,1629928970.12479,1629928970.84187,1629928970.84041,1629929103.68995,0
56,4,2,4,26,3,4,c4_HowHand,1,lifting?,56,H_136.jpg,1629928496.45541,1629928496.45775,460.73760723114,6.99127888679504,467.740217676163,469.841001739502,0.3,471.94178437233,0.583551168441772,472.527167072296,1,left,0.564159870147705,472.525335540771,604.474542369843,607.234542369843,1629928959.95301,1629928959.95464,1629928966.95562,1629928966.95751,1629928969.05641,1629928971.15719,1629928971.15865,1629928971.74257,1629928971.74074,1629929103.68995,1
56,4,2,4,26,4,4,c4_HowHand,1,lifting?,52,H_189.jpg,1629928496.45541,1629928496.45775,460.73760723114,6.99127888679504,467.740217676163,469.841001739502,0.3,472.842120399475,0.866989850997925,473.718618144989,1,left,0.85509181022644,473.709110250473,604.474542369843,607.234542369843,1629928959.95301,1629928959.95464,1629928966.95562,1629928966.95751,1629928969.05641,1629928972.05753,1629928972.05898,1629928972.93402,1629928972.92452,1629929103.68995,1
56,4,2,4,26,5,4,c4_HowHand,1,lifting?,54,H_170.jpg,1629928496.45541,1629928496.45775,460.73760723114,6.99127888679504,467.740217676163,469.841001739502,0.3,474.025895586014,0.983700513839722,475.010895004272,3,right,0.964547872543335,475.009596099854,604.474542369843,607.234542369843,1629928959.95301,1629928959.95464,1629928966.95562,1629928966.95751,1629928969.05641,1629928973.2413,1629928973.24311,1629928974.2263,1629928974.225,1629929103.68995,0
56,4,2,4,26,6,4,c4_HowHand,2,lifting?,53,H_077.jpg,1629928496.45541,1629928496.45775,460.73760723114,6.99127888679504,467.740217676163,469.841001739502,0.3,475.326380958557,0.900334596633911,476.23514913559,3,right,0.889024972915649,476.226715555191,604.474542369843,607.234542369843,1629928959.95301,1629928959.95464,1629928966.95562,1629928966.95751,1629928969.05641,1629928974.54179,1629928974.54316,1629928975.45056,1629928975.44212,1629929103.68995,0
56,4,2,4,26,7,4,c4_HowHand,1,lifting?,50,H_443.jpg,1629928496.45541,1629928496.45775,460.73760723114,6.99127888679504,467.740217676163,469.841001739502,0.3,476.543500652313,0.883663177490234,477.435796012878,1,left,0.872311115264893,477.427163829803,604.474542369843,607.234542369843,1629928959.95301,1629928959.95464,1629928966.95562,1629928966.95751,1629928969.05641,1629928975.75891,1629928975.76061,1629928976.6512,1629928976.64257,1629929103.68995,1
56,4,2,4,26,8,4,c4_HowHand,2,lifting?,51,H_038.jpg,1629928496.45541,1629928496.45775,460.73760723114,6.99127888679504,467.740217676163,469.841001739502,0.3,477.743948688507,1.11708378791809,478.869145145416,1,left,1.09935617446899,478.861032476425,604.474542369843,607.234542369843,1629928959.95301,1629928959.95464,1629928966.95562,1629928966.95751,1629928969.05641,1629928976.95935,1629928976.96103,1629928978.08455,1629928978.07644,1629929103.68995,0
56,4,2,4,27,1,3,c3_HowFace,1,open mouth?,73,F_403.jpg,1629928496.45541,1629928496.45775,478.944396009445,6.85462713241577,485.813624610901,487.914408197403,2.10078358650208,488.064463844299,0.516859531402588,488.585468997955,1,left,0.499386787414551,488.581323375702,604.474542369843,607.234542369843,1629928978.1598,1629928978.16773,1629928985.02903,1629928985.03538,1629928987.12981,1629928987.27987,1629928987.28452,1629928987.80087,1629928987.79673,1629929103.68995,1
56,4,2,4,27,2,3,c3_HowFace,1,open mouth?,75,F_086.jpg,1629928496.45541,1629928496.45775,478.944396009445,6.85462713241577,485.813624610901,487.914408197403,0.3,488.898107995987,0.500186443328857,489.401867141724,1,left,0.479116201400757,489.398294439316,604.474542369843,607.234542369843,1629928978.1598,1629928978.16773,1629928985.02903,1629928985.03538,1629928987.12981,1629928988.11351,1629928988.11751,1629928988.61727,1629928988.6137,1629929103.68995,1
56,4,2,4,27,3,3,c3_HowFace,1,open mouth?,80,F_844.jpg,1629928496.45541,1629928496.45775,478.944396009445,6.85462713241577,485.813624610901,487.914408197403,0.3,489.715078105927,0.533534049987793,490.252413978577,1,left,0.518803119659424,490.248612155914,604.474542369843,607.234542369843,1629928978.1598,1629928978.16773,1629928985.02903,1629928985.03538,1629928987.12981,1629928988.93048,1629928988.93462,1629928989.46782,1629928989.46402,1629929103.68995,1
56,4,2,4,27,4,3,c3_HowFace,2,open mouth?,76,F_544.jpg,1629928496.45541,1629928496.45775,478.944396009445,6.85462713241577,485.813624610901,487.914408197403,0.3,490.565397014618,0.666914224624634,491.235106935501,3,right,0.655050992965698,491.232311239243,604.474542369843,607.234542369843,1629928978.1598,1629928978.16773,1629928985.02903,1629928985.03538,1629928987.12981,1629928989.7808,1629928989.78456,1629928990.45051,1629928990.44772,1629929103.68995,0
56,4,2,4,27,5,3,c3_HowFace,1,open mouth?,74,F_776.jpg,1629928496.45541,1629928496.45775,478.944396009445,6.85462713241577,485.813624610901,487.914408197403,0.3,491.549096336365,0.550205230712891,492.101081123352,1,left,0.525932788848877,492.099301567078,604.474542369843,607.234542369843,1629928978.1598,1629928978.16773,1629928985.02903,1629928985.03538,1629928987.12981,1629928990.7645,1629928990.76771,1629928991.31649,1629928991.31471,1629929103.68995,1
56,4,2,4,27,6,3,c3_HowFace,2,open mouth?,79,F_648.jpg,1629928496.45541,1629928496.45775,478.944396009445,6.85462713241577,485.813624610901,487.914408197403,0.3,492.416085948944,0.70026159286499,493.118106117249,3,right,0.675972938537598,493.116347541809,604.474542369843,607.234542369843,1629928978.1598,1629928978.16773,1629928985.02903,1629928985.03538,1629928987.12981,1629928991.63149,1629928991.63436,1629928992.33351,1629928992.33175,1629929103.68995,0
56,4,2,4,27,7,3,c3_HowFace,1,open mouth?,78,F_692.jpg,1629928496.45541,1629928496.45775,478.944396009445,6.85462713241577,485.813624610901,487.914408197403,0.3,493.433132638931,0.750279903411865,494.185109128952,1,left,0.729151964187622,494.183412542343,604.474542369843,607.234542369843,1629928978.1598,1629928978.16773,1629928985.02903,1629928985.03538,1629928987.12981,1629928992.64854,1629928992.65101,1629928993.40052,1629928993.39882,1629929103.68995,1
