src_subject_id,session_id,run_id,param_counterbalance_ver,param_block_num,param_trial_num,param_cond_type_num,param_cond_type_string,param_normative_response,param_ques_type_string,param_image_num,param_image_filename,param_trigger_onset,param_start_biopac,event01_fixation,event01_fixation_dur,event01_blockquestion_onset,event01_block_isi_blacksreen,event01_blockquestion_dur,event02_image_onset,event02_image_dur,event03_response_onset,event03_response_key,event03_response_keyname,event03_RT,event04_shortquestion_onset,param_end_instruct_onset,param_experiment_duration,RAW_e1_fixation,RAW_e1_fixation_biopac,RAW_e1_blockquestion_onset,RAW_e1_blockquestion_onset_biopac,RAW_e1_block_isi_blacksreen,RAW_e2_image_onset,RAW_e2_image_onset_biopac,RAW_e3_response_onset,RAW_e4_shortquestion_onset,RAW_param_end_instruct_onset,accuracy
20,4,1,3,1,1,4,c4_HowHand,1,reaching?,107,H_007.jpg,1620917727.2669,1620917727.27911,0.0408995056152341,0.0387094020843506,0.09091757774353,2.10833667755127,2.01741909980774,2.25839232444763,1.40052175521851,3.66042684555054,1,left,1.35735177993774,3.65891407966614,604.482975950241,607.242975950241,1620917730.0678,1620917730.0725,1620917730.11782,1620917730.11958,1620917732.13524,1620917732.2853,1620917732.30332,1620917733.68733,1620917733.68582,1620918334.50988,1
20,4,1,3,1,2,4,c4_HowHand,2,reaching?,108,H_532.jpg,1620917727.2669,1620917727.27911,0.0408995056152341,0.0387094020843506,0.09091757774353,2.10833667755127,0.3,3.97569965362549,1.08373785018921,5.075932970047,3,right,1.07389807701111,5.0594375038147,604.482975950241,607.242975950241,1620917730.0678,1620917730.0725,1620917730.11782,1620917730.11958,1620917732.13524,1620917734.0026,1620917734.00501,1620917735.10284,1620917735.08634,1620918334.50988,0
20,4,1,3,1,3,4,c4_HowHand,1,reaching?,109,H_474.jpg,1620917727.2669,1620917727.27911,0.0408995056152341,0.0387094020843506,0.09091757774353,2.10833667755127,0.3,5.37622236251831,1.15042805671692,6.5282239818573,1,left,1.13164806365967,6.52665041923523,604.482975950241,607.242975950241,1620917730.0678,1620917730.0725,1620917730.11782,1620917730.11958,1620917732.13524,1620917735.40313,1620917735.40493,1620917736.55513,1620917736.55355,1620918334.50988,1
20,4,1,3,1,4,4,c4_HowHand,2,reaching?,105,H_438.jpg,1620917727.2669,1620917727.27911,0.0408995056152341,0.0387094020843506,0.09091757774353,2.10833667755127,0.3,6.843435754776,1.21712112426758,8.06269787788391,3,right,1.19779801368713,8.06055687904358,604.482975950241,607.242975950241,1620917730.0678,1620917730.0725,1620917730.11782,1620917730.11958,1620917732.13524,1620917736.87034,1620917736.87212,1620917738.0896,1620917738.08746,1620918334.50988,0
20,4,1,3,1,5,4,c4_HowHand,1,reaching?,110,H_364.jpg,1620917727.2669,1620917727.27911,0.0408995056152341,0.0387094020843506,0.09091757774353,2.10833667755127,0.3,8.37734197616577,0.933681011199951,9.32878898620605,1,left,0.91902494430542,9.31102298736572,604.482975950241,607.242975950241,1620917730.0678,1620917730.0725,1620917730.11782,1620917730.11958,1620917732.13524,1620917738.40425,1620917738.40741,1620917739.35569,1620917739.33793,1620918334.50988,1
20,4,1,3,1,6,4,c4_HowHand,1,reaching?,106,H_006.jpg,1620917727.2669,1620917727.27911,0.0408995056152341,0.0387094020843506,0.09091757774353,2.10833667755127,0.3,9.62780784606934,1.03371858596802,10.6633229160309,1,left,1.0161030292511,10.6615264320374,604.482975950241,607.242975950241,1620917730.0678,1620917730.0725,1620917730.11782,1620917730.11958,1620917732.13524,1620917739.65471,1620917739.65669,1620917740.69023,1620917740.68843,1620918334.50988,1
20,4,1,3,1,7,4,c4_HowHand,1,reaching?,111,H_003.jpg,1620917727.2669,1620917727.27911,0.0408995056152341,0.0387094020843506,0.09091757774353,2.10833667755127,0.3,10.9783110523224,0.917008638381958,11.8966619873047,1,left,0.903825044631958,11.8953196907043,604.482975950241,607.242975950241,1620917730.0678,1620917730.0725,1620917730.11782,1620917730.11958,1620917732.13524,1620917741.00522,1620917741.00679,1620917741.92357,1620917741.92222,1620918334.50988,1
20,4,1,3,1,8,4,c4_HowHand,2,reaching?,112,H_132.jpg,1620917727.2669,1620917727.27911,0.0408995056152341,0.0387094020843506,0.09091757774353,2.10833667755127,0.3,12.2121040725708,0.96702766418457,13.1925508880615,3,right,0.956763982772827,13.1791317367554,604.482975950241,607.242975950241,1620917730.0678,1620917730.0725,1620917730.11782,1620917730.11958,1620917732.13524,1620917742.23901,1620917742.24102,1620917743.21946,1620917743.20604,1620918334.50988,0
20,4,1,3,2,1,2,c2_WhyHand,1,healthy?,21,H_627.jpg,1620917727.2669,1620917727.27911,13.4458985233307,4.08518934249878,17.5474276447296,19.6482117080688,2.10078406333923,19.7982692623138,1.13375329971313,20.9435717964172,1,left,1.12474608421326,20.932022562027,604.482975950241,607.242975950241,1620917743.4728,1620917743.47553,1620917747.57433,1620917747.57627,1620917749.67512,1620917749.82517,1620917749.82733,1620917750.97048,1620917750.95893,1620918334.50988,1
20,4,1,3,2,2,2,c2_WhyHand,1,healthy?,18,H_438.jpg,1620917727.2669,1620917727.27911,13.4458985233307,4.08518934249878,17.5474276447296,19.6482117080688,0.3,21.2488076591492,0.733607053756714,21.9841267967224,1,left,0.713480949401855,21.9824147129059,604.482975950241,607.242975950241,1620917743.4728,1620917743.47553,1620917747.57433,1620917747.57627,1620917749.67512,1620917751.27571,1620917751.27746,1620917752.01103,1620917752.00932,1620918334.50988,1
20,4,1,3,2,3,2,c2_WhyHand,1,healthy?,23,H_364.jpg,1620917727.2669,1620917727.27911,13.4458985233307,4.08518934249878,17.5474276447296,19.6482117080688,0.3,22.2991998100281,1.15042853355408,23.4595508480072,1,left,1.14137601852417,23.4496283435822,604.482975950241,607.242975950241,1620917743.4728,1620917743.47553,1620917747.57433,1620917747.57627,1620917749.67512,1620917752.3261,1620917752.32764,1620917753.48645,1620917753.47653,1620918334.50988,1
20,4,1,3,2,4,2,c2_WhyHand,2,healthy?,22,H_130.jpg,1620917727.2669,1620917727.27911,13.4458985233307,4.08518934249878,17.5474276447296,19.6482117080688,0.3,23.7664134407043,1.00037312507629,24.7681867980957,3,right,0.982123136520386,24.7667865657806,604.482975950241,607.242975950241,1620917743.4728,1620917743.47553,1620917747.57433,1620917747.57627,1620917749.67512,1620917753.79332,1620917753.7949,1620917754.79509,1620917754.79369,1620918334.50988,0
20,4,1,3,2,5,2,c2_WhyHand,1,healthy?,17,H_362.jpg,1620917727.2669,1620917727.27911,13.4458985233307,4.08518934249878,17.5474276447296,19.6482117080688,0.3,25.0835716629028,0.766953229904175,25.8592269325256,1,left,0.752886056900024,25.850524892807,604.482975950241,607.242975950241,1620917743.4728,1620917743.47553,1620917747.57433,1620917747.57627,1620917749.67512,1620917755.11048,1620917755.11227,1620917755.88613,1620917755.87743,1620918334.50988,1
20,4,1,3,2,6,2,c2_WhyHand,2,healthy?,20,H_007.jpg,1620917727.2669,1620917727.27911,13.4458985233307,4.08518934249878,17.5474276447296,19.6482117080688,0.3,26.1673085594177,0.983699798583984,27.1588799858093,3,right,0.970859050750732,27.1510083580017,604.482975950241,607.242975950241,1620917743.4728,1620917743.47553,1620917747.57433,1620917747.57627,1620917749.67512,1620917756.19421,1620917756.19615,1620917757.18578,1620917757.17791,1620918334.50988,0
20,4,1,3,2,7,2,c2_WhyHand,1,healthy?,19,H_167.jpg,1620917727.2669,1620917727.27911,13.4458985233307,4.08518934249878,17.5474276447296,19.6482117080688,0.3,27.4677939319611,0.816971778869629,28.2922038936615,1,left,0.802418947219849,28.2847657108307,604.482975950241,607.242975950241,1620917743.4728,1620917743.47553,1620917747.57433,1620917747.57627,1620917749.67512,1620917757.4947,1620917757.4966,1620917758.31911,1620917758.31167,1620918334.50988,1
20,4,1,3,2,8,2,c2_WhyHand,2,healthy?,24,H_019.jpg,1620917727.2669,1620917727.27911,13.4458985233307,4.08518934249878,17.5474276447296,19.6482117080688,0.3,28.6015500926971,1.23379349708557,29.842490901947,3,right,1.22049880027771,29.8353435897827,604.482975950241,607.242975950241,1620917743.4728,1620917743.47553,1620917747.57433,1620917747.57627,1620917749.67512,1620917758.62845,1620917758.63027,1620917759.8694,1620917759.86225,1620918334.50988,0
20,4,1,3,3,1,1,c1_WhyFace,1,admiring?,4,F_779.jpg,1620917727.2669,1620917727.27911,29.9520537757874,6.68706011772156,36.6545538806915,38.7553367519379,2.10078287124634,38.9053923988342,1.06706523895264,39.9754769706726,1,left,1.05011606216431,39.9724576377869,604.482975950241,607.242975950241,1620917759.97896,1620917759.9808,1620917766.68146,1620917766.68674,1620917768.78224,1620917768.9323,1620917768.93654,1620917770.00238,1620917769.99936,1620918334.50988,1
20,4,1,3,3,2,1,c1_WhyFace,1,admiring?,1,F_593.jpg,1620917727.2669,1620917727.27911,29.9520537757874,6.68706011772156,36.6545538806915,38.7553367519379,0.3,40.2892417812347,0.733606815338135,41.0239977741241,1,left,0.708741903305054,41.0228485965729,604.482975950241,607.242975950241,1620917759.97896,1620917759.9808,1620917766.68146,1620917766.68674,1620917768.78224,1620917770.31615,1620917770.31955,1620917771.0509,1620917771.04975,1620918334.50988,1
20,4,1,3,3,3,1,c1_WhyFace,2,admiring?,3,F_110.jpg,1620917727.2669,1620917727.27911,29.9520537757874,6.68706011772156,36.6545538806915,38.7553367519379,0.3,41.3396341705322,0.78362512588501,42.1263408565521,3,right,0.760118007659912,42.1232592964172,604.482975950241,607.242975950241,1620917759.97896,1620917759.9808,1620917766.68146,1620917766.68674,1620917768.78224,1620917771.36654,1620917771.36964,1620917772.15324,1620917772.15016,1620918334.50988,0
20,4,1,3,3,4,1,c1_WhyFace,1,admiring?,8,F_590.jpg,1620917727.2669,1620917727.27911,29.9520537757874,6.68706011772156,36.6545538806915,38.7553367519379,0.3,42.4400436782837,0.633569478988647,43.0758237743378,1,left,0.620053052902222,43.0736131572723,604.482975950241,607.242975950241,1620917759.97896,1620917759.9808,1620917766.68146,1620917766.68674,1620917768.78224,1620917772.46695,1620917772.46952,1620917773.10273,1620917773.10052,1620918334.50988,1
20,4,1,3,3,5,1,c1_WhyFace,2,admiring?,6,F_692.jpg,1620917727.2669,1620917727.27911,29.9520537757874,6.68706011772156,36.6545538806915,38.7553367519379,0.3,43.3903989696503,0.866990089416504,44.2588419818878,1,left,0.844588994979858,44.2573890590668,604.482975950241,607.242975950241,1620917759.97896,1620917759.9808,1620917766.68146,1620917766.68674,1620917768.78224,1620917773.4173,1620917773.41948,1620917774.28575,1620917774.28429,1620918334.50988,0
20,4,1,3,3,6,1,c1_WhyFace,1,admiring?,5,F_759.jpg,1620917727.2669,1620917727.27911,29.9520537757874,6.68706011772156,36.6545538806915,38.7553367519379,0.3,44.5741729640961,0.750279903411865,45.325884809494,1,left,0.73703408241272,45.3244528675079,604.482975950241,607.242975950241,1620917759.97896,1620917759.9808,1620917766.68146,1620917766.68674,1620917768.78224,1620917774.60108,1620917774.60258,1620917775.35279,1620917775.35136,1620918334.50988,1
20,4,1,3,3,7,1,c1_WhyFace,1,admiring?,7,F_648.jpg,1620917727.2669,1620917727.27911,29.9520537757874,6.68706011772156,36.6545538806915,38.7553367519379,0.3,45.6412379646301,0.783625841140747,46.4265999698639,1,left,0.767689943313599,46.4248638057709,604.482975950241,607.242975950241,1620917759.97896,1620917759.9808,1620917766.68146,1620917766.68674,1620917768.78224,1620917775.66814,1620917775.66975,1620917776.4535,1620917776.45177,1620918334.50988,1
20,4,1,3,3,8,1,c1_WhyFace,2,admiring?,2,F_129.jpg,1620917727.2669,1620917727.27911,29.9520537757874,6.68706011772156,36.6545538806915,38.7553367519379,0.3,46.7416484260559,0.967027187347412,47.7100798988342,3,right,0.951460123062134,47.7086756134033,604.482975950241,607.242975950241,1620917759.97896,1620917759.9808,1620917766.68146,1620917766.68674,1620917768.78224,1620917776.76855,1620917776.77033,1620917777.73698,1620917777.73558,1620918334.50988,0
20,4,1,3,4,1,3,c3_HowFace,1,smiling?,119,F_139.jpg,1620917727.2669,1620917727.27911,47.8087122344971,7.79434967041016,55.6116223239899,57.7124066257477,2.10078430175781,57.8624615573883,0.633569955825806,58.4975027942657,1,left,0.614216804504395,58.4960315132141,604.482975950241,607.242975950241,1620917777.83562,1620917777.83751,1620917785.63853,1620917785.64053,1620917787.73931,1620917787.88937,1620917787.89097,1620917788.52441,1620917788.52294,1620918334.50988,1
20,4,1,3,4,2,3,c3_HowFace,2,smiling?,113,F_712.jpg,1620917727.2669,1620917727.27911,47.8087122344971,7.79434967041016,55.6116223239899,57.7124066257477,0.3,58.8128166103363,0.633569240570068,59.4589688682556,3,right,0.624710083007812,59.4463858509064,604.482975950241,607.242975950241,1620917777.83562,1620917777.83751,1620917785.63853,1620917785.64053,1620917787.73931,1620917788.83972,1620917788.84169,1620917789.48587,1620917789.47329,1620918334.50988,0
20,4,1,3,4,3,3,c3_HowFace,1,smiling?,115,F_695.jpg,1620917727.2669,1620917727.27911,47.8087122344971,7.79434967041016,55.6116223239899,57.7124066257477,0.3,59.7631704711914,0.583551168441772,60.3594889545441,1,left,0.572700977325439,60.3467216396332,604.482975950241,607.242975950241,1620917777.83562,1620917777.83751,1620917785.63853,1620917785.64053,1620917787.73931,1620917789.79007,1620917789.79168,1620917790.38639,1620917790.37363,1620918334.50988,1
20,4,1,3,4,4,3,c3_HowFace,2,smiling?,120,F_758.jpg,1620917727.2669,1620917727.27911,47.8087122344971,7.79434967041016,55.6116223239899,57.7124066257477,0.3,60.6635060214996,0.716934680938721,61.3815359973907,3,right,0.699296951293945,61.3804407024384,604.482975950241,607.242975950241,1620917777.83562,1620917777.83751,1620917785.63853,1620917785.64053,1620917787.73931,1620917790.69041,1620917790.69217,1620917791.40844,1620917791.40734,1620918334.50988,0
20,4,1,3,4,5,3,c3_HowFace,1,smiling?,116,F_083.jpg,1620917727.2669,1620917727.27911,47.8087122344971,7.79434967041016,55.6116223239899,57.7124066257477,0.3,61.6972257995605,0.616896629333496,62.3157839679718,1,left,0.603747129440308,62.314122428894,604.482975950241,607.242975950241,1620917777.83562,1620917777.83751,1620917785.63853,1620917785.64053,1620917787.73931,1620917791.72413,1620917791.7257,1620917792.34269,1620917792.34103,1620918334.50988,1
20,4,1,3,4,6,3,c3_HowFace,1,smiling?,118,F_759.jpg,1620917727.2669,1620917727.27911,47.8087122344971,7.79434967041016,55.6116223239899,57.7124066257477,0.3,62.6309063339233,0.633570432662964,63.2659737968445,1,left,0.614701986312866,63.2644767665863,604.482975950241,607.242975950241,1620917777.83562,1620917777.83751,1620917785.63853,1620917785.64053,1620917787.73931,1620917792.65781,1620917792.65937,1620917793.29288,1620917793.29138,1620918334.50988,1
20,4,1,3,4,7,3,c3_HowFace,2,smiling?,114,F_412.jpg,1620917727.2669,1620917727.27911,47.8087122344971,7.79434967041016,55.6116223239899,57.7124066257477,0.3,63.5812613868713,0.66691517829895,64.2496509456634,3,right,0.64826488494873,64.2481765651703,604.482975950241,607.242975950241,1620917777.83562,1620917777.83751,1620917785.63853,1620917785.64053,1620917787.73931,1620917793.60817,1620917793.6096,1620917794.27656,1620917794.27508,1620918334.50988,0
20,4,1,3,4,8,3,c3_HowFace,1,smiling?,117,F_593.jpg,1620917727.2669,1620917727.27911,47.8087122344971,7.79434967041016,55.6116223239899,57.7124066257477,0.3,64.5649614238739,0.583550930023193,65.1502489948273,1,left,0.563492774963379,65.1485123538971,604.482975950241,607.242975950241,1620917777.83562,1620917777.83751,1620917785.63853,1620917785.64053,1620917787.73931,1620917794.59187,1620917794.59337,1620917795.17715,1620917795.17542,1620918334.50988,1
20,4,1,3,5,1,4,c4_HowHand,1,lifting?,56,H_136.jpg,1620917727.2669,1620917727.27911,65.2152044677734,7.91863036155701,73.1514971160889,75.2522807025909,2.10078358650208,75.4023365879059,1.16710233688354,76.5711288356781,1,left,1.14691805839539,76.5694389247894,604.482975950241,607.242975950241,1620917795.24211,1620917795.25427,1620917803.1784,1620917803.18128,1620917805.27918,1620917805.42924,1620917805.43157,1620917806.59803,1620917806.59634,1620918334.50988,1
20,4,1,3,5,2,4,c4_HowHand,2,lifting?,51,H_038.jpg,1620917727.2669,1620917727.27911,65.2152044677734,7.91863036155701,73.1514971160889,75.2522807025909,0.3,76.886223783493,0.900335311889648,77.792649974823,3,right,0.892931938171387,77.7865590953827,604.482975950241,607.242975950241,1620917795.24211,1620917795.25427,1620917803.1784,1620917803.18128,1620917805.27918,1620917806.91313,1620917806.91474,1620917807.81955,1620917807.81346,1620918334.50988,0
20,4,1,3,5,3,4,c4_HowHand,1,lifting?,52,H_189.jpg,1620917727.2669,1620917727.27911,65.2152044677734,7.91863036155701,73.1514971160889,75.2522807025909,0.3,78.1033432388306,1.0337188243866,79.1388947868347,1,left,1.01354503631592,79.1370620632172,604.482975950241,607.242975950241,1620917795.24211,1620917795.25427,1620917803.1784,1620917803.18128,1620917805.27918,1620917808.13025,1620917808.13195,1620917809.1658,1620917809.16397,1620918334.50988,1
20,4,1,3,5,4,4,c4_HowHand,2,lifting?,53,H_077.jpg,1620917727.2669,1620917727.27911,65.2152044677734,7.91863036155701,73.1514971160889,75.2522807025909,0.3,79.4538478755951,1.06706380844116,80.5256059074402,1,left,1.0563530921936,80.5209116840362,604.482975950241,607.242975950241,1620917795.24211,1620917795.25427,1620917803.1784,1620917803.18128,1620917805.27918,1620917809.48075,1620917809.48237,1620917810.55251,1620917810.54782,1620918334.50988,0
20,4,1,3,5,5,4,c4_HowHand,1,lifting?,50,H_443.jpg,1620917727.2669,1620917727.27911,65.2152044677734,7.91863036155701,73.1514971160889,75.2522807025909,0.3,80.8376965427399,0.800298690795898,81.6396667861938,1,left,0.779009819030762,81.6379952335358,604.482975950241,607.242975950241,1620917795.24211,1620917795.25427,1620917803.1784,1620917803.18128,1620917805.27918,1620917810.8646,1620917810.86583,1620917811.66657,1620917811.6649,1620918334.50988,1
20,4,1,3,5,6,4,c4_HowHand,2,lifting?,55,H_012.jpg,1620917727.2669,1620917727.27911,65.2152044677734,7.91863036155701,73.1514971160889,75.2522807025909,0.3,81.9547805690765,0.750279188156128,82.7062458896637,3,right,0.726128101348877,82.7050597572327,604.482975950241,607.242975950241,1620917795.24211,1620917795.25427,1620917803.1784,1620917803.18128,1620917805.27918,1620917811.98168,1620917811.98627,1620917812.73315,1620917812.73196,1620918334.50988,0
20,4,1,3,5,7,4,c4_HowHand,1,lifting?,49,H_362.jpg,1620917727.2669,1620917727.27911,65.2152044677734,7.91863036155701,73.1514971160889,75.2522807025909,0.3,83.0218448543549,0.683587789535522,83.7093558216095,1,left,0.67385196685791,83.7054326438904,604.482975950241,607.242975950241,1620917795.24211,1620917795.25427,1620917803.1784,1620917803.18128,1620917805.27918,1620917813.04875,1620917813.053,1620917813.73626,1620917813.73234,1620918334.50988,1
20,4,1,3,5,8,4,c4_HowHand,1,lifting?,54,H_170.jpg,1620917727.2669,1620917727.27911,65.2152044677734,7.91863036155701,73.1514971160889,75.2522807025909,0.3,84.022217502594,1.21712017059326,85.2426738643646,1,left,1.196702003479,85.2393376731873,604.482975950241,607.242975950241,1620917795.24211,1620917795.25427,1620917803.1784,1620917803.18128,1620917805.27918,1620917814.04912,1620917814.05327,1620917815.26958,1620917815.26624,1620918334.50988,1
20,4,1,3,6,1,2,c2_WhyHand,1,helping?,38,H_077.jpg,1620917727.2669,1620917727.27911,85.3393754863739,10.2755525112152,95.6265461349487,97.7273270988464,2.10078096389771,97.8773844146728,0.783625602722168,98.6620058917999,1,left,0.771554946899414,98.661010017395,604.482975950241,607.242975950241,1620917815.36628,1620917815.36792,1620917825.65345,1620917825.65543,1620917827.75423,1620917827.90429,1620917827.9059,1620917828.68891,1620917828.68791,1620918334.50988,1
20,4,1,3,6,2,2,c2_WhyHand,1,helping?,36,H_349.jpg,1620917727.2669,1620917727.27911,85.3393754863739,10.2755525112152,95.6265461349487,97.7273270988464,0.3,98.9777941608429,0.700261831283569,99.6790649795532,1,left,0.688145875930786,99.6780559921265,604.482975950241,607.242975950241,1620917815.36628,1620917815.36792,1620917825.65345,1620917825.65543,1620917827.75423,1620917829.0047,1620917829.00628,1620917829.70597,1620917829.70496,1620918334.50988,1
20,4,1,3,6,3,2,c2_WhyHand,1,helping?,37,H_474.jpg,1620917727.2669,1620917727.27911,85.3393754863739,10.2755525112152,95.6265461349487,97.7273270988464,0.3,99.9948408508301,0.666914701461792,100.676114788055,1,left,0.658928871154785,100.661755552292,604.482975950241,607.242975950241,1620917815.36628,1620917815.36792,1620917825.65345,1620917825.65543,1620917827.75423,1620917830.02174,1620917830.02346,1620917830.70302,1620917830.68866,1620918334.50988,1
20,4,1,3,6,4,2,c2_WhyHand,1,helping?,39,H_024.jpg,1620917727.2669,1620917727.27911,85.3393754863739,10.2755525112152,95.6265461349487,97.7273270988464,0.3,100.978540410995,1.15042948722839,102.130756845474,1,left,1.126620054245,102.128969898224,604.482975950241,607.242975950241,1620917815.36628,1620917815.36792,1620917825.65345,1620917825.65543,1620917827.75423,1620917831.00544,1620917831.00695,1620917832.15766,1620917832.15587,1620918334.50988,1
20,4,1,3,6,5,2,c2_WhyHand,2,helping?,40,H_012.jpg,1620917727.2669,1620917727.27911,85.3393754863739,10.2755525112152,95.6265461349487,97.7273270988464,0.3,102.445754041672,1.10040950775146,103.559266796112,1,left,1.0909960269928,103.546163549423,604.482975950241,607.242975950241,1620917815.36628,1620917815.36792,1620917825.65345,1620917825.65543,1620917827.75423,1620917832.47266,1620917832.47454,1620917833.58617,1620917833.57307,1620918334.50988,0
20,4,1,3,6,6,2,c2_WhyHand,2,helping?,35,H_159.jpg,1620917727.2669,1620917727.27911,85.3393754863739,10.2755525112152,95.6265461349487,97.7273270988464,0.3,103.86294960022,1.05039167404175,104.925508966446,3,right,1.04033899307251,104.913341274261,604.482975950241,607.242975950241,1620917815.36628,1620917815.36792,1620917825.65345,1620917825.65543,1620917827.75423,1620917833.88985,1620917833.89148,1620917834.95241,1620917834.94025,1620918334.50988,0
20,4,1,3,6,7,2,c2_WhyHand,1,helping?,34,H_111.jpg,1620917727.2669,1620917727.27911,85.3393754863739,10.2755525112152,95.6265461349487,97.7273270988464,0.3,105.230126371384,0.900334119796753,106.14293097496,1,left,0.8922278881073,106.13046049118,604.482975950241,607.242975950241,1620917815.36628,1620917815.36792,1620917825.65345,1620917825.65543,1620917827.75423,1620917835.25703,1620917835.25863,1620917836.16984,1620917836.15736,1620918334.50988,1
20,4,1,3,6,8,2,c2_WhyHand,2,helping?,33,H_091.jpg,1620917727.2669,1620917727.27911,85.3393754863739,10.2755525112152,95.6265461349487,97.7273270988464,0.3,106.44724773407,1.13375616073608,107.582478990555,3,right,1.11790800094604,107.581003894806,604.482975950241,607.242975950241,1620917815.36628,1620917815.36792,1620917825.65345,1620917825.65543,1620917827.75423,1620917836.47415,1620917836.47544,1620917837.60938,1620917837.60791,1620918334.50988,0
20,4,1,3,7,1,1,c1_WhyFace,1,proud?,104,F_598.jpg,1620917727.2669,1620917727.27911,107.647694578171,5.84227418899536,113.499877681732,115.600660552979,2.10078287124634,115.750716438293,0.833644151687622,116.592125883102,1,left,0.81141185760498,116.584360589981,604.482975950241,607.242975950241,1620917837.6746,1620917837.68625,1620917843.52678,1620917843.53649,1620917845.62756,1620917845.77762,1620917845.78655,1620917846.61903,1620917846.61126,1620918334.50988,1
20,4,1,3,7,2,1,c1_WhyFace,2,proud?,102,F_760.jpg,1620917727.2669,1620917727.27911,107.647694578171,5.84227418899536,113.499877681732,115.600660552979,0.3,116.901145925522,0.917008638381958,117.825702896118,3,right,0.90913200378418,117.818154563904,604.482975950241,607.242975950241,1620917837.6746,1620917837.68625,1620917843.52678,1620917843.53649,1620917845.62756,1620917846.92805,1620917846.9295,1620917847.85261,1620917847.84506,1620918334.50988,0
20,4,1,3,7,3,1,c1_WhyFace,1,proud?,97,F_582.jpg,1620917727.2669,1620917727.27911,107.647694578171,5.84227418899536,113.499877681732,115.600660552979,0.3,118.134939422607,0.866988897323608,119.009299983978,3,right,0.854147911071777,119.001928319931,604.482975950241,607.242975950241,1620917837.6746,1620917837.68625,1620917843.52678,1620917843.53649,1620917845.62756,1620917848.16184,1620917848.16351,1620917849.0362,1620917849.02883,1620918334.50988,0
20,4,1,3,7,4,1,c1_WhyFace,2,proud?,98,F_412.jpg,1620917727.2669,1620917727.27911,107.647694578171,5.84227418899536,113.499877681732,115.600660552979,0.3,119.31871389389,0.917008638381958,120.23677491188,3,right,0.895508050918579,120.235722532272,604.482975950241,607.242975950241,1620917837.6746,1620917837.68625,1620917843.52678,1620917843.53649,1620917845.62756,1620917849.34562,1620917849.34715,1620917850.26368,1620917850.26263,1620918334.50988,0
20,4,1,3,7,5,1,c1_WhyFace,1,proud?,101,F_083.jpg,1620917727.2669,1620917727.27911,107.647694578171,5.84227418899536,113.499877681732,115.600660552979,0.3,120.552507629395,0.716933488845825,121.275978794098,1,left,0.707485198974609,121.26944111824,604.482975950241,607.242975950241,1620917837.6746,1620917837.68625,1620917843.52678,1620917843.53649,1620917845.62756,1620917850.57941,1620917850.58099,1620917851.30288,1620917851.29635,1620918334.50988,1
20,4,1,3,7,6,1,c1_WhyFace,2,proud?,100,F_776.jpg,1620917727.2669,1620917727.27911,107.647694578171,5.84227418899536,113.499877681732,115.600660552979,0.3,121.586227169037,1.61726856231689,123.209496965408,3,right,1.59901905059814,123.203495731354,604.482975950241,607.242975950241,1620917837.6746,1620917837.68625,1620917843.52678,1620917843.53649,1620917845.62756,1620917851.61313,1620917851.61495,1620917853.2364,1620917853.2304,1620918334.50988,0
20,4,1,3,7,7,1,c1_WhyFace,1,proud?,103,F_618.jpg,1620917727.2669,1620917727.27911,107.647694578171,5.84227418899536,113.499877681732,115.600660552979,0.3,123.520280828476,0.700260400772095,124.225837936401,1,left,0.691136837005615,124.220541229248,604.482975950241,607.242975950241,1620917837.6746,1620917837.68625,1620917843.52678,1620917843.53649,1620917845.62756,1620917853.54718,1620917853.54912,1620917854.25274,1620917854.24745,1620918334.50988,1
20,4,1,3,7,8,1,c1_WhyFace,1,proud?,99,F_695.jpg,1620917727.2669,1620917727.27911,107.647694578171,5.84227418899536,113.499877681732,115.600660552979,0.3,124.53732632637,0.866989374160767,125.409568777084,1,left,0.847676992416382,125.404315700531,604.482975950241,607.242975950241,1620917837.6746,1620917837.68625,1620917843.52678,1620917843.53649,1620917845.62756,1620917854.56423,1620917854.56586,1620917855.43647,1620917855.43122,1620918334.50988,1
20,4,1,3,8,1,3,c3_HowFace,1,looking to side?,72,F_590.jpg,1620917727.2669,1620917727.27911,125.471007814407,5.54896807670593,131.039751758575,133.123862257004,2.08411049842834,133.273918142319,0.633569717407227,133.908990850449,1,left,0.62126612663269,133.907487859726,604.482975950241,607.242975950241,1620917855.49791,1620917855.50277,1620917861.06666,1620917861.06869,1620917863.15077,1620917863.30082,1620917863.30287,1620917863.93589,1620917863.93439,1620918334.50988,1
20,4,1,3,8,2,3,c3_HowFace,1,looking to side?,71,F_433.jpg,1620917727.2669,1620917727.27911,125.471007814407,5.54896807670593,131.039751758575,133.123862257004,0.3,134.224272480011,0.583551168441772,134.809692850113,1,left,0.570307016372681,134.807823648453,604.482975950241,607.242975950241,1620917855.49791,1620917855.50277,1620917861.06666,1620917861.06869,1620917863.15077,1620917864.25118,1620917864.25306,1620917864.8366,1620917864.83473,1620918334.50988,1
20,4,1,3,8,3,3,c3_HowFace,1,looking to side?,67,F_716.jpg,1620917727.2669,1620917727.27911,125.471007814407,5.54896807670593,131.039751758575,133.123862257004,0.3,135.124607315063,0.666915893554688,135.792615880966,1,left,0.649371147155762,135.791523208618,604.482975950241,607.242975950241,1620917855.49791,1620917855.50277,1620917861.06666,1620917861.06869,1620917863.15077,1620917865.15151,1620917865.15335,1620917865.81952,1620917865.81843,1620918334.50988,1
20,4,1,3,8,4,3,c3_HowFace,2,looking to side?,70,F_779.jpg,1620917727.2669,1620917727.27911,125.471007814407,5.54896807670593,131.039751758575,133.123862257004,0.3,136.108309020996,0.650241136550903,136.760273923874,1,left,0.627485990524292,136.758550157547,604.482975950241,607.242975950241,1620917855.49791,1620917855.50277,1620917861.06666,1620917861.06869,1620917863.15077,1620917866.13521,1620917866.13688,1620917866.78718,1620917866.78545,1620918334.50988,0
20,4,1,3,8,5,3,c3_HowFace,1,looking to side?,68,F_760.jpg,1620917727.2669,1620917727.27911,125.471007814407,5.54896807670593,131.039751758575,133.123862257004,0.3,137.075335731506,0.86698842048645,137.944241991043,1,left,0.843729019165039,137.942324151993,604.482975950241,607.242975950241,1620917855.49791,1620917855.50277,1620917861.06666,1620917861.06869,1620917863.15077,1620917867.10224,1620917867.10386,1620917867.97115,1620917867.96923,1620918334.50988,1
20,4,1,3,8,6,3,c3_HowFace,2,looking to side?,66,F_111.jpg,1620917727.2669,1620917727.27911,125.471007814407,5.54896807670593,131.039751758575,133.123862257004,0.3,138.259110679626,1.06706547737122,139.327622880936,3,right,1.05282521247864,139.326176156998,604.482975950241,607.242975950241,1620917855.49791,1620917855.50277,1620917861.06666,1620917861.06869,1620917863.15077,1620917868.28601,1620917868.2875,1620917869.35453,1620917869.35308,1620918334.50988,0
20,4,1,3,8,7,3,c3_HowFace,1,looking to side?,69,F_110.jpg,1620917727.2669,1620917727.27911,125.471007814407,5.54896807670593,131.039751758575,133.123862257004,0.3,139.642959346771,0.700262308120728,140.344835987091,1,left,0.680273056030273,140.343221654892,604.482975950241,607.242975950241,1620917855.49791,1620917855.50277,1620917861.06666,1620917861.06869,1620917863.15077,1620917869.66986,1620917869.6713,1620917870.37174,1620917870.37013,1620918334.50988,1
20,4,1,3,8,8,3,c3_HowFace,2,looking to side?,65,F_798.jpg,1620917727.2669,1620917727.27911,125.471007814407,5.54896807670593,131.039751758575,133.123862257004,0.3,140.66000579834,1.51723074913025,142.17901181221,3,right,1.49684596061707,142.17723654747,604.482975950241,607.242975950241,1620917855.49791,1620917855.50277,1620917861.06666,1620917861.06869,1620917863.15077,1620917870.68691,1620917870.68862,1620917872.20592,1620917872.20414,1620918334.50988,0
20,4,1,3,9,1,1,c1_WhyFace,1,argument?,43,F_716.jpg,1620917727.2669,1620917727.27911,142.243929615021,7.88399815559387,150.146876564026,152.23098777771,2.08411121368408,152.381043663025,0.967025995254517,153.349086990356,1,left,0.93533992767334,153.348069658279,604.482975950241,607.242975950241,1620917872.27083,1620917872.27183,1620917880.17378,1620917880.17627,1620917882.25789,1620917882.40795,1620917882.4201,1620917883.37599,1620917883.37497,1620918334.50988,1
20,4,1,3,9,2,1,c1_WhyFace,2,argument?,44,F_139.jpg,1620917727.2669,1620917727.27911,142.243929615021,7.88399815559387,150.146876564026,152.23098777771,0.3,153.664855232239,0.683588743209839,154.359561910629,3,right,0.67584490776062,154.348443975449,604.482975950241,607.242975950241,1620917872.27083,1620917872.27183,1620917880.17378,1620917880.17627,1620917882.25789,1620917883.69176,1620917883.69337,1620917884.38647,1620917884.37535,1620918334.50988,0
20,4,1,3,9,3,1,c1_WhyFace,1,argument?,41,F_712.jpg,1620917727.2669,1620917727.27911,142.243929615021,7.88399815559387,150.146876564026,152.23098777771,0.3,154.665229072571,0.833643674850464,155.509371986389,1,left,0.823490858078003,155.498872747421,604.482975950241,607.242975950241,1620917872.27083,1620917872.27183,1620917880.17378,1620917880.17627,1620917882.25789,1620917884.69213,1620917884.69396,1620917885.53628,1620917885.52578,1620918334.50988,1
20,4,1,3,9,4,1,c1_WhyFace,2,argument?,45,F_433.jpg,1620917727.2669,1620917727.27911,142.243929615021,7.88399815559387,150.146876564026,152.23098777771,0.3,155.815657129288,0.933681011199951,156.750367870331,3,right,0.917574167251587,156.749338140488,604.482975950241,607.242975950241,1620917872.27083,1620917872.27183,1620917880.17378,1620917880.17627,1620917882.25789,1620917885.84256,1620917885.84417,1620917886.77727,1620917886.77624,1620918334.50988,0
20,4,1,3,9,5,1,c1_WhyFace,1,argument?,42,F_403.jpg,1620917727.2669,1620917727.27911,142.243929615021,7.88399815559387,150.146876564026,152.23098777771,0.3,157.066124429703,0.800298452377319,157.867447843552,1,left,0.779148101806641,157.86642288208,604.482975950241,607.242975950241,1620917872.27083,1620917872.27183,1620917880.17378,1620917880.17627,1620917882.25789,1620917887.09303,1620917887.09445,1620917887.89435,1620917887.89333,1620918334.50988,1
20,4,1,3,9,6,1,c1_WhyFace,2,argument?,46,F_844.jpg,1620917727.2669,1620917727.27911,142.243929615021,7.88399815559387,150.146876564026,152.23098777771,0.3,158.183207502365,0.816971302032471,159.002004852295,3,right,0.795892953872681,159.000178804398,604.482975950241,607.242975950241,1620917872.27083,1620917872.27183,1620917880.17378,1620917880.17627,1620917882.25789,1620917888.21011,1620917888.21189,1620917889.02891,1620917889.02708,1620918334.50988,0
20,4,1,3,9,7,1,c1_WhyFace,1,argument?,47,F_743.jpg,1620917727.2669,1620917727.27911,142.243929615021,7.88399815559387,150.146876564026,152.23098777771,0.3,159.31696390152,0.766951322555542,160.092554798126,1,left,0.759201049804688,160.083915224075,604.482975950241,607.242975950241,1620917872.27083,1620917872.27183,1620917880.17378,1620917880.17627,1620917882.25789,1620917889.34387,1620917889.3457,1620917890.11946,1620917890.11082,1620918334.50988,1
20,4,1,3,9,8,1,c1_WhyFace,1,argument?,48,F_758.jpg,1620917727.2669,1620917727.27911,142.243929615021,7.88399815559387,150.146876564026,152.23098777771,0.3,160.400700559616,0.833645582199097,161.242816915512,1,left,0.825082063674927,161.234346141815,604.482975950241,607.242975950241,1620917872.27083,1620917872.27183,1620917880.17378,1620917880.17627,1620917882.25789,1620917890.4276,1620917890.42978,1620917891.26972,1620917891.26125,1620918334.50988,1
20,4,1,3,10,1,3,c3_HowFace,1,open mouth?,80,F_844.jpg,1620917727.2669,1620917727.27911,161.317709436417,6.65024256706238,167.986863603592,170.07097410202,2.08411049842834,170.221029748917,0.68358850479126,170.908937921524,1,left,0.66890287399292,170.904618253708,604.482975950241,607.242975950241,1620917891.34461,1620917891.34605,1620917898.01377,1620917898.01554,1620917900.09788,1620917900.24793,1620917900.25335,1620917900.93584,1620917900.93152,1620918334.50988,1
20,4,1,3,10,2,3,c3_HowFace,1,open mouth?,74,F_776.jpg,1620917727.2669,1620917727.27911,161.317709436417,6.65024256706238,167.986863603592,170.07097410202,0.3,171.221402635574,0.533531904220581,171.756471862793,1,left,0.508264064788818,171.754934539795,604.482975950241,607.242975950241,1620917891.34461,1620917891.34605,1620917898.01377,1620917898.01554,1620917900.09788,1620917901.24831,1620917901.25297,1620917901.78338,1620917901.78184,1620918334.50988,1
20,4,1,3,10,3,3,c3_HowFace,2,open mouth?,76,F_544.jpg,1620917727.2669,1620917727.27911,161.317709436417,6.65024256706238,167.986863603592,170.07097410202,0.3,172.07171916008,0.616897583007812,172.692628850937,3,right,0.594513893127441,172.688616743088,604.482975950241,607.242975950241,1620917891.34461,1620917891.34605,1620917898.01377,1620917898.01554,1620917900.09788,1620917902.09862,1620917902.10302,1620917902.71953,1620917902.71552,1620918334.50988,0
20,4,1,3,10,4,3,c3_HowFace,1,open mouth?,78,F_692.jpg,1620917727.2669,1620917727.27911,161.317709436417,6.65024256706238,167.986863603592,170.07097410202,0.3,173.005401124954,0.533532619476318,173.539959897995,1,left,0.508532047271729,173.538933744431,604.482975950241,607.242975950241,1620917891.34461,1620917891.34605,1620917898.01377,1620917898.01554,1620917900.09788,1620917903.03231,1620917903.03627,1620917903.56686,1620917903.56584,1620918334.50988,1
20,4,1,3,10,5,3,c3_HowFace,2,open mouth?,77,F_584.jpg,1620917727.2669,1620917727.27911,161.317709436417,6.65024256706238,167.986863603592,170.07097410202,0.3,173.855718603134,0.650241851806641,174.509155979157,3,right,0.632960081100464,174.505960454941,604.482975950241,607.242975950241,1620917891.34461,1620917891.34605,1620917898.01377,1620917898.01554,1620917900.09788,1620917903.88262,1620917903.88645,1620917904.53606,1620917904.53286,1620918334.50988,0
20,4,1,3,10,6,3,c3_HowFace,1,open mouth?,73,F_403.jpg,1620917727.2669,1620917727.27911,161.317709436417,6.65024256706238,167.986863603592,170.07097410202,0.3,174.822745313644,0.533532619476318,175.359164943695,1,left,0.520668029785156,175.356277933121,604.482975950241,607.242975950241,1620917891.34461,1620917891.34605,1620917898.01377,1620917898.01554,1620917900.09788,1620917904.84965,1620917904.8531,1620917905.38607,1620917905.38318,1620918334.50988,1
20,4,1,3,10,7,3,c3_HowFace,1,open mouth?,75,F_086.jpg,1620917727.2669,1620917727.27911,161.317709436417,6.65024256706238,167.986863603592,170.07097410202,0.3,175.673062553406,0.633570194244385,176.309295883179,1,left,0.623629093170166,176.30663274765,604.482975950241,607.242975950241,1620917891.34461,1620917891.34605,1620917898.01377,1620917898.01554,1620917900.09788,1620917905.69997,1620917905.70274,1620917906.3362,1620917906.33354,1620918334.50988,1
20,4,1,3,10,8,3,c3_HowFace,2,open mouth?,79,F_648.jpg,1620917727.2669,1620917727.27911,161.317709436417,6.65024256706238,167.986863603592,170.07097410202,0.3,176.623417606354,0.600222826004028,177.225474824905,3,right,0.590054035186768,177.223640432358,604.482975950241,607.242975950241,1620917891.34461,1620917891.34605,1620917898.01377,1620917898.01554,1620917900.09788,1620917906.65032,1620917906.65286,1620917907.25238,1620917907.25054,1620918334.50988,0
20,4,1,3,11,1,4,c4_HowHand,1,pressing button?,88,H_019.jpg,1620917727.2669,1620917727.27911,177.290332307816,8.5676805973053,185.876868238449,187.960978975296,2.08411073684692,188.111034860611,1.05039167404175,189.163249959946,1,left,1.02028703689575,189.161426534653,604.482975950241,607.242975950241,1620917907.31724,1620917907.31934,1620917915.90377,1620917915.90554,1620917917.98788,1620917918.13794,1620917918.1544,1620917919.19015,1620917919.18833,1620918334.50988,1
20,4,1,3,11,2,4,c4_HowHand,2,pressing button?,87,H_024.jpg,1620917727.2669,1620917727.27911,177.290332307816,8.5676805973053,185.876868238449,187.960978975296,0.3,189.478210439682,0.816972255706787,190.296672811508,3,right,0.796060800552368,190.295182695389,604.482975950241,607.242975950241,1620917907.31724,1620917907.31934,1620917915.90377,1620917915.90554,1620917917.98788,1620917919.50511,1620917919.50697,1620917920.32358,1620917920.32209,1620918334.50988,0
20,4,1,3,11,3,4,c4_HowHand,2,pressing button?,85,H_130.jpg,1620917727.2669,1620917727.27911,177.290332307816,8.5676805973053,185.876868238449,187.960978975296,0.3,190.611967554092,0.783624887466431,191.397110929489,3,right,0.76468300819397,191.395592441559,604.482975950241,607.242975950241,1620917907.31724,1620917907.31934,1620917915.90377,1620917915.90554,1620917917.98788,1620917920.63887,1620917920.64054,1620917921.42402,1620917921.4225,1620918334.50988,0
20,4,1,3,11,4,4,c4_HowHand,1,pressing button?,83,H_502.jpg,1620917727.2669,1620917727.27911,177.290332307816,8.5676805973053,185.876868238449,187.960978975296,0.3,191.712377300262,0.616896629333496,192.343119850159,1,left,0.606432914733887,192.329273929596,604.482975950241,607.242975950241,1620917907.31724,1620917907.31934,1620917915.90377,1620917915.90554,1620917917.98788,1620917921.73928,1620917921.74105,1620917922.37002,1620917922.35618,1620918334.50988,1
20,4,1,3,11,5,4,c4_HowHand,2,pressing button?,81,H_261.jpg,1620917727.2669,1620917727.27911,177.290332307816,8.5676805973053,185.876868238449,187.960978975296,0.3,192.646059741974,0.85031533241272,193.509370794296,3,right,0.840606927871704,193.496375074387,604.482975950241,607.242975950241,1620917907.31724,1620917907.31934,1620917915.90377,1620917915.90554,1620917917.98788,1620917922.67296,1620917922.67474,1620917923.53627,1620917923.52328,1620918334.50988,0
20,4,1,3,11,6,4,c4_HowHand,1,pressing button?,86,H_332.jpg,1620917727.2669,1620917727.27911,177.290332307816,8.5676805973053,185.876868238449,187.960978975296,0.3,193.813160648346,0.700261831283569,194.514448871613,1,left,0.686729907989502,194.51342247963,604.482975950241,607.242975950241,1620917907.31724,1620917907.31934,1620917915.90377,1620917915.90554,1620917917.98788,1620917923.84006,1620917923.84197,1620917924.54135,1620917924.54033,1620918334.50988,1
20,4,1,3,11,7,4,c4_HowHand,1,pressing button?,82,H_126.jpg,1620917727.2669,1620917727.27911,177.290332307816,8.5676805973053,185.876868238449,187.960978975296,0.3,194.830206861496,0.7169349193573,195.548917999268,1,left,0.693933963775635,195.547141780853,604.482975950241,607.242975950241,1620917907.31724,1620917907.31934,1620917915.90377,1620917915.90554,1620917917.98788,1620917924.85711,1620917924.85891,1620917925.57582,1620917925.57405,1620918334.50988,1
20,4,1,3,11,8,4,c4_HowHand,1,pressing button?,84,H_483.jpg,1620917727.2669,1620917727.27911,177.290332307816,8.5676805973053,185.876868238449,187.960978975296,0.3,195.863925924301,0.733607769012451,196.598837842941,1,left,0.719245910644531,196.597533693314,604.482975950241,607.242975950241,1620917907.31724,1620917907.31934,1620917915.90377,1620917915.90554,1620917917.98788,1620917925.89083,1620917925.89332,1620917926.62574,1620917926.62444,1620918334.50988,1
20,4,1,3,12,1,2,c2_WhyHand,1,competing?,9,H_261.jpg,1620917727.2669,1620917727.27911,196.680895557404,6.96698641777039,203.666836013794,205.750946512222,2.08411049842834,205.901002397537,0.766952276229858,206.67547296524,1,left,0.746280193328857,206.667954673767,604.482975950241,607.242975950241,1620917926.7078,1620917926.70936,1620917933.69374,1620917933.69551,1620917935.77785,1620917935.92791,1620917935.93692,1620917936.70238,1620917936.69486,1620918334.50988,1
20,4,1,3,12,2,2,c2_WhyHand,2,competing?,12,H_483.jpg,1620917727.2669,1620917727.27911,196.680895557404,6.96698641777039,203.666836013794,205.750946512222,0.3,206.984740486145,0.933681488037109,207.925813903809,3,right,0.924625873565674,207.918421974182,604.482975950241,607.242975950241,1620917926.7078,1620917926.70936,1620917933.69374,1620917933.69551,1620917935.77785,1620917937.01164,1620917937.01328,1620917937.95272,1620917937.94533,1620918334.50988,0
20,4,1,3,12,3,2,c2_WhyHand,1,competing?,14,H_132.jpg,1620917727.2669,1620917727.27911,196.680895557404,6.96698641777039,203.666836013794,205.750946512222,0.3,208.235204925537,0.733606815338135,208.970519771576,1,left,0.715189933776855,208.968811740875,604.482975950241,607.242975950241,1620917926.7078,1620917926.70936,1620917933.69374,1620917933.69551,1620917935.77785,1620917938.26211,1620917938.26365,1620917938.99742,1620917938.99572,1620918334.50988,1
20,4,1,3,12,4,2,c2_WhyHand,2,competing?,10,H_126.jpg,1620917727.2669,1620917727.27911,196.680895557404,6.96698641777039,203.666836013794,205.750946512222,0.3,209.285597553253,0.933682441711426,210.22609495163,3,right,0.924718856811523,210.219279994965,604.482975950241,607.242975950241,1620917926.7078,1620917926.70936,1620917933.69374,1620917933.69551,1620917935.77785,1620917939.3125,1620917939.31417,1620917940.253,1620917940.24618,1620918334.50988,0
20,4,1,3,12,5,2,c2_WhyHand,1,competing?,16,H_136.jpg,1620917727.2669,1620917727.27911,196.680895557404,6.96698641777039,203.666836013794,205.750946512222,0.3,210.53606461525,0.883662462234497,211.426245918274,1,left,0.873365163803101,211.419727077484,604.482975950241,607.242975950241,1620917926.7078,1620917926.70936,1620917933.69374,1620917933.69551,1620917935.77785,1620917940.56297,1620917940.56427,1620917941.45315,1620917941.44663,1620918334.50988,1
20,4,1,3,12,6,2,c2_WhyHand,2,competing?,11,H_502.jpg,1620917727.2669,1620917727.27911,196.680895557404,6.96698641777039,203.666836013794,205.750946512222,0.3,211.736511220932,1.1004114151001,212.842530002594,3,right,1.0864839553833,212.836922636032,604.482975950241,607.242975950241,1620917926.7078,1620917926.70936,1620917933.69374,1620917933.69551,1620917935.77785,1620917941.76342,1620917941.76557,1620917942.86943,1620917942.86383,1620918334.50988,0
20,4,1,3,12,7,2,c2_WhyHand,1,competing?,13,H_003.jpg,1620917727.2669,1620917727.27911,196.680895557404,6.96698641777039,203.666836013794,205.750946512222,0.3,213.15370677948,0.0166740417480469,213.17606376648,3,right,0.000346899032592773,213.170380821228,604.482975950241,607.242975950241,1620917926.7078,1620917926.70936,1620917933.69374,1620917933.69551,1620917935.77785,1620917943.18061,1620917943.1823,1620917943.20297,1620917943.19728,1620918334.50988,0
20,4,1,3,12,8,2,c2_WhyHand,1,competing?,15,H_170.jpg,1620917727.2669,1620917727.27911,196.680895557404,6.96698641777039,203.666836013794,205.750946512222,0.3,213.487164964676,1.41719460487366,214.909493913651,1,left,1.39932799339294,214.90435956955,604.482975950241,607.242975950241,1620917926.7078,1620917926.70936,1620917933.69374,1620917933.69551,1620917935.77785,1620917943.51407,1620917943.51592,1620917944.9364,1620917944.93126,1620918334.50988,1
20,4,1,3,13,1,1,c1_WhyFace,1,self-doubt?,29,F_544.jpg,1620917727.2669,1620917727.27911,214.971051683426,6.7469482421875,221.723569383621,223.824353208542,2.10078382492065,223.97440861702,0.733606815338135,224.70901679039,1,left,0.718997955322266,224.708015432358,604.482975950241,607.242975950241,1620917944.99796,1620917945.00278,1620917951.75047,1620917951.75292,1620917953.85126,1620917954.00131,1620917954.00294,1620917954.73592,1620917954.73492,1620918334.50988,1
20,4,1,3,13,2,1,c1_WhyFace,2,self-doubt?,27,F_086.jpg,1620917727.2669,1620917727.27911,214.971051683426,6.7469482421875,221.723569383621,223.824353208542,0.3,225.02480052948,0.866989850997925,225.893011798859,3,right,0.850011825561523,225.891790380478,604.482975950241,607.242975950241,1620917944.99796,1620917945.00278,1620917951.75047,1620917951.75292,1620917953.85126,1620917955.0517,1620917955.05349,1620917955.91992,1620917955.91869,1620918334.50988,0
20,4,1,3,13,3,1,c1_WhyFace,1,self-doubt?,25,F_798.jpg,1620917727.2669,1620917727.27911,214.971051683426,6.7469482421875,221.723569383621,223.824353208542,0.3,226.208576192856,0.750279664993286,226.960253944397,1,left,0.730990886688232,226.958855857849,604.482975950241,607.242975950241,1620917944.99796,1620917945.00278,1620917951.75047,1620917951.75292,1620917953.85126,1620917956.23548,1620917956.23727,1620917956.98716,1620917956.98576,1620918334.50988,1
20,4,1,3,13,4,1,c1_WhyFace,1,self-doubt?,26,F_111.jpg,1620917727.2669,1620917727.27911,214.971051683426,6.7469482421875,221.723569383621,223.824353208542,0.3,227.275640239716,0.80029821395874,228.077343931198,1,left,0.78646993637085,228.075938453674,604.482975950241,607.242975950241,1620917944.99796,1620917945.00278,1620917951.75047,1620917951.75292,1620917953.85126,1620917957.30254,1620917957.30381,1620917958.10425,1620917958.10284,1620918334.50988,1
20,4,1,3,13,5,1,c1_WhyFace,2,self-doubt?,31,F_774.jpg,1620917727.2669,1620917727.27911,214.971051683426,6.7469482421875,221.723569383621,223.824353208542,0.3,228.392723312378,0.666915655136108,229.060912837982,3,right,0.647637128829956,229.059638967514,604.482975950241,607.242975950241,1620917944.99796,1620917945.00278,1620917951.75047,1620917951.75292,1620917953.85126,1620917958.41963,1620917958.42141,1620917959.08782,1620917959.08654,1620918334.50988,0
20,4,1,3,13,6,1,c1_WhyFace,1,self-doubt?,28,F_754.jpg,1620917727.2669,1620917727.27911,214.971051683426,6.7469482421875,221.723569383621,223.824353208542,0.3,229.376423587799,0.616896390914917,229.995073785782,1,left,0.602046966552734,229.993319978714,604.482975950241,607.242975950241,1620917944.99796,1620917945.00278,1620917951.75047,1620917951.75292,1620917953.85126,1620917959.40333,1620917959.40514,1620917960.02198,1620917960.02022,1620918334.50988,1
20,4,1,3,13,7,1,c1_WhyFace,2,self-doubt?,32,F_128.jpg,1620917727.2669,1620917727.27911,214.971051683426,6.7469482421875,221.723569383621,223.824353208542,0.3,230.310104598999,1.03371906280518,231.344710817337,3,right,1.02393889427185,231.343823661804,604.482975950241,607.242975950241,1620917944.99796,1620917945.00278,1620917951.75047,1620917951.75292,1620917953.85126,1620917960.33701,1620917960.33872,1620917961.37161,1620917961.37073,1620918334.50988,0
20,4,1,3,13,8,1,c1_WhyFace,1,self-doubt?,30,F_584.jpg,1620917727.2669,1620917727.27911,214.971051683426,6.7469482421875,221.723569383621,223.824353208542,0.3,231.660608997345,0.850316524505615,232.512646903992,1,left,0.836558818817139,232.510925521851,604.482975950241,607.242975950241,1620917944.99796,1620917945.00278,1620917951.75047,1620917951.75292,1620917953.85126,1620917961.68751,1620917961.68937,1620917962.53955,1620917962.53783,1620918334.50988,1
20,4,1,3,14,1,3,c3_HowFace,1,looking at camera?,64,F_128.jpg,1620917727.2669,1620917727.27911,232.577616682053,8.19435024261475,240.780676116943,242.881459703445,2.10078358650208,243.031515827179,0.850316286087036,243.89261387825,1,left,0.82794713973999,243.881832113266,604.482975950241,607.242975950241,1620917962.60452,1620917962.60606,1620917970.80758,1620917970.82031,1620917972.90836,1620917973.05842,1620917973.06977,1620917973.91952,1620917973.90874,1620918334.50988,1
20,4,1,3,14,2,3,c3_HowFace,1,looking at camera?,60,F_618.jpg,1620917727.2669,1620917727.27911,232.577616682053,8.19435024261475,240.780676116943,242.881459703445,0.3,244.198617925644,0.533531665802002,244.742763986588,1,left,0.52236795425415,244.732149591446,604.482975950241,607.242975950241,1620917962.60452,1620917962.60606,1620917970.80758,1620917970.82031,1620917972.90836,1620917974.22552,1620917974.22732,1620917974.76967,1620917974.75905,1620918334.50988,1
20,4,1,3,14,3,3,c3_HowFace,1,looking at camera?,62,F_598.jpg,1620917727.2669,1620917727.27911,232.577616682053,8.19435024261475,240.780676116943,242.881459703445,0.3,245.04893445015,0.633569240570068,245.692885866165,1,left,0.620080947875977,245.68250369072,604.482975950241,607.242975950241,1620917962.60452,1620917962.60606,1620917970.80758,1620917970.82031,1620917972.90836,1620917975.07584,1620917975.07773,1620917975.71979,1620917975.70941,1620918334.50988,1
20,4,1,3,14,4,3,c3_HowFace,2,looking at camera?,63,F_743.jpg,1620917727.2669,1620917727.27911,232.577616682053,8.19435024261475,240.780676116943,242.881459703445,0.3,245.999290218353,0.650241613388062,246.650890817642,3,right,0.633298873901367,246.649531831741,604.482975950241,607.242975950241,1620917962.60452,1620917962.60606,1620917970.80758,1620917970.82031,1620917972.90836,1620917976.02619,1620917976.02816,1620917976.67779,1620917976.67644,1620918334.50988,0
20,4,1,3,14,5,3,c3_HowFace,1,looking at camera?,61,F_774.jpg,1620917727.2669,1620917727.27911,232.577616682053,8.19435024261475,240.780676116943,242.881459703445,0.3,246.966316690445,0.583550930023193,247.55125998497,1,left,0.56580114364624,247.549867620468,604.482975950241,607.242975950241,1620917962.60452,1620917962.60606,1620917970.80758,1620917970.82031,1620917972.90836,1620917976.99322,1620917976.99494,1620917977.57816,1620917977.57677,1620918334.50988,1
20,4,1,3,14,6,3,c3_HowFace,2,looking at camera?,57,F_582.jpg,1620917727.2669,1620917727.27911,232.577616682053,8.19435024261475,240.780676116943,242.881459703445,0.3,247.86665271759,1.05039024353027,248.918692817688,1,left,1.03204202651978,248.917042961121,604.482975950241,607.242975950241,1620917962.60452,1620917962.60606,1620917970.80758,1620917970.82031,1620917972.90836,1620917977.89356,1620917977.89543,1620917978.9456,1620917978.94395,1620918334.50988,0
20,4,1,3,14,7,3,c3_HowFace,2,looking at camera?,58,F_754.jpg,1620917727.2669,1620917727.27911,232.577616682053,8.19435024261475,240.780676116943,242.881459703445,0.3,249.233829011917,0.866989135742188,250.102643957138,3,right,0.84228515625,250.100818147659,604.482975950241,607.242975950241,1620917962.60452,1620917962.60606,1620917970.80758,1620917970.82031,1620917972.90836,1620917979.26073,1620917979.26285,1620917980.12955,1620917980.12772,1620918334.50988,0
20,4,1,3,14,8,3,c3_HowFace,1,looking at camera?,59,F_129.jpg,1620917727.2669,1620917727.27911,232.577616682053,8.19435024261475,240.780676116943,242.881459703445,0.3,250.417603960037,0.850316524505615,251.27601193428,1,left,0.837010860443115,251.267920484543,604.482975950241,607.242975950241,1620917962.60452,1620917962.60606,1620917970.80758,1620917970.82031,1620917972.90836,1620917980.44451,1620917980.44627,1620917981.30292,1620917981.29482,1620918334.50988,1
20,4,1,3,15,1,4,c4_HowHand,1,both hands?,123,H_167.jpg,1620917727.2669,1620917727.27911,251.351284971237,8.21069693565369,259.571016778946,261.671800842285,2.10078406333923,261.821856966019,1.35050272941589,263.176208963394,1,left,1.32984519004822,263.172359695435,604.482975950241,607.242975950241,1620917981.37819,1620917981.37976,1620917989.59792,1620917989.60303,1620917991.6987,1620917991.84876,1620917991.85329,1620917993.20311,1620917993.19926,1620918334.50988,1
20,4,1,3,15,2,4,c4_HowHand,2,both hands?,121,H_091.jpg,1620917727.2669,1620917727.27911,251.351284971237,8.21069693565369,259.571016778946,261.671800842285,0.3,263.48914431572,0.900336503982544,264.392166843414,3,right,0.880348920822144,264.389480819702,604.482975950241,607.242975950241,1620917981.37819,1620917981.37976,1620917989.59792,1620917989.60303,1620917991.6987,1620917993.51605,1620917993.51978,1620917994.41907,1620917994.41638,1620918334.50988,0
20,4,1,3,15,3,4,c4_HowHand,2,both hands?,125,H_627.jpg,1620917727.2669,1620917727.27911,251.351284971237,8.21069693565369,259.571016778946,261.671800842285,0.3,264.706265439987,1.00037384033203,265.708724966049,1,left,0.989889144897461,265.706639280319,604.482975950241,607.242975950241,1620917981.37819,1620917981.37976,1620917989.59792,1620917989.60303,1620917991.6987,1620917994.73317,1620917994.73636,1620917995.73563,1620917995.73354,1620918334.50988,0
20,4,1,3,15,4,4,c4_HowHand,1,both hands?,128,H_027.jpg,1620917727.2669,1620917727.27911,251.351284971237,8.21069693565369,259.571016778946,261.671800842285,0.3,266.023424139023,1.3838484287262,267.409359922409,1,left,1.36628103256226,267.407272567749,604.482975950241,607.242975950241,1620917981.37819,1620917981.37976,1620917989.59792,1620917989.60303,1620917991.6987,1620917996.05033,1620917996.05297,1620917997.43626,1620917997.43418,1620918334.50988,1
20,4,1,3,15,5,4,c4_HowHand,1,both hands?,122,H_111.jpg,1620917727.2669,1620917727.27911,251.351284971237,8.21069693565369,259.571016778946,261.671800842285,0.3,267.724058141708,0.816971063613892,268.542770853043,1,left,0.794840812683105,268.541029205322,604.482975950241,607.242975950241,1620917981.37819,1620917981.37976,1620917989.59792,1620917989.60303,1620917991.6987,1620917997.75096,1620917997.75297,1620917998.56967,1620917998.56793,1620918334.50988,1
20,4,1,3,15,6,4,c4_HowHand,2,both hands?,126,H_159.jpg,1620917727.2669,1620917727.27911,251.351284971237,8.21069693565369,259.571016778946,261.671800842285,0.3,268.857812633514,1.03371953964233,269.892546882629,3,right,1.02002096176147,269.891532173157,604.482975950241,607.242975950241,1620917981.37819,1620917981.37976,1620917989.59792,1620917989.60303,1620917991.6987,1620917998.88472,1620917998.88627,1620917999.91945,1620917999.91844,1620918334.50988,0
20,4,1,3,15,7,4,c4_HowHand,1,both hands?,124,H_581.jpg,1620917727.2669,1620917727.27911,251.351284971237,8.21069693565369,259.571016778946,261.671800842285,0.3,270.208317747116,1.1337559223175,271.343127002716,1,left,1.11933898925781,271.342073669434,604.482975950241,607.242975950241,1620917981.37819,1620917981.37976,1620917989.59792,1620917989.60303,1620917991.6987,1620918000.23522,1620918000.23688,1620918001.37003,1620918001.36898,1620918334.50988,1
20,4,1,3,15,8,4,c4_HowHand,1,both hands?,127,H_349.jpg,1620917727.2669,1620917727.27911,251.351284971237,8.21069693565369,259.571016778946,261.671800842285,0.3,271.658858766556,1.05039048194885,272.710344781876,1,left,1.02964091300964,272.709249248505,604.482975950241,607.242975950241,1620917981.37819,1620917981.37976,1620917989.59792,1620917989.60303,1620917991.6987,1620918001.68576,1620918001.68729,1620918002.73725,1620918002.73615,1620918334.50988,1
20,4,1,3,16,1,2,c2_WhyHand,1,self-protection?,89,H_443.jpg,1620917727.2669,1620917727.27911,272.775941362381,5.57595944404602,278.361357679367,280.462140312195,2.10078263282776,280.612196674347,0.917009353637695,281.530694952011,1,left,0.905014991760254,281.529206027985,604.482975950241,607.242975950241,1620918002.80285,1620918002.80409,1620918008.38826,1620918008.39003,1620918010.48904,1620918010.6391,1620918010.64108,1620918011.5576,1620918011.55611,1620918334.50988,1
20,4,1,3,16,2,2,c2_WhyHand,2,self-protection?,90,H_006.jpg,1620917727.2669,1620917727.27911,272.775941362381,5.57595944404602,278.361357679367,280.462140312195,0.3,281.845990886688,1.16710209846497,283.014889945984,3,right,1.15186285972595,283.013092985153,604.482975950241,607.242975950241,1620918002.80285,1620918002.80409,1620918008.38826,1620918008.39003,1620918010.48904,1620918011.8729,1620918011.87443,1620918013.04179,1620918013.04,1620918334.50988,0
20,4,1,3,16,3,2,c2_WhyHand,1,self-protection?,91,H_581.jpg,1620917727.2669,1620917727.27911,272.775941362381,5.57595944404602,278.361357679367,280.462140312195,0.3,283.32987736702,0.816971063613892,284.148309936523,1,left,0.793941020965576,284.146848430634,604.482975950241,607.242975950241,1620918002.80285,1620918002.80409,1620918008.38826,1620918008.39003,1620918010.48904,1620918013.35678,1620918013.35841,1620918014.17521,1620918014.17375,1620918334.50988,1
20,4,1,3,16,4,2,c2_WhyHand,2,self-protection?,92,H_532.jpg,1620917727.2669,1620917727.27911,272.775941362381,5.57595944404602,278.361357679367,280.462140312195,0.3,284.463633766174,0.0166716575622559,284.482178916931,1,left,0.000336885452270508,284.480305423737,604.482975950241,607.242975950241,1620918002.80285,1620918002.80409,1620918008.38826,1620918008.39003,1620918010.48904,1620918014.49054,1620918014.49249,1620918014.50908,1620918014.50721,1620918334.50988,0
20,4,1,3,16,5,2,c2_WhyHand,1,self-protection?,96,H_027.jpg,1620917727.2669,1620917727.27911,272.775941362381,5.57595944404602,278.361357679367,280.462140312195,0.3,284.797090520859,1.31715798377991,286.125521888733,1,left,1.30823802947998,286.114248504639,604.482975950241,607.242975950241,1620918002.80285,1620918002.80409,1620918008.38826,1620918008.39003,1620918010.48904,1620918014.82399,1620918014.82592,1620918016.15243,1620918016.14115,1620918334.50988,1
20,4,1,3,16,6,2,c2_WhyHand,1,self-protection?,93,H_038.jpg,1620917727.2669,1620917727.27911,272.775941362381,5.57595944404602,278.361357679367,280.462140312195,0.3,286.431033601761,1.16710257530212,287.599419822693,1,left,1.15197205543518,287.598136177063,604.482975950241,607.242975950241,1620918002.80285,1620918002.80409,1620918008.38826,1620918008.39003,1620918010.48904,1620918016.45794,1620918016.4595,1620918017.62632,1620918017.62504,1620918334.50988,1
20,4,1,3,16,7,2,c2_WhyHand,2,self-protection?,95,H_332.jpg,1620917727.2669,1620917727.27911,272.775941362381,5.57595944404602,278.361357679367,280.462140312195,0.3,287.914920797348,1.11708283424377,289.042716970444,3,right,1.10642719268799,289.032003631592,604.482975950241,607.242975950241,1620918002.80285,1620918002.80409,1620918008.38826,1620918008.39003,1620918010.48904,1620918017.94182,1620918017.94341,1620918019.06962,1620918019.05891,1620918334.50988,0
20,4,1,3,16,8,2,c2_WhyHand,1,self-protection?,94,H_189.jpg,1620917727.2669,1620917727.27911,272.775941362381,5.57595944404602,278.361357679367,280.462140312195,0.3,289.348788967133,0.816970586776733,290.175510873795,1,left,0.804992914199829,290.165759553909,604.482975950241,607.242975950241,1620918002.80285,1620918002.80409,1620918008.38826,1620918008.39003,1620918010.48904,1620918019.37569,1620918019.37739,1620918020.20241,1620918020.19266,1620918334.50988,1
20,4,1,3,17,1,3,c3_HowFace,1,smiling?,118,F_759.jpg,1620917727.2669,1620917727.27911,290.249124517441,9.58284735679626,299.836032381058,301.936816682816,2.10078430175781,302.086871376038,1.13375687599182,303.226166000366,1,left,1.11425590515137,303.220628252029,604.482975950241,607.242975950241,1620918020.27603,1620918020.27761,1620918029.86294,1620918029.86947,1620918031.96372,1620918032.11378,1620918032.1203,1620918033.25307,1620918033.24753,1620918334.50988,1
20,4,1,3,17,2,3,c3_HowFace,2,smiling?,114,F_412.jpg,1620917727.2669,1620917727.27911,290.249124517441,9.58284735679626,299.836032381058,301.936816682816,0.3,303.537413349152,0.733606100082397,304.275539865494,3,right,0.717127084732056,304.271019449234,604.482975950241,607.242975950241,1620918020.27603,1620918020.27761,1620918029.86294,1620918029.86947,1620918031.96372,1620918033.56432,1620918033.56609,1620918034.30244,1620918034.29792,1620918334.50988,0
20,4,1,3,17,3,3,c3_HowFace,1,smiling?,117,F_593.jpg,1620917727.2669,1620917727.27911,290.249124517441,9.58284735679626,299.836032381058,301.936816682816,0.3,304.587804546356,0.683587789535522,305.275795927048,1,left,0.665657043457031,305.271392335892,604.482975950241,607.242975950241,1620918020.27603,1620918020.27761,1620918029.86294,1620918029.86947,1620918031.96372,1620918034.61471,1620918034.61652,1620918035.3027,1620918035.2983,1620918334.50988,1
20,4,1,3,17,4,3,c3_HowFace,2,smiling?,113,F_712.jpg,1620917727.2669,1620917727.27911,290.249124517441,9.58284735679626,299.836032381058,301.936816682816,0.3,305.588177194595,0.833644390106201,306.426165809631,3,right,0.817330121994019,306.421821584702,604.482975950241,607.242975950241,1620918020.27603,1620918020.27761,1620918029.86294,1620918029.86947,1620918031.96372,1620918035.61508,1620918035.61983,1620918036.45307,1620918036.44873,1620918334.50988,0
20,4,1,3,17,5,3,c3_HowFace,1,smiling?,115,F_695.jpg,1620917727.2669,1620917727.27911,290.249124517441,9.58284735679626,299.836032381058,301.936816682816,0.3,306.738606204987,0.616897344589233,307.359305849075,1,left,0.605423927307129,307.355503549576,604.482975950241,607.242975950241,1620918020.27603,1620918020.27761,1620918029.86294,1620918029.86947,1620918031.96372,1620918036.76551,1620918036.76968,1620918037.38621,1620918037.38241,1620918334.50988,1
20,4,1,3,17,6,3,c3_HowFace,1,smiling?,119,F_139.jpg,1620917727.2669,1620917727.27911,290.249124517441,9.58284735679626,299.836032381058,301.936816682816,0.3,307.672288646698,0.600223779678345,308.273551931381,1,left,0.575328826904297,308.272512426376,604.482975950241,607.242975950241,1620918020.27603,1620918020.27761,1620918029.86294,1620918029.86947,1620918031.96372,1620918037.69919,1620918037.70312,1620918038.30046,1620918038.29942,1620918334.50988,1
20,4,1,3,17,7,3,c3_HowFace,1,smiling?,116,F_083.jpg,1620917727.2669,1620917727.27911,290.249124517441,9.58284735679626,299.836032381058,301.936816682816,0.3,308.589296569824,0.650242567062378,309.242819776535,1,left,0.633995056152344,309.239539136887,604.482975950241,607.242975950241,1620918020.27603,1620918020.27761,1620918029.86294,1620918029.86947,1620918031.96372,1620918038.6162,1620918038.61938,1620918039.26972,1620918039.26644,1620918334.50988,1
20,4,1,3,17,8,3,c3_HowFace,2,smiling?,120,F_758.jpg,1620917727.2669,1620917727.27911,290.249124517441,9.58284735679626,299.836032381058,301.936816682816,0.3,309.55632399559,0.850318193435669,310.40955280304,3,right,0.831645011901855,310.406642189026,604.482975950241,607.242975950241,1620918020.27603,1620918020.27761,1620918029.86294,1620918029.86947,1620918031.96372,1620918039.58323,1620918039.58632,1620918040.43646,1620918040.43355,1620918334.50988,0
20,4,1,3,18,1,1,c1_WhyFace,1,admiring?,1,F_593.jpg,1620917727.2669,1620917727.27911,310.490005960464,7.13192701339722,317.626000394821,319.726783981323,2.10078358650208,319.87683962822,1.15042948722839,321.042822828293,1,left,1.12841892242432,321.027269115448,604.482975950241,607.242975950241,1620918040.51691,1620918040.51968,1620918047.6529,1620918047.67033,1620918049.75369,1620918049.90374,1620918049.91986,1620918051.06973,1620918051.05417,1620918334.50988,1
20,4,1,3,18,2,1,c1_WhyFace,2,admiring?,2,F_129.jpg,1620917727.2669,1620917727.27911,310.490005960464,7.13192701339722,317.626000394821,319.726783981323,0.3,321.344053974152,0.700260877609253,322.04596280098,1,left,0.680612802505493,322.044314851761,604.482975950241,607.242975950241,1620918040.51691,1620918040.51968,1620918047.6529,1620918047.67033,1620918049.75369,1620918051.37096,1620918051.37276,1620918052.07287,1620918052.07122,1620918334.50988,0
20,4,1,3,18,3,1,c1_WhyFace,1,admiring?,5,F_759.jpg,1620917727.2669,1620917727.27911,310.490005960464,7.13192701339722,317.626000394821,319.726783981323,0.3,322.361100187302,0.733606576919556,323.096362819672,1,left,0.717819929122925,323.094706764221,604.482975950241,607.242975950241,1620918040.51691,1620918040.51968,1620918047.6529,1620918047.67033,1620918049.75369,1620918052.388,1620918052.39012,1620918053.12327,1620918053.12161,1620918334.50988,1
20,4,1,3,18,4,1,c1_WhyFace,2,admiring?,6,F_692.jpg,1620917727.2669,1620917727.27911,310.490005960464,7.13192701339722,317.626000394821,319.726783981323,0.3,323.411490907669,0.733606576919556,324.159500827789,1,left,0.726215124130249,324.145097484589,604.482975950241,607.242975950241,1620918040.51691,1620918040.51968,1620918047.6529,1620918047.67033,1620918049.75369,1620918053.4384,1620918053.44017,1620918054.1864,1620918054.172,1620918334.50988,0
20,4,1,3,18,5,1,c1_WhyFace,1,admiring?,4,F_779.jpg,1620917727.2669,1620917727.27911,310.490005960464,7.13192701339722,317.626000394821,319.726783981323,0.3,324.461882581711,0.550204992294312,325.013486852646,1,left,0.530730962753296,325.012087574005,604.482975950241,607.242975950241,1620918040.51691,1620918040.51968,1620918047.6529,1620918047.67033,1620918049.75369,1620918054.48879,1620918054.49054,1620918055.04039,1620918055.03899,1620918334.50988,1
20,4,1,3,18,6,1,c1_WhyFace,1,admiring?,8,F_590.jpg,1620917727.2669,1620917727.27911,310.490005960464,7.13192701339722,317.626000394821,319.726783981323,0.3,325.328872909546,0.866990327835083,326.196951856613,1,left,0.844669818878174,326.195863237381,604.482975950241,607.242975950241,1620918040.51691,1620918040.51968,1620918047.6529,1620918047.67033,1620918049.75369,1620918055.35578,1620918055.35771,1620918056.22386,1620918056.22277,1620918334.50988,1
20,4,1,3,18,7,1,c1_WhyFace,1,admiring?,7,F_648.jpg,1620917727.2669,1620917727.27911,310.490005960464,7.13192701339722,317.626000394821,319.726783981323,0.3,326.512647619247,0.733607053756714,327.247633924484,1,left,0.71432900428772,327.246254673004,604.482975950241,607.242975950241,1620918040.51691,1620918040.51968,1620918047.6529,1620918047.67033,1620918049.75369,1620918056.53955,1620918056.54149,1620918057.27454,1620918057.27316,1620918334.50988,1
20,4,1,3,18,8,1,c1_WhyFace,2,admiring?,3,F_110.jpg,1620917727.2669,1620917727.27911,310.490005960464,7.13192701339722,317.626000394821,319.726783981323,0.3,327.563039770126,0.816970586776733,328.381005992889,3,right,0.797033071517944,328.380010356903,604.482975950241,607.242975950241,1620918040.51691,1620918040.51968,1620918047.6529,1620918047.67033,1620918049.75369,1620918057.58994,1620918057.59142,1620918058.40791,1620918058.40691,1620918334.50988,0
20,4,1,3,19,1,2,c2_WhyHand,1,competing?,9,H_261.jpg,1620917727.2669,1620917727.27911,328.446701993942,7.06545686721802,335.516004314423,337.616788854599,2.10078454017639,337.766844978333,0.933680534362793,338.701629867554,1,left,0.906245946884155,338.700525512695,604.482975950241,607.242975950241,1620918058.47361,1620918058.48614,1620918065.54291,1620918065.55331,1620918067.64369,1620918067.79375,1620918067.80336,1620918068.72853,1620918068.72743,1620918334.50988,1
20,4,1,3,19,2,2,c2_WhyHand,1,competing?,15,H_170.jpg,1620917727.2669,1620917727.27911,328.446701993942,7.06545686721802,335.516004314423,337.616788854599,0.3,339.017311086655,0.650242805480957,339.676019897461,1,left,0.64323616027832,339.667553892136,604.482975950241,607.242975950241,1620918058.47361,1620918058.48614,1620918065.54291,1620918065.55331,1620918067.64369,1620918069.04422,1620918069.04566,1620918069.70292,1620918069.69446,1620918334.50988,1
20,4,1,3,19,3,2,c2_WhyHand,2,competing?,12,H_483.jpg,1620917727.2669,1620917727.27911,328.446701993942,7.06545686721802,335.516004314423,337.616788854599,0.3,339.984338274002,0.78362512588501,340.776208868027,3,right,0.77471399307251,340.767963399887,604.482975950241,607.242975950241,1620918058.47361,1620918058.48614,1620918065.54291,1620918065.55331,1620918067.64369,1620918070.01124,1620918070.0129,1620918070.80311,1620918070.79487,1620918334.50988,0
20,4,1,3,19,4,2,c2_WhyHand,1,competing?,14,H_132.jpg,1620917727.2669,1620917727.27911,328.446701993942,7.06545686721802,335.516004314423,337.616788854599,0.3,341.084748735428,0.750280141830444,341.842306842804,1,left,0.74260687828064,341.835028877258,604.482975950241,607.242975950241,1620918058.47361,1620918058.48614,1620918065.54291,1620918065.55331,1620918067.64369,1620918071.11165,1620918071.11344,1620918071.86921,1620918071.86193,1620918334.50988,1
20,4,1,3,19,5,2,c2_WhyHand,1,competing?,16,H_136.jpg,1620917727.2669,1620917727.27911,328.446701993942,7.06545686721802,335.516004314423,337.616788854599,0.3,342.151813020706,0.683588743209839,342.842734804153,1,left,0.667465925216675,342.835401763916,604.482975950241,607.242975950241,1620918058.47361,1620918058.48614,1620918065.54291,1620918065.55331,1620918067.64369,1620918072.17872,1620918072.18044,1620918072.86964,1620918072.86231,1620918334.50988,1
20,4,1,3,19,6,2,c2_WhyHand,1,competing?,13,H_003.jpg,1620917727.2669,1620917727.27911,328.446701993942,7.06545686721802,335.516004314423,337.616788854599,0.3,343.152185907364,0.616896152496338,343.775479784012,1,left,0.60480809211731,343.76908205986,604.482975950241,607.242975950241,1620918058.47361,1620918058.48614,1620918065.54291,1620918065.55331,1620918067.64369,1620918073.17909,1620918073.18103,1620918073.80238,1620918073.79599,1620918334.50988,1
20,4,1,3,19,7,2,c2_WhyHand,2,competing?,10,H_126.jpg,1620917727.2669,1620917727.27911,328.446701993942,7.06545686721802,335.516004314423,337.616788854599,0.3,344.085867156982,0.800299406051636,344.892817964554,3,right,0.786466121673584,344.886166563034,604.482975950241,607.242975950241,1620918058.47361,1620918058.48614,1620918065.54291,1620918065.55331,1620918067.64369,1620918074.11277,1620918074.1145,1620918074.91972,1620918074.91307,1620918334.50988,0
20,4,1,3,19,8,2,c2_WhyHand,2,competing?,11,H_502.jpg,1620917727.2669,1620917727.27911,328.446701993942,7.06545686721802,335.516004314423,337.616788854599,0.3,345.202951898575,1.01704478263855,346.225498905182,3,right,0.999377012252808,346.219996681213,604.482975950241,607.242975950241,1620918058.47361,1620918058.48614,1620918065.54291,1620918065.55331,1620918067.64369,1620918075.22986,1620918075.23217,1620918076.2524,1620918076.2469,1620918334.50988,0
20,4,1,3,20,1,4,c4_HowHand,1,reaching?,111,H_003.jpg,1620917727.2669,1620917727.27911,346.303361883163,10.6885440349579,357.007354249954,359.108136405945,2.1007821559906,359.258192529678,1.05039286613464,360.309535970688,1,left,1.04268097877502,360.308585395813,604.482975950241,607.242975950241,1620918076.33027,1620918076.33219,1620918087.03426,1620918087.03673,1620918089.13504,1620918089.2851,1620918089.28694,1620918090.33644,1620918090.33549,1620918334.50988,1
20,4,1,3,20,2,4,c4_HowHand,1,reaching?,110,H_364.jpg,1620917727.2669,1620917727.27911,346.303361883163,10.6885440349579,357.007354249954,359.108136405945,0.3,360.625369539261,0.783624887466431,361.410279979706,1,left,0.765200853347778,361.408994426727,604.482975950241,607.242975950241,1620918076.33027,1620918076.33219,1620918087.03426,1620918087.03673,1620918089.13504,1620918090.65227,1620918090.65411,1620918091.43718,1620918091.4359,1620918334.50988,1
20,4,1,3,20,3,4,c4_HowHand,2,reaching?,108,H_532.jpg,1620917727.2669,1620917727.27911,346.303361883163,10.6885440349579,357.007354249954,359.108136405945,0.3,361.725779285431,1.18377542495728,362.910796871185,3,right,1.1655650138855,362.909554710388,604.482975950241,607.242975950241,1620918076.33027,1620918076.33219,1620918087.03426,1620918087.03673,1620918089.13504,1620918091.75268,1620918091.75441,1620918092.9377,1620918092.93646,1620918334.50988,0
20,4,1,3,20,4,4,c4_HowHand,1,reaching?,106,H_006.jpg,1620917727.2669,1620917727.27911,346.303361883163,10.6885440349579,357.007354249954,359.108136405945,0.3,363.226338853836,0.0166735649108887,363.244454851151,3,right,0.000300168991088867,363.243012418747,604.482975950241,607.242975950241,1620918076.33027,1620918076.33219,1620918087.03426,1620918087.03673,1620918089.13504,1620918093.25324,1620918093.25477,1620918093.27136,1620918093.26992,1620918334.50988,0
20,4,1,3,20,5,4,c4_HowHand,2,reaching?,105,H_438.jpg,1620917727.2669,1620917727.27911,346.303361883163,10.6885440349579,357.007354249954,359.108136405945,0.3,363.559796323776,1.71730732917786,365.316991796494,1,left,1.73490900993347,365.277103652954,604.482975950241,607.242975950241,1620918076.33027,1620918076.33219,1620918087.03426,1620918087.03673,1620918089.13504,1620918093.5867,1620918093.58828,1620918095.3439,1620918095.30401,1620918334.50988,0
20,4,1,3,20,6,4,c4_HowHand,1,reaching?,107,H_007.jpg,1620917727.2669,1620917727.27911,346.303361883163,10.6885440349579,357.007354249954,359.108136405945,0.3,365.593888988495,0.0166726112365723,365.612322797775,1,left,0.00029301643371582,365.610561599731,604.482975950241,607.242975950241,1620918076.33027,1620918076.33219,1620918087.03426,1620918087.03673,1620918089.13504,1620918095.62079,1620918095.62247,1620918095.63923,1620918095.63747,1620918334.50988,1
20,4,1,3,20,7,4,c4_HowHand,1,reaching?,109,H_474.jpg,1620917727.2669,1620917727.27911,346.303361883163,10.6885440349579,357.007354249954,359.108136405945,0.3,365.927346935272,1.71730637550354,367.663971891403,1,left,1.71595687866211,367.644653310776,604.482975950241,607.242975950241,1620918076.33027,1620918076.33219,1620918087.03426,1620918087.03673,1620918089.13504,1620918095.95425,1620918095.95619,1620918097.69088,1620918097.67156,1620918334.50988,1
20,4,1,3,20,8,4,c4_HowHand,2,reaching?,112,H_132.jpg,1620917727.2669,1620917727.27911,346.303361883163,10.6885440349579,357.007354249954,359.108136405945,0.3,367.961438407898,1.40052199363708,369.363695850372,3,right,1.38691902160645,369.361960401535,604.482975950241,607.242975950241,1620918076.33027,1620918076.33219,1620918087.03426,1620918087.03673,1620918089.13504,1620918097.98834,1620918097.99006,1620918099.3906,1620918099.38886,1620918334.50988,0
20,4,1,3,21,1,3,c3_HowFace,1,open mouth?,73,F_403.jpg,1620917727.2669,1620917727.27911,369.445325126648,5.38664674758911,374.84733962059,376.948122968674,2.1007833480835,377.098179092407,0.933680057525635,378.042306890488,1,left,0.924470901489258,378.031859149933,604.482975950241,607.242975950241,1620918099.47223,1620918099.47381,1620918104.87424,1620918104.87622,1620918106.97503,1620918107.12508,1620918107.12688,1620918108.06921,1620918108.05876,1620918334.50988,1
20,4,1,3,21,2,3,c3_HowFace,2,open mouth?,79,F_648.jpg,1620917727.2669,1620917727.27911,369.445325126648,5.38664674758911,374.84733962059,376.948122968674,0.3,378.348645915985,0.716932773590088,379.075580825806,3,right,0.706974029541016,379.065578689575,604.482975950241,607.242975950241,1620918099.47223,1620918099.47381,1620918104.87424,1620918104.87622,1620918106.97503,1620918108.37555,1620918108.37757,1620918109.10248,1620918109.09248,1620918334.50988,0
20,4,1,3,21,3,3,c3_HowFace,1,open mouth?,74,F_776.jpg,1620917727.2669,1620917727.27911,369.445325126648,5.38664674758911,374.84733962059,376.948122968674,0.3,379.38236330986,0.766953229904175,380.158885946274,1,left,0.760163068771362,380.149316539764,604.482975950241,607.242975950241,1620918099.47223,1620918099.47381,1620918104.87424,1620918104.87622,1620918106.97503,1620918109.40927,1620918109.41104,1620918110.18579,1620918110.17622,1620918334.50988,1
20,4,1,3,21,4,3,c3_HowFace,2,open mouth?,77,F_584.jpg,1620917727.2669,1620917727.27911,369.445325126648,5.38664674758911,374.84733962059,376.948122968674,0.3,380.466101636887,0.750278472900391,381.217877855301,3,right,0.72786808013916,381.216380109787,604.482975950241,607.242975950241,1620918099.47223,1620918099.47381,1620918104.87424,1620918104.87622,1620918106.97503,1620918110.49301,1620918110.49437,1620918111.24478,1620918111.24328,1620918334.50988,0
20,4,1,3,21,5,3,c3_HowFace,1,open mouth?,80,F_844.jpg,1620917727.2669,1620917727.27911,369.445325126648,5.38664674758911,374.84733962059,376.948122968674,0.3,381.533165922165,0.883662939071655,382.426190843582,1,left,0.868468999862671,382.416828861237,604.482975950241,607.242975950241,1620918099.47223,1620918099.47381,1620918104.87424,1620918104.87622,1620918106.97503,1620918111.56007,1620918111.56191,1620918112.45309,1620918112.44373,1620918334.50988,1
20,4,1,3,21,6,3,c3_HowFace,1,open mouth?,78,F_692.jpg,1620917727.2669,1620917727.27911,369.445325126648,5.38664674758911,374.84733962059,376.948122968674,0.3,382.733613243103,0.917009115219116,383.659625997543,1,left,0.903226137161255,383.650622358322,604.482975950241,607.242975950241,1620918099.47223,1620918099.47381,1620918104.87424,1620918104.87622,1620918106.97503,1620918112.76052,1620918112.76238,1620918113.68653,1620918113.67753,1620918334.50988,1
20,4,1,3,21,7,3,c3_HowFace,1,open mouth?,75,F_086.jpg,1620917727.2669,1620917727.27911,369.445325126648,5.38664674758911,374.84733962059,376.948122968674,0.3,383.96740650177,0.733607053756714,384.708876838684,1,left,0.726424932479858,384.701013555527,604.482975950241,607.242975950241,1620918099.47223,1620918099.47381,1620918104.87424,1620918104.87622,1620918106.97503,1620918113.99431,1620918113.99599,1620918114.73578,1620918114.72792,1620918334.50988,1
20,4,1,3,21,8,3,c3_HowFace,2,open mouth?,76,F_544.jpg,1620917727.2669,1620917727.27911,369.445325126648,5.38664674758911,374.84733962059,376.948122968674,0.3,385.01779841423,0.883662939071655,385.90311788559,3,right,0.861507892608643,385.901461353302,604.482975950241,607.242975950241,1620918099.47223,1620918099.47381,1620918104.87424,1620918104.87622,1620918106.97503,1620918115.0447,1620918115.04654,1620918115.93002,1620918115.92837,1620918334.50988,0
20,4,1,3,22,1,1,c1_WhyFace,1,argument?,42,F_403.jpg,1620917727.2669,1620917727.27911,385.984825839996,7.52315807342529,393.520969142914,395.621754398346,2.10078525543213,395.771809568405,0.900334358215332,396.675381889343,1,left,0.890307188034058,396.67214392662,604.482975950241,607.242975950241,1620918116.01173,1620918116.01958,1620918123.54787,1620918123.55348,1620918125.64866,1620918125.79871,1620918125.80333,1620918126.70229,1620918126.69905,1620918334.50988,1
20,4,1,3,22,2,1,c1_WhyFace,2,argument?,46,F_844.jpg,1620917727.2669,1620917727.27911,385.984825839996,7.52315807342529,393.520969142914,395.621754398346,0.3,396.988930454254,0.900335073471069,397.892132987976,3,right,0.890778064727783,397.889265527725,604.482975950241,607.242975950241,1620918116.01173,1620918116.01958,1620918123.54787,1620918123.55348,1620918125.64866,1620918127.01583,1620918127.01947,1620918127.91904,1620918127.91617,1620918334.50988,0
20,4,1,3,22,3,1,c1_WhyFace,1,argument?,41,F_712.jpg,1620917727.2669,1620917727.27911,385.984825839996,7.52315807342529,393.520969142914,395.621754398346,0.3,398.206050386429,0.866990089416504,399.075542917252,1,left,0.84749698638916,399.073040475845,604.482975950241,607.242975950241,1620918116.01173,1620918116.01958,1620918123.54787,1620918123.55348,1620918125.64866,1620918128.23295,1620918128.23607,1620918129.10245,1620918129.09994,1620918334.50988,1
20,4,1,3,22,4,1,c1_WhyFace,1,argument?,48,F_758.jpg,1620917727.2669,1620917727.27911,385.984825839996,7.52315807342529,393.520969142914,395.621754398346,0.3,399.389824142456,0.800299406051636,400.192174901962,1,left,0.788749217987061,400.190123548508,604.482975950241,607.242975950241,1620918116.01173,1620918116.01958,1620918123.54787,1620918123.55348,1620918125.64866,1620918129.41673,1620918129.41954,1620918130.21908,1620918130.21703,1620918334.50988,1
20,4,1,3,22,5,1,c1_WhyFace,2,argument?,45,F_433.jpg,1620917727.2669,1620917727.27911,385.984825839996,7.52315807342529,393.520969142914,395.621754398346,0.3,400.50690864563,1.03371834754944,401.542317857742,3,right,1.01397299766541,401.540626993179,604.482975950241,607.242975950241,1620918116.01173,1620918116.01958,1620918123.54787,1620918123.55348,1620918125.64866,1620918130.53381,1620918130.53611,1620918131.56922,1620918131.56753,1620918334.50988,0
20,4,1,3,22,6,1,c1_WhyFace,1,argument?,43,F_716.jpg,1620917727.2669,1620917727.27911,385.984825839996,7.52315807342529,393.520969142914,395.621754398346,0.3,401.857411375046,1.25046730041504,403.10937379837,1,left,1.22707104682922,403.107878675461,604.482975950241,607.242975950241,1620918116.01173,1620918116.01958,1620918123.54787,1620918123.55348,1620918125.64866,1620918131.88432,1620918131.88629,1620918133.13628,1620918133.13478,1620918334.50988,1
20,4,1,3,22,7,1,c1_WhyFace,2,argument?,44,F_139.jpg,1620917727.2669,1620917727.27911,385.984825839996,7.52315807342529,393.520969142914,395.621754398346,0.3,403.424662342072,0.917009592056274,404.342680921555,3,right,0.903201103210449,404.341671934128,604.482975950241,607.242975950241,1620918116.01173,1620918116.01958,1620918123.54787,1620918123.55348,1620918125.64866,1620918133.45157,1620918133.45342,1620918134.36959,1620918134.36858,1620918334.50988,0
20,4,1,3,22,8,1,c1_WhyFace,1,argument?,47,F_743.jpg,1620917727.2669,1620917727.27911,385.984825839996,7.52315807342529,393.520969142914,395.621754398346,0.3,404.658456792831,0.750280141830444,405.410298814774,1,left,0.730892896652222,405.408736934662,604.482975950241,607.242975950241,1620918116.01173,1620918116.01958,1620918123.54787,1620918123.55348,1620918125.64866,1620918134.68536,1620918134.68708,1620918135.4372,1620918135.43564,1620918334.50988,1
20,4,1,3,23,1,2,c2_WhyHand,1,helping?,39,H_024.jpg,1620917727.2669,1620917727.27911,405.4921007061,6.23586416244507,411.74443315506,413.845215072632,2.10078191757202,413.995271673203,1.11708307266235,415.114226808548,1,left,1.09770393371582,415.112354745865,604.482975950241,607.242975950241,1620918135.519,1620918135.52064,1620918141.77134,1620918141.77308,1620918143.87212,1620918144.02218,1620918144.02386,1620918145.14113,1620918145.13926,1620918334.50988,1
20,4,1,3,23,2,2,c2_WhyHand,1,helping?,36,H_349.jpg,1620917727.2669,1620917727.27911,405.4921007061,6.23586416244507,411.74443315506,413.845215072632,0.3,415.42913936615,0.600224494934082,416.042498817444,1,left,0.593281030654907,416.029363861084,604.482975950241,607.242975950241,1620918135.519,1620918135.52064,1620918141.77134,1620918141.77308,1620918143.87212,1620918145.45604,1620918145.45764,1620918146.0694,1620918146.05627,1620918334.50988,1
20,4,1,3,23,3,2,c2_WhyHand,1,helping?,38,H_077.jpg,1620917727.2669,1620917727.27911,405.4921007061,6.23586416244507,411.74443315506,413.845215072632,0.3,416.346148481369,0.800297737121582,417.159495820999,1,left,0.792222023010254,417.146446218491,604.482975950241,607.242975950241,1620918135.519,1620918135.52064,1620918141.77134,1620918141.77308,1620918143.87212,1620918146.37305,1620918146.37464,1620918147.1864,1620918147.17335,1620918334.50988,1
20,4,1,3,23,4,2,c2_WhyHand,1,helping?,37,H_474.jpg,1620917727.2669,1620917727.27911,405.4921007061,6.23586416244507,411.74443315506,413.845215072632,0.3,417.463231077194,0.600224256515503,418.064482917786,1,left,0.584995031356812,418.06345533371,604.482975950241,607.242975950241,1620918135.519,1620918135.52064,1620918141.77134,1620918141.77308,1620918143.87212,1620918147.49014,1620918147.49194,1620918148.09139,1620918148.09036,1620918334.50988,1
20,4,1,3,23,5,2,c2_WhyHand,2,helping?,33,H_091.jpg,1620917727.2669,1620917727.27911,405.4921007061,6.23586416244507,411.74443315506,413.845215072632,0.3,418.380240907669,0.566877841949463,418.948287000656,1,left,0.547047853469849,418.947118749619,604.482975950241,607.242975950241,1620918135.519,1620918135.52064,1620918141.77134,1620918141.77308,1620918143.87212,1620918148.40715,1620918148.4093,1620918148.97519,1620918148.97402,1620918334.50988,0
20,4,1,3,23,6,2,c2_WhyHand,2,helping?,35,H_159.jpg,1620917727.2669,1620917727.27911,405.4921007061,6.23586416244507,411.74443315506,413.845215072632,0.3,419.263903846741,0.917007446289062,420.182660808563,3,right,0.895686864852905,420.18091129303,604.482975950241,607.242975950241,1620918135.519,1620918135.52064,1620918141.77134,1620918141.77308,1620918143.87212,1620918149.29081,1620918149.29245,1620918150.20956,1620918150.20782,1620918334.50988,0
20,4,1,3,23,7,2,c2_WhyHand,1,helping?,34,H_111.jpg,1620917727.2669,1620917727.27911,405.4921007061,6.23586416244507,411.74443315506,413.845215072632,0.3,420.497696866989,0.766953229904175,421.275826921463,1,left,0.754496097564697,421.264650096893,604.482975950241,607.242975950241,1620918135.519,1620918135.52064,1620918141.77134,1620918141.77308,1620918143.87212,1620918150.5246,1620918150.5262,1620918151.30273,1620918151.29155,1620918334.50988,1
20,4,1,3,23,8,2,c2_WhyHand,2,helping?,40,H_012.jpg,1620917727.2669,1620917727.27911,405.4921007061,6.23586416244507,411.74443315506,413.845215072632,0.3,421.581434717178,1.05039215087891,422.633233776093,3,right,1.03301382064819,422.631826868057,604.482975950241,607.242975950241,1620918135.519,1620918135.52064,1620918141.77134,1620918141.77308,1620918143.87212,1620918151.60834,1620918151.61042,1620918152.66014,1620918152.65873,1620918334.50988,0
20,4,1,3,24,1,4,c4_HowHand,1,both hands?,122,H_111.jpg,1620917727.2669,1620917727.27911,422.71518992424,7.08273887634277,429.801166524887,431.901949396133,2.10078287124634,432.052006473541,0.850316047668457,432.908927907944,1,left,0.833317995071411,432.90232252121,604.482975950241,607.242975950241,1620918152.74209,1620918152.74352,1620918159.82807,1620918159.83671,1620918161.92885,1620918162.07891,1620918162.0863,1620918162.93583,1620918162.92923,1620918334.50988,1
20,4,1,3,24,2,4,c4_HowHand,1,both hands?,128,H_027.jpg,1620917727.2669,1620917727.27911,422.71518992424,7.08273887634277,429.801166524887,431.901949396133,0.3,433.21910785675,0.633569717407227,433.859522809982,1,left,0.618821859359741,433.852677574158,604.482975950241,607.242975950241,1620918152.74209,1620918152.74352,1620918159.82807,1620918159.83671,1620918161.92885,1620918163.24601,1620918163.24758,1620918163.88643,1620918163.87958,1620918334.50988,1
20,4,1,3,24,3,4,c4_HowHand,2,both hands?,121,H_091.jpg,1620917727.2669,1620917727.27911,422.71518992424,7.08273887634277,429.801166524887,431.901949396133,0.3,434.169461479187,0.716934442520142,434.887404909134,3,right,0.696230173110962,434.886395921707,604.482975950241,607.242975950241,1620918152.74209,1620918152.74352,1620918159.82807,1620918159.83671,1620918161.92885,1620918164.19637,1620918164.19808,1620918164.91431,1620918164.9133,1620918334.50988,0
20,4,1,3,24,4,4,c4_HowHand,1,both hands?,123,H_167.jpg,1620917727.2669,1620917727.27911,422.71518992424,7.08273887634277,429.801166524887,431.901949396133,0.3,435.203181257248,1.23379325866699,436.438466777802,1,left,1.21244812011719,436.436974515915,604.482975950241,607.242975950241,1620918152.74209,1620918152.74352,1620918159.82807,1620918159.83671,1620918161.92885,1620918165.23009,1620918165.23167,1620918166.46537,1620918166.46388,1620918334.50988,1
20,4,1,3,24,5,4,c4_HowHand,1,both hands?,124,H_581.jpg,1620917727.2669,1620917727.27911,422.71518992424,7.08273887634277,429.801166524887,431.901949396133,0.3,436.753759374619,1.06706428527832,437.822300901413,1,left,1.04436612129211,437.820823659897,604.482975950241,607.242975950241,1620918152.74209,1620918152.74352,1620918159.82807,1620918159.83671,1620918161.92885,1620918166.78066,1620918166.78266,1620918167.84921,1620918167.84773,1620918334.50988,1
20,4,1,3,24,6,4,c4_HowHand,2,both hands?,126,H_159.jpg,1620917727.2669,1620917727.27911,422.71518992424,7.08273887634277,429.801166524887,431.901949396133,0.3,438.137608280182,0.983700275421143,439.125533809662,3,right,0.965058088302612,439.121308555603,604.482975950241,607.242975950241,1620918152.74209,1620918152.74352,1620918159.82807,1620918159.83671,1620918161.92885,1620918168.16451,1620918168.16597,1620918169.15244,1620918169.14821,1620918334.50988,0
20,4,1,3,24,7,4,c4_HowHand,1,both hands?,127,H_349.jpg,1620917727.2669,1620917727.27911,422.71518992424,7.08273887634277,429.801166524887,431.901949396133,0.3,439.438094129562,1.05039167404175,440.489863862991,1,left,1.02468585968018,440.488485803604,604.482975950241,607.242975950241,1620918152.74209,1620918152.74352,1620918159.82807,1620918159.83671,1620918161.92885,1620918169.465,1620918169.46967,1620918170.51677,1620918170.51539,1620918334.50988,1
20,4,1,3,24,8,4,c4_HowHand,2,both hands?,125,H_627.jpg,1620917727.2669,1620917727.27911,422.71518992424,7.08273887634277,429.801166524887,431.901949396133,0.3,440.805269231796,0.950355529785156,441.758868923187,3,right,0.928565979003906,441.755624761581,604.482975950241,607.242975950241,1620918152.74209,1620918152.74352,1620918159.82807,1620918159.83671,1620918161.92885,1620918170.83217,1620918170.83635,1620918171.78577,1620918171.78253,1620918334.50988,0
20,4,1,3,25,1,2,c2_WhyHand,1,healthy?,18,H_438.jpg,1620917727.2669,1620917727.27911,441.838988771439,5.47590804100037,447.324367275238,449.425151576996,2.10078430175781,449.575207223892,0.917008638381958,450.494016876221,1,left,0.903183937072754,450.492215862274,604.482975950241,607.242975950241,1620918171.86589,1620918171.86946,1620918177.35127,1620918177.35281,1620918179.45206,1620918179.60211,1620918179.60377,1620918180.52092,1620918180.51912,1620918334.50988,1
20,4,1,3,25,2,2,c2_WhyHand,1,healthy?,23,H_364.jpg,1620917727.2669,1620917727.27911,441.838988771439,5.47590804100037,447.324367275238,449.425151576996,0.3,450.809000959396,0.633569955825806,451.458873977661,1,left,0.625458955764771,451.442570915222,604.482975950241,607.242975950241,1620918171.86589,1620918171.86946,1620918177.35127,1620918177.35281,1620918179.45206,1620918180.83591,1620918180.83768,1620918181.48578,1620918181.46948,1620918334.50988,1
20,4,1,3,25,3,2,c2_WhyHand,1,healthy?,17,H_362.jpg,1620917727.2669,1620917727.27911,441.838988771439,5.47590804100037,447.324367275238,449.425151576996,0.3,451.759355773926,0.616895914077759,452.377264966965,1,left,0.601609945297241,452.376251688004,604.482975950241,607.242975950241,1620918171.86589,1620918171.86946,1620918177.35127,1620918177.35281,1620918179.45206,1620918181.78626,1620918181.78776,1620918182.40417,1620918182.40316,1620918334.50988,1
20,4,1,3,25,4,2,c2_WhyHand,2,healthy?,24,H_019.jpg,1620917727.2669,1620917727.27911,441.838988771439,5.47590804100037,447.324367275238,449.425151576996,0.3,452.693037023544,0.683587551116943,453.377620925903,3,right,0.670152902603149,453.376624574661,604.482975950241,607.242975950241,1620918171.86589,1620918171.86946,1620918177.35127,1620918177.35281,1620918179.45206,1620918182.71994,1620918182.72142,1620918183.40453,1620918183.40353,1620918334.50988,0
20,4,1,3,25,5,2,c2_WhyHand,1,healthy?,19,H_167.jpg,1620917727.2669,1620917727.27911,441.838988771439,5.47590804100037,447.324367275238,449.425151576996,0.3,453.693409433365,0.716934204101562,454.426287879944,1,left,0.708556890487671,454.410343637466,604.482975950241,607.242975950241,1620918171.86589,1620918171.86946,1620918177.35127,1620918177.35281,1620918179.45206,1620918183.72031,1620918183.72182,1620918184.45319,1620918184.43725,1620918334.50988,1
20,4,1,3,25,6,2,c2_WhyHand,2,healthy?,20,H_007.jpg,1620917727.2669,1620917727.27911,441.838988771439,5.47590804100037,447.324367275238,449.425151576996,0.3,454.727128973007,0.950353384017944,455.692866792679,3,right,0.939769983291626,455.677482357025,604.482975950241,607.242975950241,1620918171.86589,1620918171.86946,1620918177.35127,1620918177.35281,1620918179.45206,1620918184.75403,1620918184.75569,1620918185.71977,1620918185.70439,1620918334.50988,0
20,4,1,3,25,7,2,c2_WhyHand,1,healthy?,21,H_627.jpg,1620917727.2669,1620917727.27911,441.838988771439,5.47590804100037,447.324367275238,449.425151576996,0.3,455.994267454147,1.08373689651489,457.09268497467,1,left,1.07501721382141,457.078004350662,604.482975950241,607.242975950241,1620918171.86589,1620918171.86946,1620918177.35127,1620918177.35281,1620918179.45206,1620918186.02117,1620918186.02297,1620918187.11959,1620918187.10491,1620918334.50988,1
20,4,1,3,25,8,2,c2_WhyHand,2,healthy?,22,H_130.jpg,1620917727.2669,1620917727.27911,441.838988771439,5.47590804100037,447.324367275238,449.425151576996,0.3,457.394789447784,0.816972255706787,458.21279381752,3,right,0.804839849472046,458.211761703491,604.482975950241,607.242975950241,1620918171.86589,1620918171.86946,1620918177.35127,1620918177.35281,1620918179.45206,1620918187.42169,1620918187.42367,1620918188.2397,1620918188.23867,1620918334.50988,0
20,4,1,3,26,1,4,c4_HowHand,1,pressing button?,82,H_126.jpg,1620917727.2669,1620917727.27911,458.29512547493,8.07379150390625,466.381474962235,468.482258787155,2.10078382492065,468.632313480377,1.1837751865387,469.817229976654,1,left,1.16520309448242,469.816088666916,604.482975950241,607.242975950241,1620918188.32203,1620918188.32325,1620918196.40838,1620918196.41034,1620918198.50916,1620918198.65922,1620918198.66091,1620918199.84413,1620918199.84299,1620918334.50988,1
20,4,1,3,26,2,4,c4_HowHand,2,pressing button?,85,H_130.jpg,1620917727.2669,1620917727.27911,458.29512547493,8.07379150390625,466.381474962235,468.482258787155,0.3,470.132874002457,0.833644151687622,470.975853910446,3,right,0.826858997344971,470.966518154144,604.482975950241,607.242975950241,1620918188.32203,1620918188.32325,1620918196.40838,1620918196.41034,1620918198.50916,1620918200.15978,1620918200.16146,1620918201.00276,1620918200.99342,1620918334.50988,0
20,4,1,3,26,3,4,c4_HowHand,1,pressing button?,84,H_483.jpg,1620917727.2669,1620917727.27911,458.29512547493,8.07379150390625,466.381474962235,468.482258787155,0.3,471.283303012848,1.10040950775146,472.392798891068,1,left,1.0852370262146,472.383712520599,604.482975950241,607.242975950241,1620918188.32203,1620918188.32325,1620918196.40838,1620918196.41034,1620918198.50916,1620918201.31021,1620918201.31186,1620918202.4197,1620918202.41062,1620918334.50988,1
20,4,1,3,26,4,4,c4_HowHand,2,pressing button?,87,H_024.jpg,1620917727.2669,1620917727.27911,458.29512547493,8.07379150390625,466.381474962235,468.482258787155,0.3,472.700497379303,1.21712160110474,473.925623884201,3,right,1.20826196670532,473.917618980408,604.482975950241,607.242975950241,1620918188.32203,1620918188.32325,1620918196.40838,1620918196.41034,1620918198.50916,1620918202.7274,1620918202.72905,1620918203.95253,1620918203.94452,1620918334.50988,0
20,4,1,3,26,5,4,c4_HowHand,1,pressing button?,86,H_332.jpg,1620917727.2669,1620917727.27911,458.29512547493,8.07379150390625,466.381474962235,468.482258787155,0.3,474.234403123856,0.783625602722168,475.019332876205,1,left,0.763496875762939,475.018028726578,604.482975950241,607.242975950241,1620918188.32203,1620918188.32325,1620918196.40838,1620918196.41034,1620918198.50916,1620918204.26131,1620918204.263,1620918205.04624,1620918205.04493,1620918334.50988,1
20,4,1,3,26,6,4,c4_HowHand,1,pressing button?,88,H_019.jpg,1620917727.2669,1620917727.27911,458.29512547493,8.07379150390625,466.381474962235,468.482258787155,0.3,475.334813585281,0.933680772781372,476.276186933517,1,left,0.922168970108032,476.268494358063,604.482975950241,607.242975950241,1620918188.32203,1620918188.32325,1620918196.40838,1620918196.41034,1620918198.50916,1620918205.36172,1620918205.36332,1620918206.30309,1620918206.2954,1620918334.50988,1
20,4,1,3,26,7,4,c4_HowHand,2,pressing button?,81,H_261.jpg,1620917727.2669,1620917727.27911,458.29512547493,8.07379150390625,466.381474962235,468.482258787155,0.3,476.585279693604,0.866990327835083,477.459358921051,3,right,0.850178956985474,477.452270021439,604.482975950241,607.242975950241,1620918188.32203,1620918188.32325,1620918196.40838,1620918196.41034,1620918198.50916,1620918206.61218,1620918206.61387,1620918207.48626,1620918207.47917,1620918334.50988,0
20,4,1,3,26,8,4,c4_HowHand,1,pressing button?,83,H_502.jpg,1620917727.2669,1620917727.27911,458.29512547493,8.07379150390625,466.381474962235,468.482258787155,0.3,477.769054641724,1.08373832702637,478.859183778763,1,left,1.0722348690033,478.85279296875,604.482975950241,607.242975950241,1620918188.32203,1620918188.32325,1620918196.40838,1620918196.41034,1620918198.50916,1620918207.79596,1620918207.79764,1620918208.88609,1620918208.8797,1620918334.50988,1
20,4,1,3,27,1,3,c3_HowFace,1,looking at camera?,60,F_618.jpg,1620917727.2669,1620917727.27911,478.936156740189,4.96280121803284,483.904675951004,486.005460014343,2.10078406333923,486.155515422821,0.833644151687622,486.992794981003,1,left,0.814703941345215,486.989159574509,604.482975950241,607.242975950241,1620918208.96306,1620918208.96912,1620918213.93158,1620918213.93668,1620918216.03236,1620918216.18242,1620918216.18618,1620918217.0197,1620918217.01606,1620918334.50988,1
20,4,1,3,27,2,3,c3_HowFace,2,looking at camera?,58,F_754.jpg,1620917727.2669,1620917727.27911,478.936156740189,4.96280121803284,483.904675951004,486.005460014343,0.3,487.305944671631,0.850317478179932,488.159526815414,3,right,0.837400913238525,488.156262149811,604.482975950241,607.242975950241,1620918208.96306,1620918208.96912,1620918213.93158,1620918213.93668,1620918216.03236,1620918217.33285,1620918217.33616,1620918218.18643,1620918218.18317,1620918334.50988,0
20,4,1,3,27,3,3,c3_HowFace,1,looking at camera?,59,F_129.jpg,1620917727.2669,1620917727.27911,478.936156740189,4.96280121803284,483.904675951004,486.005460014343,0.3,488.473046770096,0.700258255004883,489.176181783676,1,left,0.679708957672119,489.173305025101,604.482975950241,607.242975950241,1620918208.96306,1620918208.96912,1620918213.93158,1620918213.93668,1620918216.03236,1620918218.49995,1620918218.50309,1620918219.20309,1620918219.20021,1620918334.50988,1
20,4,1,3,27,4,3,c3_HowFace,1,looking at camera?,62,F_598.jpg,1620917727.2669,1620917727.27911,478.936156740189,4.96280121803284,483.904675951004,486.005460014343,0.3,489.490093221664,0.700260639190674,490.192558994293,1,left,0.687653064727783,490.190353860855,604.482975950241,607.242975950241,1620918208.96306,1620918208.96912,1620918213.93158,1620918213.93668,1620918216.03236,1620918219.517,1620918219.5195,1620918220.21946,1620918220.21726,1620918334.50988,1
20,4,1,3,27,5,3,c3_HowFace,1,looking at camera?,64,F_128.jpg,1620917727.2669,1620917727.27911,478.936156740189,4.96280121803284,483.904675951004,486.005460014343,0.3,490.507138957977,1.20044660568237,491.708756914139,1,left,1.19139003753662,491.70758556366,604.482975950241,607.242975950241,1620918208.96306,1620918208.96912,1620918213.93158,1620918213.93668,1620918216.03236,1620918220.53404,1620918220.53632,1620918221.73566,1620918221.73449,1620918334.50988,1
20,4,1,3,27,6,3,c3_HowFace,2,looking at camera?,57,F_582.jpg,1620917727.2669,1620917727.27911,478.936156740189,4.96280121803284,483.904675951004,486.005460014343,0.3,492.024370660782,1.38384866714478,493.409348955154,1,left,1.36101198196411,493.408219327927,604.482975950241,607.242975950241,1620918208.96306,1620918208.96912,1620918213.93158,1620918213.93668,1620918216.03236,1620918222.05127,1620918222.05305,1620918223.43625,1620918223.43512,1620918334.50988,0
20,4,1,3,27,7,3,c3_HowFace,1,looking at camera?,61,F_774.jpg,1620917727.2669,1620917727.27911,478.936156740189,4.96280121803284,483.904675951004,486.005460014343,0.3,493.725004901886,0.700260639190674,494.426970949173,1,left,0.69219183921814,494.425265541077,604.482975950241,607.242975950241,1620918208.96306,1620918208.96912,1620918213.93158,1620918213.93668,1620918216.03236,1620918223.75191,1620918223.75357,1620918224.45388,1620918224.45217,1620918334.50988,1
20,4,1,3,27,8,3,c3_HowFace,2,looking at camera?,63,F_743.jpg,1620917727.2669,1620917727.27911,478.936156740189,4.96280121803284,483.904675951004,486.005460014343,0.3,494.742050638199,0.683586597442627,495.42788599968,3,right,0.667817115783691,495.425637235641,604.482975950241,607.242975950241,1620918208.96306,1620918208.96912,1620918213.93158,1620918213.93668,1620918216.03236,1620918224.76895,1620918224.77039,1620918225.45479,1620918225.45254,1620918334.50988,0
