src_subject_id,session_id,run_id,param_counterbalance_ver,param_block_num,param_trial_num,param_cond_type_num,param_cond_type_string,param_normative_response,param_ques_type_string,param_image_num,param_image_filename,param_trigger_onset,param_start_biopac,event01_fixation,event01_fixation_dur,event01_blockquestion_onset,event01_block_isi_blacksreen,event01_blockquestion_dur,event02_image_onset,event02_image_dur,event03_response_onset,event03_response_key,event03_response_keyname,event03_RT,event04_shortquestion_onset,param_end_instruct_onset,param_experiment_duration,RAW_e1_fixation,RAW_e1_fixation_biopac,RAW_e1_blockquestion_onset,RAW_e1_blockquestion_onset_biopac,RAW_e1_block_isi_blacksreen,RAW_e2_image_onset,RAW_e2_image_onset_biopac,RAW_e3_response_onset,RAW_e4_shortquestion_onset,RAW_param_end_instruct_onset,accuracy
16,4,1,3,1,1,4,c4_HowHand,1,reaching?,107,H_007.jpg,1619452970.89815,1619452970.90835,0.0448551082611082,0.0545189380645752,0.111546983718872,2.11229347229004,2.00074648857117,2.2623491191864,1.08373761177063,3.34852193832397,1,left,1.04115796089172,3.34608673095703,604.486931791306,607.246931791306,1619452973.70301,1619452973.71734,1619452973.7697,1619452973.77983,1619452975.77045,1619452975.9205,1619452975.93011,1619452977.00668,1619452977.00424,1619453578.14509,1
16,4,1,3,1,2,4,c4_HowHand,2,reaching?,108,H_532.jpg,1619452970.89815,1619452970.90835,0.0448551082611082,0.0545189380645752,0.111546983718872,2.11229347229004,0.3,3.6628720664978,0.900336265563965,4.56503700256348,3,right,0.879869937896729,4.56320833206177,604.486931791306,607.246931791306,1619452973.70301,1619452973.71734,1619452973.7697,1619452973.77983,1619452975.77045,1619452977.32103,1619452977.3231,1619452978.22319,1619452978.22136,1619453578.14509,0
16,4,1,3,1,3,4,c4_HowHand,1,reaching?,109,H_474.jpg,1619452970.89815,1619452970.90835,0.0448551082611082,0.0545189380645752,0.111546983718872,2.11229347229004,0.3,4.87999176025391,0.766953229904175,5.65481709480286,1,left,0.758839845657349,5.64694499015808,604.486931791306,607.246931791306,1619452973.70301,1619452973.71734,1619452973.7697,1619452973.77983,1619452975.77045,1619452978.53815,1619452978.53995,1619452979.31297,1619452979.3051,1619453578.14509,1
16,4,1,3,1,4,4,c4_HowHand,2,reaching?,105,H_438.jpg,1619452970.89815,1619452970.90835,0.0448551082611082,0.0545189380645752,0.111546983718872,2.11229347229004,0.3,5.96373008728027,0.917007684707642,6.888442029953,3,right,0.898454904556274,6.88073777198792,604.486931791306,607.246931791306,1619452973.70301,1619452973.71734,1619452973.7697,1619452973.77983,1619452975.77045,1619452979.62189,1619452979.624,1619452980.5466,1619452980.53889,1619453578.14509,0
16,4,1,3,1,5,4,c4_HowHand,1,reaching?,110,H_364.jpg,1619452970.89815,1619452970.90835,0.0448551082611082,0.0545189380645752,0.111546983718872,2.11229347229004,0.3,7.19752263069153,0.683588981628418,7.88934802055359,1,left,0.666669130325317,7.88111161231995,604.486931791306,607.246931791306,1619452973.70301,1619452973.71734,1619452973.7697,1619452973.77983,1619452975.77045,1619452980.85568,1619452980.85863,1619452981.5475,1619452981.53927,1619453578.14509,1
16,4,1,3,1,6,4,c4_HowHand,1,reaching?,106,H_006.jpg,1619452970.89815,1619452970.90835,0.0448551082611082,0.0545189380645752,0.111546983718872,2.11229347229004,0.3,8.1978959941864,0.833643913269043,9.03751300811768,1,left,0.822437047958374,9.03153990745544,604.486931791306,607.246931791306,1619452973.70301,1619452973.71734,1619452973.7697,1619452973.77983,1619452975.77045,1619452981.85605,1619452981.85765,1619452982.69567,1619452982.68969,1619453578.14509,1
16,4,1,3,1,7,4,c4_HowHand,1,reaching?,111,H_003.jpg,1619452970.89815,1619452970.90835,0.0448551082611082,0.0545189380645752,0.111546983718872,2.11229347229004,0.3,9.34832524299622,0.833643674850464,10.1877369785309,3,right,0.815282821655273,10.1819689178467,604.486931791306,607.246931791306,1619452973.70301,1619452973.71734,1619452973.7697,1619452973.77983,1619452975.77045,1619452983.00648,1619452983.00855,1619452983.84589,1619452983.84012,1619453578.14509,0
16,4,1,3,1,8,4,c4_HowHand,2,reaching?,112,H_132.jpg,1619452970.89815,1619452970.90835,0.0448551082611082,0.0545189380645752,0.111546983718872,2.11229347229004,0.3,10.4987542533875,0.750279426574707,11.2548019790649,1,left,0.733536958694458,11.2490336799622,604.486931791306,607.246931791306,1619452973.70301,1619452973.71734,1619452973.7697,1619452973.77983,1619452975.77045,1619452984.15691,1619452984.15861,1619452984.91296,1619452984.90719,1619453578.14509,0
16,4,1,3,2,1,2,c2_WhyHand,1,healthy?,21,H_627.jpg,1619452970.89815,1619452970.90835,11.4991269016266,6.03196716308594,17.5347118282318,19.6354944610596,2.10078263282776,19.7855505847931,1.2504665851593,21.0375490093231,1,left,1.24053001403809,21.0360171699524,604.486931791306,607.246931791306,1619452985.15728,1619452985.16319,1619452991.19287,1619452991.19623,1619452993.29365,1619452993.44371,1619452993.44644,1619452994.6957,1619452994.69417,1619453578.14509,1
16,4,1,3,2,2,2,c2_WhyHand,1,healthy?,18,H_438.jpg,1619452970.89815,1619452970.90835,11.4991269016266,6.03196716308594,17.5347118282318,19.6354944610596,0.3,21.3528017902374,1.28381180763245,22.6377501392364,3,right,1.26945805549622,22.6366135978699,604.486931791306,607.246931791306,1619452985.15728,1619452985.16319,1619452991.19287,1619452991.19623,1619452993.29365,1619452995.01096,1619452995.01307,1619452996.29591,1619452996.29477,1619453578.14509,0
16,4,1,3,2,3,2,c2_WhyHand,1,healthy?,23,H_364.jpg,1619452970.89815,1619452970.90835,11.4991269016266,6.03196716308594,17.5347118282318,19.6354944610596,0.3,22.9533991718292,1.00037240982056,23.9547710323334,1,left,0.988545894622803,23.9537715816498,604.486931791306,607.246931791306,1619452985.15728,1619452985.16319,1619452991.19287,1619452991.19623,1619452993.29365,1619452996.61155,1619452996.61307,1619452997.61293,1619452997.61193,1619453578.14509,1
16,4,1,3,2,4,2,c2_WhyHand,2,healthy?,22,H_130.jpg,1619452970.89815,1619452970.90835,11.4991269016266,6.03196716308594,17.5347118282318,19.6354944610596,0.3,24.2705557250977,0.733607053756714,25.0052170658112,3,right,0.720005035400391,25.0041627788544,604.486931791306,607.246931791306,1619452985.15728,1619452985.16319,1619452991.19287,1619452991.19623,1619452993.29365,1619452997.92871,1619452997.93023,1619452998.66337,1619452998.66232,1619453578.14509,0
16,4,1,3,2,5,2,c2_WhyHand,1,healthy?,17,H_362.jpg,1619452970.89815,1619452970.90835,11.4991269016266,6.03196716308594,17.5347118282318,19.6354944610596,0.3,25.3209481143951,1.01704597473145,26.3390209579468,1,left,0.999475955963135,26.3379940891266,604.486931791306,607.246931791306,1619452985.15728,1619452985.16319,1619452991.19287,1619452991.19623,1619452993.29365,1619452998.9791,1619452998.98071,1619452999.99718,1619452999.99615,1619453578.14509,1
16,4,1,3,2,6,2,c2_WhyHand,2,healthy?,20,H_007.jpg,1619452970.89815,1619452970.90835,11.4991269016266,6.03196716308594,17.5347118282318,19.6354944610596,0.3,26.6547779941559,0.68358850479126,27.3544440174103,3,right,0.674612998962402,27.3383664989471,604.486931791306,607.246931791306,1619452985.15728,1619452985.16319,1619452991.19287,1619452991.19623,1619452993.29365,1619453000.31293,1619453000.31437,1619453001.0126,1619453000.99652,1619453578.14509,0
16,4,1,3,2,7,2,c2_WhyHand,1,healthy?,19,H_167.jpg,1619452970.89815,1619452970.90835,11.4991269016266,6.03196716308594,17.5347118282318,19.6354944610596,0.3,27.6551520729065,0.683588743209839,28.3403620624542,1,left,0.664591789245605,28.3387408161163,604.486931791306,607.246931791306,1619452985.15728,1619452985.16319,1619452991.19287,1619452991.19623,1619452993.29365,1619453001.31331,1619453001.31498,1619453001.99852,1619453001.9969,1619453578.14509,1
16,4,1,3,2,8,2,c2_WhyHand,2,healthy?,24,H_019.jpg,1619452970.89815,1619452970.90835,11.4991269016266,6.03196716308594,17.5347118282318,19.6354944610596,0.3,28.6555251979828,0.633569478988647,29.3042230510712,3,right,0.623313188552856,29.2890946769714,604.486931791306,607.246931791306,1619452985.15728,1619452985.16319,1619452991.19287,1619452991.19623,1619452993.29365,1619453002.31368,1619453002.31519,1619453002.96238,1619453002.94725,1619453578.14509,0
16,4,1,3,3,1,1,c1_WhyFace,1,admiring?,4,F_779.jpg,1619452970.89815,1619452970.90835,29.3891315364838,7.24993443489075,36.6585101985931,38.7426195049286,2.08410930633545,38.8926758670807,0.750280380249023,39.6549351119995,1,left,0.726838111877441,39.6429562473297,604.486931791306,607.246931791306,1619453003.04729,1619453003.04924,1619453010.31667,1619453010.31869,1619453012.40077,1619453012.55083,1619453012.56314,1619453013.31309,1619453013.30111,1619453578.14509,1
16,4,1,3,3,2,1,c1_WhyFace,1,admiring?,1,F_593.jpg,1619452970.89815,1619452970.90835,29.3891315364838,7.24993443489075,36.6585101985931,38.7426195049286,0.3,39.9597403907776,0.733607530593872,40.7042069339752,1,left,0.721894979476929,40.6933479213715,604.486931791306,607.246931791306,1619453003.04729,1619453003.04924,1619453010.31667,1619453010.31869,1619453012.40077,1619453013.6179,1619453013.61947,1619453014.36236,1619453014.3515,1619453578.14509,1
16,4,1,3,3,3,1,c1_WhyFace,2,admiring?,3,F_110.jpg,1619452970.89815,1619452970.90835,29.3891315364838,7.24993443489075,36.6585101985931,38.7426195049286,0.3,41.0101327800751,0.733605623245239,41.7454669380188,3,right,0.715467929840088,41.7437384033203,604.486931791306,607.246931791306,1619453003.04729,1619453003.04924,1619453010.31667,1619453010.31869,1619453012.40077,1619453014.66829,1619453014.66977,1619453015.40362,1619453015.40189,1619453578.14509,0
16,4,1,3,3,4,1,c1_WhyFace,1,admiring?,8,F_590.jpg,1619452970.89815,1619452970.90835,29.3891315364838,7.24993443489075,36.6585101985931,38.7426195049286,0.3,42.0605235004425,0.533533573150635,42.6042289638519,1,left,0.519250869750977,42.5940570735931,604.486931791306,607.246931791306,1619453003.04729,1619453003.04924,1619453010.31667,1619453010.31869,1619453012.40077,1619453015.71868,1619453015.72059,1619453016.26238,1619453016.25221,1619453578.14509,1
16,4,1,3,3,5,1,c1_WhyFace,2,admiring?,6,F_692.jpg,1619452970.89815,1619452970.90835,29.3891315364838,7.24993443489075,36.6585101985931,38.7426195049286,0.3,42.9108421707153,0.850316524505615,43.7624540233612,3,right,0.833006858825684,43.7611586952209,604.486931791306,607.246931791306,1619453003.04729,1619453003.04924,1619453010.31667,1619453010.31869,1619453012.40077,1619453016.569,1619453016.57075,1619453017.42061,1619453017.41931,1619453578.14509,0
16,4,1,3,3,6,1,c1_WhyFace,1,admiring?,5,F_759.jpg,1619452970.89815,1619452970.90835,29.3891315364838,7.24993443489075,36.6585101985931,38.7426195049286,0.3,44.0779430770874,0.683588266372681,44.7626891040802,1,left,0.664087057113647,44.7615313434601,604.486931791306,607.246931791306,1619453003.04729,1619453003.04924,1619453010.31667,1619453010.31869,1619453012.40077,1619453017.7361,1619453017.73762,1619453018.42084,1619453018.41969,1619453578.14509,1
16,4,1,3,3,7,1,c1_WhyFace,1,admiring?,7,F_648.jpg,1619452970.89815,1619452970.90835,29.3891315364838,7.24993443489075,36.6585101985931,38.7426195049286,0.3,45.0783150100708,0.700261831283569,45.7796230220795,1,left,0.678741931915283,45.7785768413544,604.486931791306,607.246931791306,1619453003.04729,1619453003.04924,1619453010.31667,1619453010.31869,1619453012.40077,1619453018.73647,1619453018.73818,1619453019.43778,1619453019.43673,1619453578.14509,1
16,4,1,3,3,8,1,c1_WhyFace,2,admiring?,2,F_129.jpg,1619452970.89815,1619452970.90835,29.3891315364838,7.24993443489075,36.6585101985931,38.7426195049286,0.3,46.0953624153137,0.633569478988647,46.7381300830841,3,right,0.622179985046387,46.7289318943024,604.486931791306,607.246931791306,1619453003.04729,1619453003.04924,1619453010.31667,1619453010.31869,1619453012.40077,1619453019.75352,1619453019.75531,1619453020.39629,1619453020.38709,1619453578.14509,0
16,4,1,3,4,1,3,c3_HowFace,1,smiling?,119,F_139.jpg,1619452970.89815,1619452970.90835,46.8289694690704,8.77409267425537,55.6155791187286,57.7163631820679,2.10078406333923,57.8664190673828,0.566877841949463,58.4373850727081,1,left,0.545699119567871,58.4332969093323,604.486931791306,607.246931791306,1619453020.48712,1619453020.48901,1619453029.27373,1619453029.2801,1619453031.37452,1619453031.52457,1619453031.5299,1619453032.09554,1619453032.09145,1619453578.14509,1
16,4,1,3,4,2,3,c3_HowFace,2,smiling?,113,F_712.jpg,1619452970.89815,1619452970.90835,46.8289694690704,8.77409267425537,55.6155791187286,57.7163631820679,0.3,58.7500817680359,0.483513355255127,59.2374439144135,3,right,0.468724966049194,59.233595123291,604.486931791306,607.246931791306,1619453020.48712,1619453020.48901,1619453029.27373,1619453029.2801,1619453031.37452,1619453032.40824,1619453032.41276,1619453032.8956,1619453032.89175,1619453578.14509,0
16,4,1,3,4,3,3,c3_HowFace,1,smiling?,115,F_695.jpg,1619452970.89815,1619452970.90835,46.8289694690704,8.77409267425537,55.6155791187286,57.7163631820679,0.3,59.5503795051575,0.516859292984009,60.068763961792,1,left,0.490325927734375,60.0672387981415,604.486931791306,607.246931791306,1619453020.48712,1619453020.48901,1619453029.27373,1619453029.2801,1619453031.37452,1619453033.20853,1619453033.21267,1619453033.72692,1619453033.72539,1619453578.14509,1
16,4,1,3,4,4,3,c3_HowFace,2,smiling?,120,F_758.jpg,1619452970.89815,1619452970.90835,46.8289694690704,8.77409267425537,55.6155791187286,57.7163631820679,0.3,60.3840236568451,0.600224018096924,60.9873530769348,3,right,0.580575942993164,60.984247674942,604.486931791306,607.246931791306,1619453020.48712,1619453020.48901,1619453029.27373,1619453029.2801,1619453031.37452,1619453034.04218,1619453034.04616,1619453034.64551,1619453034.6424,1619453578.14509,0
16,4,1,3,4,5,3,c3_HowFace,1,smiling?,116,F_083.jpg,1619452970.89815,1619452970.90835,46.8289694690704,8.77409267425537,55.6155791187286,57.7163631820679,0.3,61.3010334873199,0.433494567871094,61.7355639839172,1,left,0.409147024154663,61.734528055191,604.486931791306,607.246931791306,1619453020.48712,1619453020.48901,1619453029.27373,1619453029.2801,1619453031.37452,1619453034.95919,1619453034.96301,1619453035.39372,1619453035.39268,1619453578.14509,1
16,4,1,3,4,6,3,c3_HowFace,1,smiling?,118,F_759.jpg,1619452970.89815,1619452970.90835,46.8289694690704,8.77409267425537,55.6155791187286,57.7163631820679,0.3,62.0513114833832,0.600224018096924,62.6544880771637,1,left,0.581510066986084,62.6515355014801,604.486931791306,607.246931791306,1619453020.48712,1619453020.48901,1619453029.27373,1619453029.2801,1619453031.37452,1619453035.70947,1619453035.71307,1619453036.31264,1619453036.30969,1619453578.14509,1
16,4,1,3,4,7,3,c3_HowFace,2,smiling?,114,F_412.jpg,1619452970.89815,1619452970.90835,46.8289694690704,8.77409267425537,55.6155791187286,57.7163631820679,0.3,62.9683208370209,0.5668785572052,63.5377969646454,3,right,0.544843196868896,63.5351993942261,604.486931791306,607.246931791306,1619453020.48712,1619453020.48901,1619453029.27373,1619453029.2801,1619453031.37452,1619453036.62648,1619453036.62935,1619453037.19595,1619453037.19335,1619453578.14509,0
16,4,1,3,4,8,3,c3_HowFace,1,smiling?,117,F_593.jpg,1619452970.89815,1619452970.90835,46.8289694690704,8.77409267425537,55.6155791187286,57.7163631820679,0.3,63.8519842529297,0.483513355255127,64.3373520278931,1,left,0.464599847793579,64.3354976081848,604.486931791306,607.246931791306,1619453020.48712,1619453020.48901,1619453029.27373,1619453029.2801,1619453031.37452,1619453037.51014,1619453037.51271,1619453037.99551,1619453037.99365,1619453578.14509,1
16,4,1,3,5,1,4,c4_HowHand,1,lifting?,56,H_136.jpg,1619452970.89815,1619452970.90835,64.4021887683868,8.73164129257202,73.1387812995911,75.2395641708374,2.10078287124634,75.3896202945709,0.866989612579346,76.2583699131012,1,left,0.838885068893433,76.2566099071503,604.486931791306,607.246931791306,1619453038.06034,1619453038.06348,1619453046.79694,1619453046.81557,1619453048.89772,1619453049.04778,1619453049.06284,1619453049.91652,1619453049.91476,1619453578.14509,1
16,4,1,3,5,2,4,c4_HowHand,2,lifting?,51,H_038.jpg,1619452970.89815,1619452970.90835,64.4021887683868,8.73164129257202,73.1387812995911,75.2395641708374,0.3,76.5733947658539,0.666914939880371,77.2413201236725,3,right,0.645553112030029,77.2403097057342,604.486931791306,607.246931791306,1619453038.06034,1619453038.06348,1619453046.79694,1619453046.81557,1619453048.89772,1619453050.23155,1619453050.23346,1619453050.89948,1619453050.89846,1619453578.14509,0
16,4,1,3,5,3,4,c4_HowHand,1,lifting?,52,H_189.jpg,1619452970.89815,1619452970.90835,64.4021887683868,8.73164129257202,73.1387812995911,75.2395641708374,0.3,77.5570945644379,1.00037336349487,78.5588300132751,1,left,0.982277870178223,78.5574679279327,604.486931791306,607.246931791306,1619453038.06034,1619453038.06348,1619453046.79694,1619453046.81557,1619453048.89772,1619453051.21525,1619453051.21702,1619453052.21698,1619453052.21562,1619453578.14509,1
16,4,1,3,5,4,4,c4_HowHand,2,lifting?,53,H_077.jpg,1619452970.89815,1619452970.90835,64.4021887683868,8.73164129257202,73.1387812995911,75.2395641708374,0.3,78.8742530250549,0.0166730880737305,78.8929259681702,1,left,0.000226020812988281,78.8909261131287,604.486931791306,607.246931791306,1619453038.06034,1619453038.06348,1619453046.79694,1619453046.81557,1619453048.89772,1619453052.53241,1619453052.534,1619453052.55108,1619453052.54908,1619453578.14509,0
16,4,1,3,5,5,4,c4_HowHand,1,lifting?,50,H_443.jpg,1619452970.89815,1619452970.90835,64.4021887683868,8.73164129257202,73.1387812995911,75.2395641708374,0.3,79.2077097797394,0.900336503982544,80.1097690963745,3,right,0.882411003112793,80.1080462837219,604.486931791306,607.246931791306,1619453038.06034,1619453038.06348,1619453046.79694,1619453046.81557,1619453048.89772,1619453052.86586,1619453052.8678,1619453053.76792,1619453053.7662,1619453578.14509,0
16,4,1,3,5,6,4,c4_HowHand,2,lifting?,55,H_012.jpg,1619452970.89815,1619452970.90835,64.4021887683868,8.73164129257202,73.1387812995911,75.2395641708374,0.3,80.4248306655884,0.750279664993286,81.1762349510193,1,left,0.727030038833618,81.1751103305817,604.486931791306,607.246931791306,1619453038.06034,1619453038.06348,1619453046.79694,1619453046.81557,1619453048.89772,1619453054.08299,1619453054.0845,1619453054.83439,1619453054.83327,1619453578.14509,0
16,4,1,3,5,7,4,c4_HowHand,1,lifting?,49,H_362.jpg,1619452970.89815,1619452970.90835,64.4021887683868,8.73164129257202,73.1387812995911,75.2395641708374,0.3,81.4918961429596,0.716933012008667,82.221302022934,1,left,0.706116914749146,82.2088291549683,604.486931791306,607.246931791306,1619453038.06034,1619453038.06348,1619453046.79694,1619453046.81557,1619453048.89772,1619453055.15005,1619453055.15177,1619453055.87946,1619453055.86698,1619453578.14509,1
16,4,1,3,5,8,4,c4_HowHand,1,lifting?,54,H_170.jpg,1619452970.89815,1619452970.90835,64.4021887683868,8.73164129257202,73.1387812995911,75.2395641708374,0.3,82.5256156826019,0.833643674850464,83.3603019618988,3,right,0.813390970230103,83.3592593574524,604.486931791306,607.246931791306,1619453038.06034,1619453038.06348,1619453046.79694,1619453046.81557,1619453048.89772,1619453056.18377,1619453056.1854,1619453057.01846,1619453057.01741,1619453578.14509,0
16,4,1,3,6,1,2,c2_WhyHand,1,helping?,38,H_077.jpg,1619452970.89815,1619452970.90835,83.4426228904724,12.1723570823669,95.630501499176,97.7312853240967,2.10078382492065,97.8813407325745,0.733606815338135,98.6213409805298,1,left,0.72170615196228,98.6149475479126,604.486931791306,607.246931791306,1619453057.10078,1619453057.10212,1619453069.28866,1619453069.29061,1619453071.38944,1619453071.5395,1619453071.54179,1619453072.2795,1619453072.2731,1619453578.14509,1
16,4,1,3,6,2,2,c2_WhyHand,1,helping?,36,H_349.jpg,1619452970.89815,1619452970.90835,83.4426228904724,12.1723570823669,95.630501499176,97.7312853240967,0.3,98.9317328834534,0.816971063613892,99.7540199661255,1,left,0.804923057556152,99.7487039470673,604.486931791306,607.246931791306,1619453057.10078,1619453057.10212,1619453069.28866,1619453069.29061,1619453071.38944,1619453072.58989,1619453072.59147,1619453073.41217,1619453073.40686,1619453578.14509,1
16,4,1,3,6,3,2,c2_WhyHand,1,helping?,37,H_474.jpg,1619452970.89815,1619452970.90835,83.4426228904724,12.1723570823669,95.630501499176,97.7312853240967,0.3,100.065488805771,0.850317716598511,100.921317090988,1,left,0.836642026901245,100.915806522369,604.486931791306,607.246931791306,1619453057.10078,1619453057.10212,1619453069.28866,1619453069.29061,1619453071.38944,1619453073.72364,1619453073.72543,1619453074.57947,1619453074.57396,1619453578.14509,1
16,4,1,3,6,4,2,c2_WhyHand,1,helping?,39,H_024.jpg,1619452970.89815,1619452970.90835,83.4426228904724,12.1723570823669,95.630501499176,97.7312853240967,0.3,101.232591619492,1.11708235740662,102.354701986313,1,left,1.09639191627502,102.349673976898,604.486931791306,607.246931791306,1619453057.10078,1619453057.10212,1619453069.28866,1619453069.29061,1619453071.38944,1619453074.89075,1619453074.89288,1619453076.01286,1619453076.00783,1619453578.14509,1
16,4,1,3,6,5,2,c2_WhyHand,2,helping?,40,H_012.jpg,1619452970.89815,1619452970.90835,83.4426228904724,12.1723570823669,95.630501499176,97.7312853240967,0.3,102.666459312439,0.900335788726807,103.570683946609,3,right,0.87995719909668,103.566795101166,604.486931791306,607.246931791306,1619453057.10078,1619453057.10212,1619453069.28866,1619453069.29061,1619453071.38944,1619453076.32461,1619453076.32965,1619453077.22884,1619453077.22495,1619453578.14509,0
16,4,1,3,6,6,2,c2_WhyHand,2,helping?,35,H_159.jpg,1619452970.89815,1619452970.90835,83.4426228904724,12.1723570823669,95.630501499176,97.7312853240967,0.3,103.883579244614,0.900335788726807,104.784949054718,3,right,0.876245021820068,104.78391503334,604.486931791306,607.246931791306,1619453057.10078,1619453057.10212,1619453069.28866,1619453069.29061,1619453071.38944,1619453077.54173,1619453077.54609,1619453078.4431,1619453078.44207,1619453578.14509,0
16,4,1,3,6,7,2,c2_WhyHand,1,helping?,34,H_111.jpg,1619452970.89815,1619452970.90835,83.4426228904724,12.1723570823669,95.630501499176,97.7312853240967,0.3,105.100699653625,0.866990804672241,105.971436014175,1,left,0.843323945999146,105.967690458298,604.486931791306,607.246931791306,1619453057.10078,1619453057.10212,1619453069.28866,1619453069.29061,1619453071.38944,1619453078.75885,1619453078.7627,1619453079.62959,1619453079.62585,1619453578.14509,1
16,4,1,3,6,8,2,c2_WhyHand,2,helping?,33,H_091.jpg,1619452970.89815,1619452970.90835,83.4426228904724,12.1723570823669,95.630501499176,97.7312853240967,0.3,106.284474840164,0.883662939071655,107.171030988693,3,right,0.868695020675659,107.168137779236,604.486931791306,607.246931791306,1619453057.10078,1619453057.10212,1619453069.28866,1619453069.29061,1619453071.38944,1619453079.94263,1619453079.946,1619453080.82919,1619453080.82629,1619453578.14509,0
16,4,1,3,7,1,1,c1_WhyFace,1,proud?,104,F_598.jpg,1619452970.89815,1619452970.90835,107.234828939438,6.2551531791687,113.503834238052,115.604617109299,2.10078287124634,115.754672994614,1.03371858596802,116.789484968185,1,left,1.01160788536072,116.788391580582,604.486931791306,607.246931791306,1619453080.89298,1619453080.89609,1619453087.16199,1619453087.16382,1619453089.26277,1619453089.41283,1619453089.4147,1619453090.44764,1619453090.44655,1619453578.14509,1
16,4,1,3,7,2,1,c1_WhyFace,2,proud?,102,F_760.jpg,1619452970.89815,1619452970.90835,107.234828939438,6.2551531791687,113.503834238052,115.604617109299,0.3,117.105177154541,0.650241613388062,117.756820907593,3,right,0.63387393951416,117.755418767929,604.486931791306,607.246931791306,1619453080.89298,1619453080.89609,1619453087.16199,1619453087.16382,1619453089.26277,1619453090.76333,1619453090.7653,1619453091.41498,1619453091.41357,1619453578.14509,0
16,4,1,3,7,3,1,c1_WhyFace,1,proud?,97,F_582.jpg,1619452970.89815,1619452970.90835,107.234828939438,6.2551531791687,113.503834238052,115.604617109299,0.3,118.072203865051,0.683588266372681,118.757252922058,1,left,0.663944959640503,118.755792131424,604.486931791306,607.246931791306,1619453080.89298,1619453080.89609,1619453087.16199,1619453087.16382,1619453089.26277,1619453091.73036,1619453091.7322,1619453092.41541,1619453092.41395,1619453578.14509,1
16,4,1,3,7,4,1,c1_WhyFace,2,proud?,98,F_412.jpg,1619452970.89815,1619452970.90835,107.234828939438,6.2551531791687,113.503834238052,115.604617109299,0.3,119.072576751709,0.666916131973267,119.754032125473,3,right,0.657516002655029,119.739492883682,604.486931791306,607.246931791306,1619453080.89298,1619453080.89609,1619453087.16199,1619453087.16382,1619453089.26277,1619453092.73073,1619453092.73227,1619453093.41219,1619453093.39765,1619453578.14509,0
16,4,1,3,7,5,1,c1_WhyFace,1,proud?,101,F_083.jpg,1619452970.89815,1619452970.90835,107.234828939438,6.2551531791687,113.503834238052,115.604617109299,0.3,120.05627702713,1.23379278182983,121.30409907341,1,left,1.22664499282837,121.29006980896,604.486931791306,607.246931791306,1619453080.89298,1619453080.89609,1619453087.16199,1619453087.16382,1619453089.26277,1619453093.71443,1619453093.71619,1619453094.96225,1619453094.94822,1619453578.14509,1
16,4,1,3,7,6,1,c1_WhyFace,2,proud?,100,F_776.jpg,1619452970.89815,1619452970.90835,107.234828939438,6.2551531791687,113.503834238052,115.604617109299,0.3,121.606854190826,0.716935873031616,122.325154056549,3,right,0.702460050582886,122.323790063858,604.486931791306,607.246931791306,1619453080.89298,1619453080.89609,1619453087.16199,1619453087.16382,1619453089.26277,1619453095.26501,1619453095.26663,1619453095.98331,1619453095.98195,1619453578.14509,0
16,4,1,3,7,7,1,c1_WhyFace,1,proud?,103,F_618.jpg,1619452970.89815,1619452970.90835,107.234828939438,6.2551531791687,113.503834238052,115.604617109299,0.3,122.640573253632,0.833645582199097,123.475825061798,1,left,0.812822103500366,123.474218835831,604.486931791306,607.246931791306,1619453080.89298,1619453080.89609,1619453087.16199,1619453087.16382,1619453089.26277,1619453096.29873,1619453096.30022,1619453097.13398,1619453097.13237,1619453578.14509,1
16,4,1,3,7,8,1,c1_WhyFace,1,proud?,99,F_695.jpg,1619452970.89815,1619452970.90835,107.234828939438,6.2551531791687,113.503834238052,115.604617109299,0.3,123.791004171371,0.967026948928833,124.759391059875,1,left,0.953164100646973,124.7580311203,604.486931791306,607.246931791306,1619453080.89298,1619453080.89609,1619453087.16199,1619453087.16382,1619453089.26277,1619453097.44916,1619453097.45111,1619453098.41755,1619453098.41619,1619453578.14509,1
16,4,1,3,8,1,3,c3_HowFace,1,looking to side?,72,F_590.jpg,1619452970.89815,1619452970.90835,124.824721803665,6.19518518447876,131.027034749985,133.127819290161,2.10078454017639,133.277873744965,0.683589220046997,133.97132610321,1,left,0.666009902954102,133.961462965012,604.486931791306,607.246931791306,1619453098.48288,1619453098.48394,1619453104.68519,1619453104.69619,1619453106.78597,1619453106.93603,1619453106.94664,1619453107.62948,1619453107.61962,1619453578.14509,1
16,4,1,3,8,2,3,c3_HowFace,1,looking to side?,71,F_433.jpg,1619452970.89815,1619452970.90835,124.824721803665,6.19518518447876,131.027034749985,133.127819290161,0.3,134.278247108459,0.566879272460938,134.846796979904,1,left,0.548324108123779,134.84512638092,604.486931791306,607.246931791306,1619453098.48288,1619453098.48394,1619453104.68519,1619453104.69619,1619453106.78597,1619453107.9364,1619453107.93803,1619453108.50495,1619453108.50328,1619453578.14509,1
16,4,1,3,8,3,3,c3_HowFace,1,looking to side?,67,F_716.jpg,1619452970.89815,1619452970.90835,124.824721803665,6.19518518447876,131.027034749985,133.127819290161,0.3,135.161910524368,0.566878080368042,135.737754096985,1,left,0.560286045074463,135.728788604736,604.486931791306,607.246931791306,1619453098.48288,1619453098.48394,1619453104.68519,1619453104.69619,1619453106.78597,1619453108.82007,1619453108.82159,1619453109.39591,1619453109.38694,1619453578.14509,1
16,4,1,3,8,4,3,c3_HowFace,2,looking to side?,70,F_779.jpg,1619452970.89815,1619452970.90835,124.824721803665,6.19518518447876,131.027034749985,133.127819290161,0.3,136.045572986603,0.583550930023193,136.630866994858,1,left,0.563723087310791,136.629123916626,604.486931791306,607.246931791306,1619453098.48288,1619453098.48394,1619453104.68519,1619453104.69619,1619453106.78597,1619453109.70373,1619453109.70524,1619453110.28902,1619453110.28728,1619453578.14509,0
16,4,1,3,8,5,3,c3_HowFace,1,looking to side?,68,F_760.jpg,1619452970.89815,1619452970.90835,124.824721803665,6.19518518447876,131.027034749985,133.127819290161,0.3,136.945909252167,0.633569717407227,137.588071098328,1,left,0.6268150806427,137.579478969574,604.486931791306,607.246931791306,1619453098.48288,1619453098.48394,1619453104.68519,1619453104.69619,1619453106.78597,1619453110.60406,1619453110.60536,1619453111.24623,1619453111.23763,1619453578.14509,1
16,4,1,3,8,6,3,c3_HowFace,2,looking to side?,66,F_111.jpg,1619452970.89815,1619452970.90835,124.824721803665,6.19518518447876,131.027034749985,133.127819290161,0.3,137.896264305115,0.666914701461792,138.571351041794,1,left,0.651075124740601,138.563179006577,604.486931791306,607.246931791306,1619453098.48288,1619453098.48394,1619453104.68519,1619453104.69619,1619453106.78597,1619453111.55442,1619453111.55611,1619453112.22951,1619453112.22133,1619453578.14509,0
16,4,1,3,8,7,3,c3_HowFace,1,looking to side?,69,F_110.jpg,1619452970.89815,1619452970.90835,124.824721803665,6.19518518447876,131.027034749985,133.127819290161,0.3,138.879963388443,0.7169349193573,139.598037948608,1,left,0.69843602180481,139.5968983078,604.486931791306,607.246931791306,1619453098.48288,1619453098.48394,1619453104.68519,1619453104.69619,1619453106.78597,1619453112.53812,1619453112.54007,1619453113.25619,1619453113.25505,1619453578.14509,1
16,4,1,3,8,8,3,c3_HowFace,2,looking to side?,65,F_798.jpg,1619452970.89815,1619452970.90835,124.824721803665,6.19518518447876,131.027034749985,133.127819290161,0.3,139.913682689667,0.633569002151489,140.554758062363,3,right,0.619387149810791,140.547251691818,604.486931791306,607.246931791306,1619453098.48288,1619453098.48394,1619453104.68519,1619453104.69619,1619453106.78597,1619453113.57184,1619453113.57365,1619453114.21291,1619453114.20541,1619453578.14509,0
16,4,1,3,9,1,1,c1_WhyFace,1,argument?,43,F_716.jpg,1619452970.89815,1619452970.90835,140.61394452095,9.51393055915833,150.134160747528,152.23494433403,2.10078358650208,152.384999980927,0.933681964874268,153.320652952194,1,left,0.922094821929932,153.318681945801,604.486931791306,607.246931791306,1619453114.2721,1619453114.27946,1619453123.79232,1619453123.79641,1619453125.8931,1619453126.04315,1619453126.04609,1619453126.97881,1619453126.97684,1619453578.14509,1
16,4,1,3,9,2,1,c1_WhyFace,2,argument?,44,F_139.jpg,1619452970.89815,1619452970.90835,140.61394452095,9.51393055915833,150.134160747528,152.23494433403,0.3,153.635465612412,0.600224256515503,154.237262954712,3,right,0.589434862136841,154.235689868927,604.486931791306,607.246931791306,1619453114.2721,1619453114.27946,1619453123.79232,1619453123.79641,1619453125.8931,1619453127.29362,1619453127.29634,1619453127.89542,1619453127.89384,1619453578.14509,0
16,4,1,3,9,3,1,c1_WhyFace,1,argument?,41,F_712.jpg,1619452970.89815,1619452970.90835,140.61394452095,9.51393055915833,150.134160747528,152.23494433403,0.3,154.552474727631,0.83364462852478,155.388105144501,1,left,0.821448087692261,155.386119356155,604.486931791306,607.246931791306,1619453114.2721,1619453114.27946,1619453123.79232,1619453123.79641,1619453125.8931,1619453128.21063,1619453128.21315,1619453129.04626,1619453129.04427,1619453578.14509,1
16,4,1,3,9,4,1,c1_WhyFace,2,argument?,45,F_433.jpg,1619452970.89815,1619452970.90835,140.61394452095,9.51393055915833,150.134160747528,152.23494433403,0.3,155.702903499603,0.783626317977905,156.487517108917,3,right,0.762301206588745,156.486529817581,604.486931791306,607.246931791306,1619453114.2721,1619453114.27946,1619453123.79232,1619453123.79641,1619453125.8931,1619453129.36106,1619453129.36308,1619453130.14567,1619453130.14468,1619453578.14509,0
16,4,1,3,9,5,1,c1_WhyFace,1,argument?,42,F_403.jpg,1619452970.89815,1619452970.90835,140.61394452095,9.51393055915833,150.134160747528,152.23494433403,0.3,156.803314914703,0.583551406860352,157.388083925247,1,left,0.571887016296387,157.386866321564,604.486931791306,607.246931791306,1619453114.2721,1619453114.27946,1619453123.79232,1619453123.79641,1619453125.8931,1619453130.46147,1619453130.46314,1619453131.04624,1619453131.04502,1619453578.14509,1
16,4,1,3,9,6,1,c1_WhyFace,2,argument?,46,F_844.jpg,1619452970.89815,1619452970.90835,140.61394452095,9.51393055915833,150.134160747528,152.23494433403,0.3,157.703650226593,0.0166728496551514,157.722095003128,1,left,0.000391006469726562,157.720323076248,604.486931791306,607.246931791306,1619453114.2721,1619453114.27946,1619453123.79232,1619453123.79641,1619453125.8931,1619453131.36181,1619453131.36357,1619453131.38025,1619453131.37848,1619453578.14509,0
16,4,1,3,9,7,1,c1_WhyFace,1,argument?,47,F_743.jpg,1619452970.89815,1619452970.90835,140.61394452095,9.51393055915833,150.134160747528,152.23494433403,0.3,158.037107219696,0.816971063613892,158.855098953247,1,left,0.80014705657959,158.85407828331,604.486931791306,607.246931791306,1619453114.2721,1619453114.27946,1619453123.79232,1619453123.79641,1619453125.8931,1619453131.69526,1619453131.69701,1619453132.51325,1619453132.51223,1619453578.14509,1
16,4,1,3,9,8,1,c1_WhyFace,1,argument?,48,F_758.jpg,1619452970.89815,1619452970.90835,140.61394452095,9.51393055915833,150.134160747528,152.23494433403,0.3,159.170863857269,1.00037264823914,160.172183027267,1,left,0.991083145141602,160.171236505508,604.486931791306,607.246931791306,1619453114.2721,1619453114.27946,1619453123.79232,1619453123.79641,1619453125.8931,1619453132.82902,1619453132.83063,1619453133.83034,1619453133.82939,1619453578.14509,1
16,4,1,3,10,1,3,c3_HowFace,1,open mouth?,80,F_844.jpg,1619452970.89815,1619452970.90835,160.237928142548,7.73001885414124,167.974147071838,170.074930896759,2.10078382492065,170.2249858284,0.633570194244385,170.859761943817,1,left,0.602749824523926,170.858556022644,604.486931791306,607.246931791306,1619453133.89608,1619453133.89752,1619453141.6323,1619453141.64642,1619453143.73309,1619453143.88314,1619453143.89738,1619453144.51792,1619453144.51671,1619453578.14509,1
16,4,1,3,10,2,3,c3_HowFace,1,open mouth?,74,F_776.jpg,1619452970.89815,1619452970.90835,160.237928142548,7.73001885414124,167.974147071838,170.074930896759,0.3,171.175340881348,0.516858816146851,171.693872919083,1,left,0.495208978652954,171.692199697495,604.486931791306,607.246931791306,1619453133.89608,1619453133.89752,1619453141.6323,1619453141.64642,1619453143.73309,1619453144.8335,1619453144.83537,1619453145.35203,1619453145.35035,1619453578.14509,1
16,4,1,3,10,3,3,c3_HowFace,2,open mouth?,76,F_544.jpg,1619452970.89815,1619452970.90835,160.237928142548,7.73001885414124,167.974147071838,170.074930896759,0.3,172.008985271454,0.666914939880371,172.677258958817,3,right,0.645632028579712,172.675900211334,604.486931791306,607.246931791306,1619453133.89608,1619453133.89752,1619453141.6323,1619453141.64642,1619453143.73309,1619453145.66714,1619453145.66926,1619453146.33541,1619453146.33406,1619453578.14509,0
16,4,1,3,10,4,3,c3_HowFace,1,open mouth?,78,F_692.jpg,1619452970.89815,1619452970.90835,160.237928142548,7.73001885414124,167.974147071838,170.074930896759,0.3,172.992685546875,0.533531665802002,173.527997961044,1,left,0.52003002166748,173.526217212677,604.486931791306,607.246931791306,1619453133.89608,1619453133.89752,1619453141.6323,1619453141.64642,1619453143.73309,1619453146.65084,1619453146.6522,1619453147.18615,1619453147.18437,1619453578.14509,1
16,4,1,3,10,5,3,c3_HowFace,2,open mouth?,77,F_584.jpg,1619452970.89815,1619452970.90835,160.237928142548,7.73001885414124,167.974147071838,170.074930896759,0.3,173.843001594543,0.566878318786621,174.410962095261,3,right,0.551326990127563,174.40987991333,604.486931791306,607.246931791306,1619453133.89608,1619453133.89752,1619453141.6323,1619453141.64642,1619453143.73309,1619453147.50116,1619453147.50286,1619453148.06912,1619453148.06803,1619453578.14509,0
16,4,1,3,10,6,3,c3_HowFace,1,open mouth?,73,F_403.jpg,1619452970.89815,1619452970.90835,160.237928142548,7.73001885414124,167.974147071838,170.074930896759,0.3,174.726665010452,0.483514070510864,175.22108792305,1,left,0.47527003288269,175.210179080963,604.486931791306,607.246931791306,1619453133.89608,1619453133.89752,1619453141.6323,1619453141.64642,1619453143.73309,1619453148.38482,1619453148.38628,1619453148.87924,1619453148.86833,1619453578.14509,1
16,4,1,3,10,7,3,c3_HowFace,1,open mouth?,75,F_086.jpg,1619452970.89815,1619452970.90835,160.237928142548,7.73001885414124,167.974147071838,170.074930896759,0.3,175.526963701248,0.650242567062378,176.178911914825,1,left,0.627745866775513,176.177206268311,604.486931791306,607.246931791306,1619453133.89608,1619453133.89752,1619453141.6323,1619453141.64642,1619453143.73309,1619453149.18512,1619453149.18699,1619453149.83707,1619453149.83536,1619453578.14509,1
16,4,1,3,10,8,3,c3_HowFace,2,open mouth?,79,F_648.jpg,1619452970.89815,1619452970.90835,160.237928142548,7.73001885414124,167.974147071838,170.074930896759,0.3,176.493990888596,0.600224018096924,177.095329990387,3,right,0.582818031311035,177.094214906693,604.486931791306,607.246931791306,1619453133.89608,1619453133.89752,1619453141.6323,1619453141.64642,1619453143.73309,1619453150.15215,1619453150.1538,1619453150.75348,1619453150.75237,1619453578.14509,0
16,4,1,3,11,1,4,c4_HowHand,1,pressing button?,88,H_019.jpg,1619452970.89815,1619452970.90835,177.160905828476,8.69703125953674,185.864151706696,187.964933385849,2.10078167915344,188.114990224838,0.73360800743103,188.854885091782,1,left,0.717467069625854,188.848598232269,604.486931791306,607.246931791306,1619453150.81906,1619453150.82063,1619453159.52231,1619453159.52965,1619453161.62309,1619453161.77315,1619453161.77974,1619453162.51304,1619453162.50675,1619453578.14509,1
16,4,1,3,11,2,4,c4_HowHand,2,pressing button?,87,H_024.jpg,1619452970.89815,1619452970.90835,177.160905828476,8.69703125953674,185.864151706696,187.964933385849,0.3,189.165383329391,0.733607053756714,189.903990020752,3,right,0.723903179168701,189.898990383148,604.486931791306,607.246931791306,1619453150.81906,1619453150.82063,1619453159.52231,1619453159.52965,1619453161.62309,1619453162.82354,1619453162.82555,1619453163.56214,1619453163.55715,1619453578.14509,0
16,4,1,3,11,3,4,c4_HowHand,2,pressing button?,85,H_130.jpg,1619452970.89815,1619452970.90835,177.160905828476,8.69703125953674,185.864151706696,187.964933385849,0.3,190.215773334503,0.650243282318115,190.871381988525,3,right,0.633672952651978,190.866016616821,604.486931791306,607.246931791306,1619453150.81906,1619453150.82063,1619453159.52231,1619453159.52965,1619453161.62309,1619453163.87393,1619453163.87568,1619453164.52954,1619453164.52417,1619453578.14509,0
16,4,1,3,11,4,4,c4_HowHand,1,pressing button?,83,H_502.jpg,1619452970.89815,1619452970.90835,177.160905828476,8.69703125953674,185.864151706696,187.964933385849,0.3,191.182802429199,0.600223541259766,191.787833919525,1,left,0.584716081619263,191.783025970459,604.486931791306,607.246931791306,1619453150.81906,1619453150.82063,1619453159.52231,1619453159.52965,1619453161.62309,1619453164.84096,1619453164.84272,1619453165.44599,1619453165.44118,1619453578.14509,1
16,4,1,3,11,5,4,c4_HowHand,2,pressing button?,81,H_261.jpg,1619452970.89815,1619452970.90835,177.160905828476,8.69703125953674,185.864151706696,187.964933385849,0.3,192.099810829163,0.666915416717529,192.770904054642,3,right,0.65365195274353,192.76672624588,604.486931791306,607.246931791306,1619453150.81906,1619453150.82063,1619453159.52231,1619453159.52965,1619453161.62309,1619453165.75797,1619453165.76269,1619453166.42906,1619453166.42488,1619453578.14509,0
16,4,1,3,11,6,4,c4_HowHand,1,pressing button?,86,H_332.jpg,1619452970.89815,1619452970.90835,177.160905828476,8.69703125953674,185.864151706696,187.964933385849,0.3,193.083510627747,0.600223541259766,193.687299957275,1,left,0.588039875030518,193.683734169006,604.486931791306,607.246931791306,1619453150.81906,1619453150.82063,1619453159.52231,1619453159.52965,1619453161.62309,1619453166.74167,1619453166.74608,1619453167.34545,1619453167.34189,1619453578.14509,1
16,4,1,3,11,7,4,c4_HowHand,1,pressing button?,82,H_126.jpg,1619452970.89815,1619452970.90835,177.160905828476,8.69703125953674,185.864151706696,187.964933385849,0.3,194.000518550873,0.633570194244385,194.637838115692,1,left,0.623953104019165,194.634088745117,604.486931791306,607.246931791306,1619453150.81906,1619453150.82063,1619453159.52231,1619453159.52965,1619453161.62309,1619453167.65867,1619453167.6629,1619453168.29599,1619453168.29224,1619453578.14509,1
16,4,1,3,11,8,4,c4_HowHand,1,pressing button?,84,H_483.jpg,1619452970.89815,1619452970.90835,177.160905828476,8.69703125953674,185.864151706696,187.964933385849,0.3,194.950873603821,0.733607530593872,195.687341918945,1,left,0.716684818267822,195.684481134415,604.486931791306,607.246931791306,1619453150.81906,1619453150.82063,1619453159.52231,1619453159.52965,1619453161.62309,1619453168.60903,1619453168.61278,1619453169.3455,1619453169.34264,1619453578.14509,1
16,4,1,3,12,1,2,c2_WhyHand,1,competing?,9,H_261.jpg,1619452970.89815,1619452970.90835,195.767845144272,7.88008594512939,203.654119958878,205.754901399612,2.10078144073486,205.904958715439,0.600223302841187,206.506184091568,1,left,0.590818881988525,206.50518201828,604.486931791306,607.246931791306,1619453169.426,1619453169.42937,1619453177.31227,1619453177.31385,1619453179.41306,1619453179.56311,1619453179.56503,1619453180.16434,1619453180.16334,1619453578.14509,1
16,4,1,3,12,2,2,c2_WhyHand,2,competing?,12,H_483.jpg,1619452970.89815,1619452970.90835,195.767845144272,7.88008594512939,203.654119958878,205.754901399612,0.3,206.821968069077,0.566877365112305,207.389838924408,3,right,0.55246901512146,207.388845434189,604.486931791306,607.246931791306,1619453169.426,1619453169.42937,1619453177.31227,1619453177.31385,1619453179.41306,1619453180.48012,1619453180.48187,1619453181.04799,1619453181.047,1619453578.14509,0
16,4,1,3,12,3,2,c2_WhyHand,1,competing?,14,H_132.jpg,1619452970.89815,1619452970.90835,195.767845144272,7.88008594512939,203.654119958878,205.754901399612,0.3,207.705628862381,0.583551645278931,208.290246953964,1,left,0.568455934524536,208.28918050766,604.486931791306,607.246931791306,1619453169.426,1619453169.42937,1619453177.31227,1619453177.31385,1619453179.41306,1619453181.36378,1619453181.36544,1619453181.9484,1619453181.94734,1619453578.14509,1
16,4,1,3,12,4,2,c2_WhyHand,2,competing?,10,H_126.jpg,1619452970.89815,1619452970.90835,195.767845144272,7.88008594512939,203.654119958878,205.754901399612,0.3,208.605965843201,0.550204992294312,209.157243003845,3,right,0.536336183547974,209.156170835495,604.486931791306,607.246931791306,1619453169.426,1619453169.42937,1619453177.31227,1619453177.31385,1619453179.41306,1619453182.26412,1619453182.26581,1619453182.8154,1619453182.81433,1619453578.14509,0
16,4,1,3,12,5,2,c2_WhyHand,1,competing?,16,H_136.jpg,1619452970.89815,1619452970.90835,195.767845144272,7.88008594512939,203.654119958878,205.754901399612,0.3,209.472955932617,0.616897106170654,210.090862979889,1,left,0.599360942840576,210.089853038788,604.486931791306,607.246931791306,1619453169.426,1619453169.42937,1619453177.31227,1619453177.31385,1619453179.41306,1619453183.13111,1619453183.1327,1619453183.74902,1619453183.74801,1619453578.14509,1
16,4,1,3,12,6,2,c2_WhyHand,2,competing?,11,H_502.jpg,1619452970.89815,1619452970.90835,195.767845144272,7.88008594512939,203.654119958878,205.754901399612,0.3,210.40663813591,1.21712017059326,211.624792089462,3,right,1.20036292076111,211.623758306503,604.486931791306,607.246931791306,1619453169.426,1619453169.42937,1619453177.31227,1619453177.31385,1619453179.41306,1619453184.06479,1619453184.06683,1619453185.28295,1619453185.28191,1619453578.14509,0
16,4,1,3,12,7,2,c2_WhyHand,1,competing?,13,H_003.jpg,1619452970.89815,1619452970.90835,195.767845144272,7.88008594512939,203.654119958878,205.754901399612,0.3,211.940543165207,0.633569002151489,212.575591077805,1,left,0.614401817321777,212.574112167358,604.486931791306,607.246931791306,1619453169.426,1619453169.42937,1619453177.31227,1619453177.31385,1619453179.41306,1619453185.5987,1619453185.60061,1619453186.23375,1619453186.23227,1619453578.14509,1
16,4,1,3,12,8,2,c2_WhyHand,1,competing?,15,H_170.jpg,1619452970.89815,1619452970.90835,195.767845144272,7.88008594512939,203.654119958878,205.754901399612,0.3,212.890897979736,0.63356876373291,213.526108970642,1,left,0.618565082550049,213.524466743469,604.486931791306,607.246931791306,1619453169.426,1619453169.42937,1619453177.31227,1619453177.31385,1619453179.41306,1619453186.54905,1619453186.55082,1619453187.18426,1619453187.18262,1619453578.14509,1
16,4,1,3,13,1,1,c1_WhyFace,1,self-doubt?,29,F_544.jpg,1619452970.89815,1619452970.90835,213.591158618927,8.12676930427551,221.72752617836,223.828309049606,2.10078287124634,223.978364458084,0.917008638381958,224.904443969727,1,left,0.898796081542969,224.895373096466,604.486931791306,607.246931791306,1619453187.24931,1619453187.25123,1619453195.38568,1619453195.3965,1619453197.48646,1619453197.63652,1619453197.64688,1619453198.5626,1619453198.55353,1619453578.14509,1
16,4,1,3,13,2,1,c1_WhyFace,2,self-doubt?,27,F_086.jpg,1619452970.89815,1619452970.90835,213.591158618927,8.12676930427551,221.72752617836,223.828309049606,0.3,225.212159385681,0.816970348358154,226.038049926758,3,right,0.805789947509766,226.029129734039,604.486931791306,607.246931791306,1619453187.24931,1619453187.25123,1619453195.38568,1619453195.3965,1619453197.48646,1619453198.87031,1619453198.87208,1619453199.6962,1619453199.68728,1619453578.14509,0
16,4,1,3,13,3,1,c1_WhyFace,1,self-doubt?,25,F_798.jpg,1619452970.89815,1619452970.90835,213.591158618927,8.12676930427551,221.72752617836,223.828309049606,0.3,226.345914592743,0.733607053756714,227.087966909409,1,left,0.722115993499756,227.0795216465,604.486931791306,607.246931791306,1619453187.24931,1619453187.25123,1619453195.38568,1619453195.3965,1619453197.48646,1619453200.00407,1619453200.00558,1619453200.74612,1619453200.73768,1619453578.14509,1
16,4,1,3,13,4,1,c1_WhyFace,1,self-doubt?,26,F_111.jpg,1619452970.89815,1619452970.90835,213.591158618927,8.12676930427551,221.72752617836,223.828309049606,0.3,227.39630698204,0.683588027954102,228.080929985046,1,left,0.666207075119019,228.079895009995,604.486931791306,607.246931791306,1619453187.24931,1619453187.25123,1619453195.38568,1619453195.3965,1619453197.48646,1619453201.05446,1619453201.05645,1619453201.73908,1619453201.73805,1619453578.14509,1
16,4,1,3,13,5,1,c1_WhyFace,2,self-doubt?,31,F_774.jpg,1619452970.89815,1619452970.90835,213.591158618927,8.12676930427551,221.72752617836,223.828309049606,0.3,228.396679868698,0.566878080368042,228.970710983276,3,right,0.555091142654419,228.963557949066,604.486931791306,607.246931791306,1619453187.24931,1619453187.25123,1619453195.38568,1619453195.3965,1619453197.48646,1619453202.05483,1619453202.05676,1619453202.62887,1619453202.62171,1619453578.14509,0
16,4,1,3,13,6,1,c1_WhyFace,1,self-doubt?,28,F_754.jpg,1619452970.89815,1619452970.90835,213.591158618927,8.12676930427551,221.72752617836,223.828309049606,0.3,229.28034280777,0.683588266372681,229.971101989746,1,left,0.671605110168457,229.963931074142,604.486931791306,607.246931791306,1619453187.24931,1619453187.25123,1619453195.38568,1619453195.3965,1619453197.48646,1619453202.9385,1619453202.94012,1619453203.62926,1619453203.62209,1619453578.14509,1
16,4,1,3,13,7,1,c1_WhyFace,2,self-doubt?,32,F_128.jpg,1619452970.89815,1619452970.90835,213.591158618927,8.12676930427551,221.72752617836,223.828309049606,0.3,230.280715456009,1.00037288665771,231.288170089722,1,left,0.988556861877441,231.281088342667,604.486931791306,607.246931791306,1619453187.24931,1619453187.25123,1619453195.38568,1619453195.3965,1619453197.48646,1619453203.93887,1619453203.94051,1619453204.94633,1619453204.93924,1619453578.14509,0
16,4,1,3,13,8,1,c1_WhyFace,1,self-doubt?,30,F_584.jpg,1619452970.89815,1619452970.90835,213.591158618927,8.12676930427551,221.72752617836,223.828309049606,0.3,231.597873916626,0.0166728496551514,231.62177895546,1,left,0.000342130661010742,231.614546766281,604.486931791306,607.246931791306,1619453187.24931,1619453187.25123,1619453195.38568,1619453195.3965,1619453197.48646,1619453205.25603,1619453205.2578,1619453205.27993,1619453205.2727,1619453578.14509,1
16,4,1,3,14,1,3,c3_HowFace,1,looking at camera?,64,F_128.jpg,1619452970.89815,1619452970.90835,231.697911252975,9.07400274276733,240.784631719589,242.885416021347,2.10078430175781,243.035472145081,0.683588027954102,243.720684995651,1,left,0.662300825119019,243.719060173035,604.486931791306,607.246931791306,1619453205.35607,1619453205.35806,1619453214.44279,1619453214.44658,1619453216.54357,1619453216.69363,1619453216.69607,1619453217.37884,1619453217.37722,1619453578.14509,1
16,4,1,3,14,2,3,c3_HowFace,1,looking at camera?,60,F_618.jpg,1619452970.89815,1619452970.90835,231.697911252975,9.07400274276733,240.784631719589,242.885416021347,0.3,244.035845746994,0.583549976348877,244.62126206398,1,left,0.564831018447876,244.619395723343,604.486931791306,607.246931791306,1619453205.35607,1619453205.35806,1619453214.44279,1619453214.44658,1619453216.54357,1619453217.694,1619453217.69612,1619453218.27942,1619453218.27755,1619453578.14509,1
16,4,1,3,14,3,3,c3_HowFace,1,looking at camera?,62,F_598.jpg,1619452970.89815,1619452970.90835,231.697911252975,9.07400274276733,240.784631719589,242.885416021347,0.3,244.936181535721,0.566877126693726,245.505070915222,1,left,0.555217981338501,245.503058662415,604.486931791306,607.246931791306,1619453205.35607,1619453205.35806,1619453214.44279,1619453214.44658,1619453216.54357,1619453218.59434,1619453218.59613,1619453219.16323,1619453219.16121,1619453578.14509,1
16,4,1,3,14,4,3,c3_HowFace,2,looking at camera?,63,F_743.jpg,1619452970.89815,1619452970.90835,231.697911252975,9.07400274276733,240.784631719589,242.885416021347,0.3,245.819843759537,0.583551406860352,246.404400100708,3,right,0.567131996154785,246.403395166397,604.486931791306,607.246931791306,1619453205.35607,1619453205.35806,1619453214.44279,1619453214.44658,1619453216.54357,1619453219.478,1619453219.47973,1619453220.06256,1619453220.06155,1619453578.14509,0
16,4,1,3,14,5,3,c3_HowFace,1,looking at camera?,61,F_774.jpg,1619452970.89815,1619452970.90835,231.697911252975,9.07400274276733,240.784631719589,242.885416021347,0.3,246.720179309845,0.583551645278931,247.305220117569,1,left,0.567387104034424,247.303730955124,604.486931791306,607.246931791306,1619453205.35607,1619453205.35806,1619453214.44279,1619453214.44658,1619453216.54357,1619453220.37833,1619453220.38023,1619453220.96338,1619453220.96189,1619453578.14509,1
16,4,1,3,14,6,3,c3_HowFace,2,looking at camera?,57,F_582.jpg,1619452970.89815,1619452970.90835,231.697911252975,9.07400274276733,240.784631719589,242.885416021347,0.3,247.620514860153,0.733607053756714,248.355252971649,3,right,0.718961000442505,248.35412191391,604.486931791306,607.246931791306,1619453205.35607,1619453205.35806,1619453214.44279,1619453214.44658,1619453216.54357,1619453221.27867,1619453221.28014,1619453222.01341,1619453222.01228,1619453578.14509,0
16,4,1,3,14,7,3,c3_HowFace,2,looking at camera?,58,F_754.jpg,1619452970.89815,1619452970.90835,231.697911252975,9.07400274276733,240.784631719589,242.885416021347,0.3,248.670906772614,0.783625841140747,249.455817928314,3,right,0.773504972457886,249.454532613754,604.486931791306,607.246931791306,1619453205.35607,1619453205.35806,1619453214.44279,1619453214.44658,1619453216.54357,1619453222.32906,1619453222.33066,1619453223.11397,1619453223.11269,1619453578.14509,0
16,4,1,3,14,8,3,c3_HowFace,1,looking at camera?,59,F_129.jpg,1619452970.89815,1619452970.90835,231.697911252975,9.07400274276733,240.784631719589,242.885416021347,0.3,249.771317949295,0.683587789535522,250.455924978256,1,left,0.669155836105347,250.454905738831,604.486931791306,607.246931791306,1619453205.35607,1619453205.35806,1619453214.44279,1619453214.44658,1619453216.54357,1619453223.42947,1619453223.43078,1619453224.11408,1619453224.11306,1619453578.14509,1
16,4,1,3,15,1,4,c4_HowHand,1,both hands?,123,H_167.jpg,1619452970.89815,1619452970.90835,250.521596899033,9.04038715362549,259.57497428894,261.67575668335,2.10078239440918,261.825812807083,0.700261354446411,262.527259101868,1,left,0.677182197570801,262.52607416153,604.486931791306,607.246931791306,1619453224.17975,1619453224.18061,1619453233.23313,1619453233.23513,1619453235.33391,1619453235.48397,1619453235.48569,1619453236.18541,1619453236.18423,1619453578.14509,1
16,4,1,3,15,2,4,c4_HowHand,2,both hands?,121,H_091.jpg,1619452970.89815,1619452970.90835,250.521596899033,9.04038715362549,259.57497428894,261.67575668335,0.3,262.84285782814,0.550205945968628,263.394253005981,3,right,0.529238224029541,263.393063774109,604.486931791306,607.246931791306,1619453224.17975,1619453224.18061,1619453233.23313,1619453233.23513,1619453235.33391,1619453236.50101,1619453236.50288,1619453237.05241,1619453237.05122,1619453578.14509,0
16,4,1,3,15,3,4,c4_HowHand,2,both hands?,125,H_627.jpg,1619452970.89815,1619452970.90835,250.521596899033,9.04038715362549,259.57497428894,261.67575668335,0.3,263.709848871231,0.700261354446411,264.411261072159,1,left,0.684287071228027,264.410110225677,604.486931791306,607.246931791306,1619453224.17975,1619453224.18061,1619453233.23313,1619453233.23513,1619453235.33391,1619453237.368,1619453237.36967,1619453238.06942,1619453238.06827,1619453578.14509,0
16,4,1,3,15,4,4,c4_HowHand,1,both hands?,128,H_027.jpg,1619452970.89815,1619452970.90835,250.521596899033,9.04038715362549,259.57497428894,261.67575668335,0.3,264.726894607544,0.0166728496551514,264.745105018616,3,right,0.000286102294921875,264.743567457199,604.486931791306,607.246931791306,1619453224.17975,1619453224.18061,1619453233.23313,1619453233.23513,1619453235.33391,1619453238.38505,1619453238.38657,1619453238.40326,1619453238.40172,1619453578.14509,0
16,4,1,3,15,5,4,c4_HowHand,1,both hands?,122,H_111.jpg,1619452970.89815,1619452970.90835,250.521596899033,9.04038715362549,259.57497428894,261.67575668335,0.3,265.060351362228,0.800299167633057,265.871431102753,1,left,0.789557933807373,265.860650529861,604.486931791306,607.246931791306,1619453224.17975,1619453224.18061,1619453233.23313,1619453233.23513,1619453235.33391,1619453238.71851,1619453238.72046,1619453239.52959,1619453239.51881,1619453578.14509,1
16,4,1,3,15,6,4,c4_HowHand,2,both hands?,126,H_159.jpg,1619452970.89815,1619452970.90835,250.521596899033,9.04038715362549,259.57497428894,261.67575668335,0.3,266.177435626984,0.750279188156128,266.9380240345,3,right,0.737791061401367,266.92771481514,604.486931791306,607.246931791306,1619453224.17975,1619453224.18061,1619453233.23313,1619453233.23513,1619453235.33391,1619453239.83559,1619453239.83737,1619453240.59618,1619453240.58587,1619453578.14509,0
16,4,1,3,15,7,4,c4_HowHand,1,both hands?,124,H_581.jpg,1619452970.89815,1619452970.90835,250.521596899033,9.04038715362549,259.57497428894,261.67575668335,0.3,267.244500627518,1.06706476211548,268.321300973892,3,right,1.06025505065918,268.311565389633,604.486931791306,607.246931791306,1619453224.17975,1619453224.18061,1619453233.23313,1619453233.23513,1619453235.33391,1619453240.90266,1619453240.90435,1619453241.97946,1619453241.96972,1619453578.14509,0
16,4,1,3,15,8,4,c4_HowHand,1,both hands?,127,H_349.jpg,1619452970.89815,1619452970.90835,250.521596899033,9.04038715362549,259.57497428894,261.67575668335,0.3,268.628350248337,0.700260639190674,269.329674949646,1,left,0.684277057647705,269.328610887527,604.486931791306,607.246931791306,1619453224.17975,1619453224.18061,1619453233.23313,1619453233.23513,1619453235.33391,1619453242.28651,1619453242.28825,1619453242.98783,1619453242.98677,1619453578.14509,1
16,4,1,3,16,1,2,c2_WhyHand,1,self-protection?,89,H_443.jpg,1619452970.89815,1619452970.90835,269.411973705292,8.93993425369263,278.365313520432,280.466098299026,2.10078477859497,280.616152992249,0.93368124961853,281.554629077911,1,left,0.919245004653931,281.549834241867,604.486931791306,607.246931791306,1619453243.07013,1619453243.0719,1619453252.02347,1619453252.03012,1619453254.12425,1619453254.27431,1619453254.27945,1619453255.21278,1619453255.20799,1619453578.14509,1
16,4,1,3,16,2,2,c2_WhyHand,2,self-protection?,90,H_006.jpg,1619452970.89815,1619452970.90835,269.411973705292,8.93993425369263,278.365313520432,280.466098299026,0.3,281.866618862152,0.75028133392334,282.621401062012,3,right,0.729142904281616,282.616900196075,604.486931791306,607.246931791306,1619453243.07013,1619453243.0719,1619453252.02347,1619453252.03012,1619453254.12425,1619453255.52477,1619453255.52944,1619453256.27956,1619453256.27506,1619453578.14509,0
16,4,1,3,16,3,2,c2_WhyHand,1,self-protection?,91,H_581.jpg,1619452970.89815,1619452970.90835,269.411973705292,8.93993425369263,278.365313520432,280.466098299026,0.3,282.933684101105,0.816971063613892,283.754038085938,1,left,0.800655841827393,283.750655164719,604.486931791306,607.246931791306,1619453243.07013,1619453243.0719,1619453252.02347,1619453252.03012,1619453254.12425,1619453256.59184,1619453256.5958,1619453257.41219,1619453257.40881,1619453578.14509,1
16,4,1,3,16,4,2,c2_WhyHand,2,self-protection?,92,H_532.jpg,1619452970.89815,1619452970.90835,269.411973705292,8.93993425369263,278.365313520432,280.466098299026,0.3,284.067440738678,0.733606100082397,284.802883138657,3,right,0.709191083908081,284.80104683876,604.486931791306,607.246931791306,1619453243.07013,1619453243.0719,1619453252.02347,1619453252.03012,1619453254.12425,1619453257.7256,1619453257.72955,1619453258.46104,1619453258.4592,1619453578.14509,0
16,4,1,3,16,5,2,c2_WhyHand,1,self-protection?,96,H_027.jpg,1619452970.89815,1619452970.90835,269.411973705292,8.93993425369263,278.365313520432,280.466098299026,0.3,285.117830505371,0.783627033233643,285.904000988007,1,left,0.770086050033569,285.901457538605,604.486931791306,607.246931791306,1619453243.07013,1619453243.0719,1619453252.02347,1619453252.03012,1619453254.12425,1619453258.77599,1619453258.77949,1619453259.56216,1619453259.55961,1619453578.14509,1
16,4,1,3,16,6,2,c2_WhyHand,1,self-protection?,93,H_038.jpg,1619452970.89815,1619452970.90835,269.411973705292,8.93993425369263,278.365313520432,280.466098299026,0.3,286.218243350983,0.633568525314331,286.854691972733,3,right,0.617861986160278,286.851811876297,604.486931791306,607.246931791306,1619453243.07013,1619453243.0719,1619453252.02347,1619453252.03012,1619453254.12425,1619453259.8764,1619453259.87965,1619453260.51285,1619453260.50997,1619453578.14509,0
16,4,1,3,16,7,2,c2_WhyHand,2,self-protection?,95,H_332.jpg,1619452970.89815,1619452970.90835,269.411973705292,8.93993425369263,278.365313520432,280.466098299026,0.3,287.168596973419,0.933681011199951,288.104799022675,3,right,0.918643951416016,288.102277984619,604.486931791306,607.246931791306,1619453243.07013,1619453243.0719,1619453252.02347,1619453252.03012,1619453254.12425,1619453260.82675,1619453260.8294,1619453261.76295,1619453261.76043,1619453578.14509,0
16,4,1,3,16,8,2,c2_WhyHand,1,self-protection?,94,H_189.jpg,1619452970.89815,1619452970.90835,269.411973705292,8.93993425369263,278.365313520432,280.466098299026,0.3,288.419063796997,0.600223541259766,289.020725955963,1,left,0.581140995025635,289.019287338257,604.486931791306,607.246931791306,1619453243.07013,1619453243.0719,1619453252.02347,1619453252.03012,1619453254.12425,1619453262.07722,1619453262.0797,1619453262.67888,1619453262.67744,1619453578.14509,1
16,4,1,3,17,1,3,c3_HowFace,1,smiling?,118,F_759.jpg,1619452970.89815,1619452970.90835,289.10265206337,10.7292468547821,299.839988698959,301.94077252388,2.10078382492065,302.090829124451,0.566877603530884,302.658965101242,1,left,0.549355983734131,302.657706727982,604.486931791306,607.246931791306,1619453262.76081,1619453262.76279,1619453273.49814,1619453273.49991,1619453275.59893,1619453275.74898,1619453275.75083,1619453276.31712,1619453276.31586,1619453578.14509,1
16,4,1,3,17,2,3,c3_HowFace,2,smiling?,114,F_412.jpg,1619452970.89815,1619452970.90835,289.10265206337,10.7292468547821,299.839988698959,301.94077252388,0.3,302.974492063522,0.61689567565918,303.592607965469,3,right,0.598019123077393,303.591387739182,604.486931791306,607.246931791306,1619453262.76081,1619453262.76279,1619453273.49814,1619453273.49991,1619453275.59893,1619453276.63265,1619453276.63411,1619453277.25076,1619453277.24954,1619453578.14509,0
16,4,1,3,17,3,3,c3_HowFace,1,smiling?,117,F_593.jpg,1619452970.89815,1619452970.90835,289.10265206337,10.7292468547821,299.839988698959,301.94077252388,0.3,303.908172836304,0.500186920166016,304.409767141342,1,left,0.48704195022583,304.40835975647,604.486931791306,607.246931791306,1619453262.76081,1619453262.76279,1619453273.49814,1619453273.49991,1619453275.59893,1619453277.56633,1619453277.56804,1619453278.06792,1619453278.06651,1619453578.14509,1
16,4,1,3,17,4,3,c3_HowFace,2,smiling?,113,F_712.jpg,1619452970.89815,1619452970.90835,289.10265206337,10.7292468547821,299.839988698959,301.94077252388,0.3,304.725145568848,0.600222587585449,305.326827039719,3,right,0.583972930908203,305.325368156433,604.486931791306,607.246931791306,1619453262.76081,1619453262.76279,1619453273.49814,1619453273.49991,1619453275.59893,1619453278.3833,1619453278.38514,1619453278.98498,1619453278.98352,1619453578.14509,0
16,4,1,3,17,5,3,c3_HowFace,1,smiling?,115,F_695.jpg,1619452970.89815,1619452970.90835,289.10265206337,10.7292468547821,299.839988698959,301.94077252388,0.3,305.642153015137,0.55020546913147,306.204115142822,1,left,0.541423082351685,306.192358484268,604.486931791306,607.246931791306,1619453262.76081,1619453262.76279,1619453273.49814,1619453273.49991,1619453275.59893,1619453279.30031,1619453279.30173,1619453279.86227,1619453279.85051,1619453578.14509,1
16,4,1,3,17,6,3,c3_HowFace,1,smiling?,119,F_139.jpg,1619452970.89815,1619452970.90835,289.10265206337,10.7292468547821,299.839988698959,301.94077252388,0.3,306.50914358139,0.650240898132324,307.17140912056,1,left,0.636900186538696,307.159384479523,604.486931791306,607.246931791306,1619453262.76081,1619453262.76279,1619453273.49814,1619453273.49991,1619453275.59893,1619453280.1673,1619453280.16928,1619453280.82956,1619453280.81754,1619453578.14509,1
16,4,1,3,17,7,3,c3_HowFace,1,smiling?,116,F_083.jpg,1619452970.89815,1619452970.90835,289.10265206337,10.7292468547821,299.839988698959,301.94077252388,0.3,307.476169815063,0.600224494934082,308.078001012802,1,left,0.580814123153687,308.076394309998,604.486931791306,607.246931791306,1619453262.76081,1619453262.76279,1619453273.49814,1619453273.49991,1619453275.59893,1619453281.13432,1619453281.13613,1619453281.73616,1619453281.73455,1619453578.14509,1
16,4,1,3,17,8,3,c3_HowFace,2,smiling?,120,F_758.jpg,1619452970.89815,1619452970.90835,289.10265206337,10.7292468547821,299.839988698959,301.94077252388,0.3,308.393178691864,0.616896867752075,309.011100997925,3,right,0.597826957702637,309.010075559616,604.486931791306,607.246931791306,1619453262.76081,1619453262.76279,1619453273.49814,1619453273.49991,1619453275.59893,1619453282.05133,1619453282.05291,1619453282.66926,1619453282.66823,1619453578.14509,0
16,4,1,3,18,1,1,c1_WhyFace,1,admiring?,1,F_593.jpg,1619452970.89815,1619452970.90835,309.076766719818,8.54521942138672,317.629956951141,319.730739822388,2.10078287124634,319.880794992447,0.783627033233643,320.671126117706,1,left,0.763764142990112,320.664422025681,604.486931791306,607.246931791306,1619453282.73492,1619453282.74611,1619453291.28811,1619453291.29627,1619453293.38889,1619453293.53895,1619453293.54638,1619453294.32928,1619453294.32258,1619453578.14509,1
16,4,1,3,18,2,1,c1_WhyFace,2,admiring?,2,F_129.jpg,1619452970.89815,1619452970.90835,309.076766719818,8.54521942138672,317.629956951141,319.730739822388,0.3,320.981207122803,0.616896152496338,321.604112138748,1,left,0.605041980743408,321.598103275299,604.486931791306,607.246931791306,1619453282.73492,1619453282.74611,1619453291.28811,1619453291.29627,1619453293.38889,1619453294.63936,1619453294.64111,1619453295.26227,1619453295.25626,1619453578.14509,0
16,4,1,3,18,3,1,c1_WhyFace,1,admiring?,5,F_759.jpg,1619452970.89815,1619452970.90835,309.076766719818,8.54521942138672,317.629956951141,319.730739822388,0.3,321.914888372421,0.533532857894897,322.454774131775,1,left,0.516731023788452,322.448421230316,604.486931791306,607.246931791306,1619453282.73492,1619453282.74611,1619453291.28811,1619453291.29627,1619453293.38889,1619453295.57304,1619453295.57488,1619453296.11293,1619453296.10658,1619453578.14509,1
16,4,1,3,18,4,1,c1_WhyFace,2,admiring?,6,F_692.jpg,1619452970.89815,1619452970.90835,309.076766719818,8.54521942138672,317.629956951141,319.730739822388,0.3,322.765204896927,0.883663177490234,323.65450214386,3,right,0.872443914413452,323.648868074417,604.486931791306,607.246931791306,1619453282.73492,1619453282.74611,1619453291.28811,1619453291.29627,1619453293.38889,1619453296.42336,1619453296.42518,1619453297.31266,1619453297.30702,1619453578.14509,0
16,4,1,3,18,5,1,c1_WhyFace,1,admiring?,4,F_779.jpg,1619452970.89815,1619452970.90835,309.076766719818,8.54521942138672,317.629956951141,319.730739822388,0.3,323.965652694702,0.550205230712891,324.520719995499,1,left,0.533479928970337,324.515857925415,604.486931791306,607.246931791306,1619453282.73492,1619453282.74611,1619453291.28811,1619453291.29627,1619453293.38889,1619453297.62381,1619453297.62555,1619453298.17887,1619453298.17401,1619453578.14509,1
16,4,1,3,18,6,1,c1_WhyFace,1,admiring?,8,F_590.jpg,1619452970.89815,1619452970.90835,309.076766719818,8.54521942138672,317.629956951141,319.730739822388,0.3,324.832643022537,0.666914463043213,325.504845132828,1,left,0.65149188041687,325.49955748558,604.486931791306,607.246931791306,1619453282.73492,1619453282.74611,1619453291.28811,1619453291.29627,1619453293.38889,1619453298.4908,1619453298.4929,1619453299.163,1619453299.15771,1619453578.14509,1
16,4,1,3,18,7,1,c1_WhyFace,1,admiring?,7,F_648.jpg,1619452970.89815,1619452970.90835,309.076766719818,8.54521942138672,317.629956951141,319.730739822388,0.3,325.816343297958,0.750278949737549,326.570722093582,1,left,0.73725700378418,326.566622247696,604.486931791306,607.246931791306,1619453282.73492,1619453282.74611,1619453291.28811,1619453291.29627,1619453293.38889,1619453299.4745,1619453299.4766,1619453300.22888,1619453300.22478,1619453578.14509,1
16,4,1,3,18,8,1,c1_WhyFace,2,admiring?,3,F_110.jpg,1619452970.89815,1619452970.90835,309.076766719818,8.54521942138672,317.629956951141,319.730739822388,0.3,326.883408060074,0.616896152496338,327.504778137207,3,right,0.595571994781494,327.50030421257,604.486931791306,607.246931791306,1619453282.73492,1619453282.74611,1619453291.28811,1619453291.29627,1619453293.38889,1619453300.54156,1619453300.54616,1619453301.16293,1619453301.15846,1619453578.14509,0
16,4,1,3,19,1,2,c2_WhyHand,1,competing?,9,H_261.jpg,1619452970.89815,1619452970.90835,327.583668699265,7.9285523891449,335.519962301254,337.620745172501,2.10078287124634,337.770800580978,0.650243520736694,338.422141065598,1,left,0.635738134384155,338.421044101715,604.486931791306,607.246931791306,1619453301.24182,1619453301.24611,1619453309.17812,1619453309.17986,1619453311.2789,1619453311.42896,1619453311.43024,1619453312.0803,1619453312.0792,1619453578.14509,1
16,4,1,3,19,2,2,c2_WhyHand,1,competing?,15,H_170.jpg,1619452970.89815,1619452970.90835,327.583668699265,7.9285523891449,335.519962301254,337.620745172501,0.3,338.737828245163,0.583550453186035,339.322900047302,1,left,0.564812898635864,339.321378698349,604.486931791306,607.246931791306,1619453301.24182,1619453301.24611,1619453309.17812,1619453309.17986,1619453311.2789,1619453312.39598,1619453312.39747,1619453312.98106,1619453312.97953,1619453578.14509,1
16,4,1,3,19,3,2,c2_WhyHand,2,competing?,12,H_483.jpg,1619452970.89815,1619452970.90835,327.583668699265,7.9285523891449,335.519962301254,337.620745172501,0.3,339.638163557053,0.633569955825806,340.273344984055,3,right,0.617279052734375,340.271733512878,604.486931791306,607.246931791306,1619453301.24182,1619453301.24611,1619453309.17812,1619453309.17986,1619453311.2789,1619453313.29632,1619453313.29788,1619453313.9315,1619453313.92989,1619453578.14509,0
16,4,1,3,19,4,2,c2_WhyHand,1,competing?,14,H_132.jpg,1619452970.89815,1619452970.90835,327.583668699265,7.9285523891449,335.519962301254,337.620745172501,0.3,340.588519086838,0.583550214767456,341.173072090149,1,left,0.56587290763855,341.172069301605,604.486931791306,607.246931791306,1619453301.24182,1619453301.24611,1619453309.17812,1619453309.17986,1619453311.2789,1619453314.24667,1619453314.24819,1619453314.83123,1619453314.83022,1619453578.14509,1
16,4,1,3,19,5,2,c2_WhyHand,1,competing?,16,H_136.jpg,1619452970.89815,1619452970.90835,327.583668699265,7.9285523891449,335.519962301254,337.620745172501,0.3,341.488853683472,0.700262069702148,342.190328111649,1,left,0.676547050476074,342.189115753174,604.486931791306,607.246931791306,1619453301.24182,1619453301.24611,1619453309.17812,1619453309.17986,1619453311.2789,1619453315.14701,1619453315.14904,1619453315.84848,1619453315.84727,1619453578.14509,1
16,4,1,3,19,6,2,c2_WhyHand,1,competing?,13,H_003.jpg,1619452970.89815,1619452970.90835,327.583668699265,7.9285523891449,335.519962301254,337.620745172501,0.3,342.505899419785,0.0166738033294678,342.524167051315,1,left,0.000368118286132812,342.522573223114,604.486931791306,607.246931791306,1619453301.24182,1619453301.24611,1619453309.17812,1619453309.17986,1619453311.2789,1619453316.16405,1619453316.16589,1619453316.18232,1619453316.18073,1619453578.14509,1
16,4,1,3,19,7,2,c2_WhyHand,2,competing?,10,H_126.jpg,1619452970.89815,1619452970.90835,327.583668699265,7.9285523891449,335.519962301254,337.620745172501,0.3,342.83935760498,0.883663177490234,343.724483003616,3,right,0.863780975341797,343.723020782471,604.486931791306,607.246931791306,1619453301.24182,1619453301.24611,1619453309.17812,1619453309.17986,1619453311.2789,1619453316.49751,1619453316.49915,1619453317.38264,1619453317.38118,1619453578.14509,0
16,4,1,3,19,8,2,c2_WhyHand,2,competing?,11,H_502.jpg,1619452970.89815,1619452970.90835,327.583668699265,7.9285523891449,335.519962301254,337.620745172501,0.3,344.039805879593,0.716933012008667,344.757820119858,3,right,0.70180082321167,344.756738891602,604.486931791306,607.246931791306,1619453301.24182,1619453301.24611,1619453309.17812,1619453309.17986,1619453311.2789,1619453317.69796,1619453317.69967,1619453318.41598,1619453318.41489,1619453578.14509,0
16,4,1,3,20,1,4,c4_HowHand,1,reaching?,111,H_003.jpg,1619452970.89815,1619452970.90835,344.823430767059,12.1685042381287,357.0113098526,359.095419874191,2.08411002159119,359.245475997925,0.700260877609253,359.947440137863,1,left,0.674945116043091,359.945736875534,604.486931791306,607.246931791306,1619453318.48159,1619453318.49614,1619453330.66946,1619453330.67116,1619453332.75357,1619453332.90363,1619453332.91275,1619453333.6056,1619453333.60389,1619453578.14509,1
16,4,1,3,20,2,4,c4_HowHand,1,reaching?,110,H_364.jpg,1619452970.89815,1619452970.90835,344.823430767059,12.1685042381287,357.0113098526,359.095419874191,0.3,360.262521495819,0.633570432662964,360.904056062698,1,left,0.623926162719727,360.896091928482,604.486931791306,607.246931791306,1619453318.48159,1619453318.49614,1619453330.66946,1619453330.67116,1619453332.75357,1619453333.92068,1619453333.92227,1619453334.56221,1619453334.55425,1619453578.14509,1
16,4,1,3,20,3,4,c4_HowHand,2,reaching?,108,H_532.jpg,1619452970.89815,1619452970.90835,344.823430767059,12.1685042381287,357.0113098526,359.095419874191,0.3,361.212876787186,0.666915416717529,361.887409915924,3,right,0.657793998718262,361.879792203903,604.486931791306,607.246931791306,1619453318.48159,1619453318.49614,1619453330.66946,1619453330.67116,1619453332.75357,1619453334.87103,1619453334.87259,1619453335.54556,1619453335.53795,1619453578.14509,0
16,4,1,3,20,4,4,c4_HowHand,1,reaching?,106,H_006.jpg,1619452970.89815,1619452970.90835,344.823430767059,12.1685042381287,357.0113098526,359.095419874191,0.3,362.196577062607,0.650241613388062,362.85451292038,1,left,0.636853218078613,362.846818675995,604.486931791306,607.246931791306,1619453318.48159,1619453318.49614,1619453330.66946,1619453330.67116,1619453332.75357,1619453335.85473,1619453335.85656,1619453336.51267,1619453336.50497,1619453578.14509,1
16,4,1,3,20,5,4,c4_HowHand,2,reaching?,105,H_438.jpg,1619452970.89815,1619452970.90835,344.823430767059,12.1685042381287,357.0113098526,359.095419874191,0.3,363.163603773117,0.733607530593872,363.898714056015,3,right,0.714308977127075,363.897211303711,604.486931791306,607.246931791306,1619453318.48159,1619453318.49614,1619453330.66946,1619453330.67116,1619453332.75357,1619453336.82176,1619453336.82337,1619453337.55687,1619453337.55537,1619453578.14509,0
16,4,1,3,20,6,4,c4_HowHand,1,reaching?,107,H_007.jpg,1619452970.89815,1619452970.90835,344.823430767059,12.1685042381287,357.0113098526,359.095419874191,0.3,364.213995685577,0.516859292984009,364.731980075836,1,left,0.493824005126953,364.730854978561,604.486931791306,607.246931791306,1619453318.48159,1619453318.49614,1619453330.66946,1619453330.67116,1619453332.75357,1619453337.87215,1619453337.87378,1619453338.39014,1619453338.38901,1619453578.14509,1
16,4,1,3,20,7,4,c4_HowHand,1,reaching?,109,H_474.jpg,1619452970.89815,1619452970.90835,344.823430767059,12.1685042381287,357.0113098526,359.095419874191,0.3,365.047639837265,0.66691517829895,365.721527090073,3,right,0.653570890426636,365.714555015564,604.486931791306,607.246931791306,1619453318.48159,1619453318.49614,1619453330.66946,1619453330.67116,1619453332.75357,1619453338.70579,1619453338.70745,1619453339.37968,1619453339.37271,1619453578.14509,0
16,4,1,3,20,8,4,c4_HowHand,2,reaching?,112,H_132.jpg,1619452970.89815,1619452970.90835,344.823430767059,12.1685042381287,357.0113098526,359.095419874191,0.3,366.031339635849,0.566877841949463,366.599939098358,1,left,0.546637058258057,366.598217477798,604.486931791306,607.246931791306,1619453318.48159,1619453318.49614,1619453330.66946,1619453330.67116,1619453332.75357,1619453339.68949,1619453339.69131,1619453340.25809,1619453340.25637,1619453578.14509,0
16,4,1,3,21,1,3,c3_HowFace,1,open mouth?,73,F_403.jpg,1619452970.89815,1619452970.90835,366.681582918167,8.15033912658691,374.851295700073,376.935406913757,2.08411121368408,377.085463514328,0.766951322555542,377.854737987518,1,left,0.747942209243774,377.852414836884,604.486931791306,607.246931791306,1619453340.33974,1619453340.34142,1619453348.50945,1619453348.51138,1619453350.59356,1619453350.74362,1619453350.74616,1619453351.51289,1619453351.51057,1619453578.14509,1
16,4,1,3,21,2,3,c3_HowFace,2,open mouth?,79,F_648.jpg,1619452970.89815,1619452970.90835,366.681582918167,8.15033912658691,374.851295700073,376.935406913757,0.3,378.169199695587,0.0166733264923096,378.187819948196,1,left,0.000306129455566406,378.185873022079,604.486931791306,607.246931791306,1619453340.33974,1619453340.34142,1619453348.50945,1619453348.51138,1619453350.59356,1619453351.82735,1619453351.82936,1619453351.84597,1619453351.84403,1619453578.14509,0
16,4,1,3,21,3,3,c3_HowFace,1,open mouth?,74,F_776.jpg,1619452970.89815,1619452970.90835,366.681582918167,8.15033912658691,374.851295700073,376.935406913757,0.3,378.502656927109,0.666915893554688,379.170613040924,1,left,0.657738924026489,379.169572820663,604.486931791306,607.246931791306,1619453340.33974,1619453340.34142,1619453348.50945,1619453348.51138,1619453350.59356,1619453352.16081,1619453352.16302,1619453352.82877,1619453352.82773,1619453578.14509,1
16,4,1,3,21,4,3,c3_HowFace,2,open mouth?,77,F_584.jpg,1619452970.89815,1619452970.90835,366.681582918167,8.15033912658691,374.851295700073,376.935406913757,0.3,379.486357679367,0.600224018096924,380.087464084625,3,right,0.592866182327271,380.086581697464,604.486931791306,607.246931791306,1619453340.33974,1619453340.34142,1619453348.50945,1619453348.51138,1619453350.59356,1619453353.14451,1619453353.14621,1619453353.74562,1619453353.74474,1619453578.14509,0
16,4,1,3,21,5,3,c3_HowFace,1,open mouth?,80,F_844.jpg,1619452970.89815,1619452970.90835,366.681582918167,8.15033912658691,374.851295700073,376.935406913757,0.3,380.40336607933,0.550205945968628,380.955131044388,1,left,0.532834053039551,380.953572025299,604.486931791306,607.246931791306,1619453340.33974,1619453340.34142,1619453348.50945,1619453348.51138,1619453350.59356,1619453354.06152,1619453354.0632,1619453354.61329,1619453354.61173,1619453578.14509,1
16,4,1,3,21,6,3,c3_HowFace,1,open mouth?,78,F_692.jpg,1619452970.89815,1619452970.90835,366.681582918167,8.15033912658691,374.851295700073,376.935406913757,0.3,381.27035569191,0.616897344589233,381.888654937744,1,left,0.598016023635864,381.887253036499,604.486931791306,607.246931791306,1619453340.33974,1619453340.34142,1619453348.50945,1619453348.51138,1619453350.59356,1619453354.92851,1619453354.93003,1619453355.54681,1619453355.54541,1619453578.14509,1
16,4,1,3,21,7,3,c3_HowFace,1,open mouth?,75,F_086.jpg,1619452970.89815,1619452970.90835,366.681582918167,8.15033912658691,374.851295700073,376.935406913757,0.3,382.204037656784,0.583551406860352,382.788952102661,1,left,0.57231593132019,382.787589063644,604.486931791306,607.246931791306,1619453340.33974,1619453340.34142,1619453348.50945,1619453348.51138,1619453350.59356,1619453355.86219,1619453355.86407,1619453356.44711,1619453356.44574,1619453578.14509,1
16,4,1,3,21,8,3,c3_HowFace,2,open mouth?,76,F_544.jpg,1619452970.89815,1619452970.90835,366.681582918167,8.15033912658691,374.851295700073,376.935406913757,0.3,383.104373683929,0.583551406860352,383.68957613945,3,right,0.570030927658081,383.68792509079,604.486931791306,607.246931791306,1619453340.33974,1619453340.34142,1619453348.50945,1619453348.51138,1619453350.59356,1619453356.76253,1619453356.76419,1619453357.34773,1619453357.34608,1619453578.14509,0
16,4,1,3,22,1,1,c1_WhyFace,1,argument?,42,F_403.jpg,1619452970.89815,1619452970.90835,383.771289100647,9.73666000366211,393.524925937653,395.62571023941,2.10078430175781,395.775766601563,0.650242805480957,396.427484025955,1,left,0.629079103469849,396.426009407043,604.486931791306,607.246931791306,1619453357.42944,1619453357.43104,1619453367.18308,1619453367.18512,1619453369.28387,1619453369.43392,1619453369.4358,1619453370.08564,1619453370.08416,1619453578.14509,1
16,4,1,3,22,2,1,c1_WhyFace,2,argument?,46,F_844.jpg,1619452970.89815,1619452970.90835,383.771289100647,9.73666000366211,393.524925937653,395.62571023941,0.3,396.742793073654,0.633569955825806,397.377388944626,3,right,0.612152814865112,397.37636302948,604.486931791306,607.246931791306,1619453357.42944,1619453357.43104,1619453367.18308,1619453367.18512,1619453369.28387,1619453370.40095,1619453370.40246,1619453371.03554,1619453371.03452,1619453578.14509,0
16,4,1,3,22,3,1,c1_WhyFace,1,argument?,41,F_712.jpg,1619452970.89815,1619452970.90835,383.771289100647,9.73666000366211,393.524925937653,395.62571023941,0.3,397.693148126602,0.816971063613892,398.511682024002,1,left,0.794842958450317,398.510119190216,604.486931791306,607.246931791306,1619453357.42944,1619453357.43104,1619453367.18308,1619453367.18512,1619453369.28387,1619453371.3513,1619453371.35283,1619453372.16984,1619453372.16827,1619453578.14509,1
16,4,1,3,22,4,1,c1_WhyFace,1,argument?,48,F_758.jpg,1619452970.89815,1619452970.90835,383.771289100647,9.73666000366211,393.524925937653,395.62571023941,0.3,398.82690404892,0.766951322555542,399.604275932312,1,left,0.753824949264526,399.593855371475,604.486931791306,607.246931791306,1619453357.42944,1619453357.43104,1619453367.18308,1619453367.18512,1619453369.28387,1619453372.48506,1619453372.48669,1619453373.26243,1619453373.25201,1619453578.14509,1
16,4,1,3,22,5,1,c1_WhyFace,2,argument?,45,F_433.jpg,1619452970.89815,1619452970.90835,383.771289100647,9.73666000366211,393.524925937653,395.62571023941,0.3,399.910641422272,0.633569717407227,400.54526804924,3,right,0.615487098693848,400.544211139679,604.486931791306,607.246931791306,1619453357.42944,1619453357.43104,1619453367.18308,1619453367.18512,1619453369.28387,1619453373.5688,1619453373.57066,1619453374.20342,1619453374.20237,1619453578.14509,0
16,4,1,3,22,6,1,c1_WhyFace,1,argument?,43,F_716.jpg,1619452970.89815,1619452970.90835,383.771289100647,9.73666000366211,393.524925937653,395.62571023941,0.3,400.860995521545,0.650242567062378,401.521002044678,1,left,0.638563871383667,401.511238088608,604.486931791306,607.246931791306,1619453357.42944,1619453357.43104,1619453367.18308,1619453367.18512,1619453369.28387,1619453374.51915,1619453374.52103,1619453375.17916,1619453375.16939,1619453578.14509,1
16,4,1,3,22,7,1,c1_WhyFace,2,argument?,44,F_139.jpg,1619452970.89815,1619452970.90835,383.771289100647,9.73666000366211,393.524925937653,395.62571023941,0.3,401.828022708893,0.683588027954102,402.521178951263,3,right,0.670416831970215,402.511610736847,604.486931791306,607.246931791306,1619453357.42944,1619453357.43104,1619453367.18308,1619453367.18512,1619453369.28387,1619453375.48618,1619453375.48768,1619453376.17933,1619453376.16977,1619453578.14509,0
16,4,1,3,22,8,1,c1_WhyFace,1,argument?,47,F_743.jpg,1619452970.89815,1619452970.90835,383.771289100647,9.73666000366211,393.524925937653,395.62571023941,0.3,402.828396072388,0.483511686325073,403.32144402504,1,left,0.473766803741455,403.311907758713,604.486931791306,607.246931791306,1619453357.42944,1619453357.43104,1619453367.18308,1619453367.18512,1619453369.28387,1619453376.48655,1619453376.48852,1619453376.9796,1619453376.97006,1619453578.14509,1
16,4,1,3,23,1,2,c2_WhyHand,1,helping?,39,H_024.jpg,1619452970.89815,1619452970.90835,403.3952734375,8.33273458480835,411.731715908051,413.832498779297,2.10078287124634,413.982555379868,1.10041069984436,415.084012022018,1,left,1.07555294036865,415.082966079712,604.486931791306,607.246931791306,1619453377.05343,1619453377.06304,1619453385.38987,1619453385.39626,1619453387.49065,1619453387.64071,1619453387.64628,1619453388.74217,1619453388.74112,1619453578.14509,1
16,4,1,3,23,2,2,c2_WhyHand,1,helping?,36,H_349.jpg,1619452970.89815,1619452970.90835,403.3952734375,8.33273458480835,411.731715908051,413.832498779297,0.3,415.399751176834,0.583550453186035,415.987510910034,1,left,0.572472095489502,415.98330163002,604.486931791306,607.246931791306,1619453377.05343,1619453377.06304,1619453385.38987,1619453385.39626,1619453387.49065,1619453389.05791,1619453389.06284,1619453389.64567,1619453389.64146,1619453578.14509,1
16,4,1,3,23,3,2,c2_WhyHand,1,helping?,38,H_077.jpg,1619452970.89815,1619452970.90835,403.3952734375,8.33273458480835,411.731715908051,413.832498779297,0.3,416.300085773468,0.666915893554688,416.971337070465,1,left,0.645041942596436,416.967001667023,604.486931791306,607.246931791306,1619453377.05343,1619453377.06304,1619453385.38987,1619453385.39626,1619453387.49065,1619453389.95824,1619453389.96319,1619453390.62949,1619453390.62516,1619453578.14509,1
16,4,1,3,23,4,2,c2_WhyHand,1,helping?,37,H_474.jpg,1619452970.89815,1619452970.90835,403.3952734375,8.33273458480835,411.731715908051,413.832498779297,0.3,417.283787002563,0.800297498703003,418.087805976868,1,left,0.787432193756104,418.084084501266,604.486931791306,607.246931791306,1619453377.05343,1619453377.06304,1619453385.38987,1619453385.39626,1619453387.49065,1619453390.94194,1619453390.94625,1619453391.74596,1619453391.74224,1619453578.14509,1
16,4,1,3,23,5,2,c2_WhyHand,2,helping?,33,H_091.jpg,1619452970.89815,1619452970.90835,403.3952734375,8.33273458480835,411.731715908051,413.832498779297,0.3,418.400870313644,0.683587312698364,419.087393035889,3,right,0.666752099990845,419.084457626343,604.486931791306,607.246931791306,1619453377.05343,1619453377.06304,1619453385.38987,1619453385.39626,1619453387.49065,1619453392.05903,1619453392.06279,1619453392.74555,1619453392.74261,1619453578.14509,0
16,4,1,3,23,6,2,c2_WhyHand,2,helping?,35,H_159.jpg,1619452970.89815,1619452970.90835,403.3952734375,8.33273458480835,411.731715908051,413.832498779297,0.3,419.401242961884,0.700260639190674,420.104017963409,3,right,0.688004016876221,420.101503601074,604.486931791306,607.246931791306,1619453377.05343,1619453377.06304,1619453385.38987,1619453385.39626,1619453387.49065,1619453393.0594,1619453393.0628,1619453393.76217,1619453393.75966,1619453578.14509,0
16,4,1,3,23,7,2,c2_WhyHand,1,helping?,34,H_111.jpg,1619452970.89815,1619452970.90835,403.3952734375,8.33273458480835,411.731715908051,413.832498779297,0.3,420.418288698196,0.600223779678345,421.020803918839,1,left,0.576291084289551,421.018512477875,604.486931791306,607.246931791306,1619453377.05343,1619453377.06304,1619453385.38987,1619453385.39626,1619453387.49065,1619453394.07644,1619453394.07965,1619453394.67896,1619453394.67667,1619453578.14509,1
16,4,1,3,23,8,2,c2_WhyHand,2,helping?,40,H_012.jpg,1619452970.89815,1619452970.90835,403.3952734375,8.33273458480835,411.731715908051,413.832498779297,0.3,421.335298290253,0.816971063613892,422.153357019424,3,right,0.792363882064819,422.152269353867,604.486931791306,607.246931791306,1619453377.05343,1619453377.06304,1619453385.38987,1619453385.39626,1619453387.49065,1619453394.99345,1619453394.9963,1619453395.81151,1619453395.81042,1619453578.14509,0
16,4,1,3,24,1,4,c4_HowHand,1,both hands?,122,H_111.jpg,1619452970.89815,1619452970.90835,422.235632648468,7.56243538856506,429.805122842789,431.905904998779,2.1007821559906,432.055962314606,0.68358850479126,432.740916004181,1,left,0.671338081359863,432.739550819397,604.486931791306,607.246931791306,1619453395.89379,1619453395.89627,1619453403.46328,1619453403.46489,1619453405.56406,1619453405.71412,1619453405.71611,1619453406.39907,1619453406.39771,1619453578.14509,1
16,4,1,3,24,2,4,c4_HowHand,1,both hands?,128,H_027.jpg,1619452970.89815,1619452970.90835,422.235632648468,7.56243538856506,429.805122842789,431.905904998779,0.3,433.056334486008,0.866990804672241,433.924391975403,1,left,0.854394197463989,433.92332529068,604.486931791306,607.246931791306,1619453395.89379,1619453395.89627,1619453403.46328,1619453403.46489,1619453405.56406,1619453406.71449,1619453406.71628,1619453407.58255,1619453407.58148,1619453578.14509,1
16,4,1,3,24,3,4,c4_HowHand,2,both hands?,121,H_091.jpg,1619452970.89815,1619452970.90835,422.235632648468,7.56243538856506,429.805122842789,431.905904998779,0.3,434.240110149384,0.600223541259766,434.854403009415,3,right,0.59253716468811,434.840333690643,604.486931791306,607.246931791306,1619453395.89379,1619453395.89627,1619453403.46328,1619453403.46489,1619453405.56406,1619453407.89827,1619453407.90005,1619453408.51256,1619453408.49849,1619453578.14509,0
16,4,1,3,24,4,4,c4_HowHand,1,both hands?,123,H_167.jpg,1619452970.89815,1619452970.90835,422.235632648468,7.56243538856506,429.805122842789,431.905904998779,0.3,435.157118787766,0.550204992294312,435.708418121338,1,left,0.527230978012085,435.70732378006,604.486931791306,607.246931791306,1619453395.89379,1619453395.89627,1619453403.46328,1619453403.46489,1619453405.56406,1619453408.81527,1619453408.81708,1619453409.36657,1619453409.36548,1619453578.14509,1
16,4,1,3,24,5,4,c4_HowHand,1,both hands?,124,H_581.jpg,1619452970.89815,1619452970.90835,422.235632648468,7.56243538856506,429.805122842789,431.905904998779,0.3,436.024109115601,0.733606100082397,436.759379138947,1,left,0.717777013778687,436.757715215683,604.486931791306,607.246931791306,1619453395.89379,1619453395.89627,1619453403.46328,1619453403.46489,1619453405.56406,1619453409.68226,1619453409.68414,1619453410.41753,1619453410.41587,1619453578.14509,1
16,4,1,3,24,6,4,c4_HowHand,2,both hands?,126,H_159.jpg,1619452970.89815,1619452970.90835,422.235632648468,7.56243538856506,429.805122842789,431.905904998779,0.3,437.074500551224,0.650242567062378,437.725817909241,3,right,0.636347055435181,437.724743118286,604.486931791306,607.246931791306,1619453395.89379,1619453395.89627,1619453403.46328,1619453403.46489,1619453405.56406,1619453410.73266,1619453410.73429,1619453411.38397,1619453411.3829,1619453578.14509,0
16,4,1,3,24,7,4,c4_HowHand,1,both hands?,127,H_349.jpg,1619452970.89815,1619452970.90835,422.235632648468,7.56243538856506,429.805122842789,431.905904998779,0.3,438.041527500153,0.516859292984009,438.571074953079,1,left,0.509852170944214,438.558386793137,604.486931791306,607.246931791306,1619453395.89379,1619453395.89627,1619453403.46328,1619453403.46489,1619453405.56406,1619453411.69968,1619453411.70181,1619453412.22923,1619453412.21654,1619453578.14509,1
16,4,1,3,24,8,4,c4_HowHand,2,both hands?,125,H_627.jpg,1619452970.89815,1619452970.90835,422.235632648468,7.56243538856506,429.805122842789,431.905904998779,0.3,438.87517165184,0.633569955825806,439.510200014114,3,right,0.612248182296753,439.508741607666,604.486931791306,607.246931791306,1619453395.89379,1619453395.89627,1619453403.46328,1619453403.46489,1619453405.56406,1619453412.53333,1619453412.53491,1619453413.16835,1619453413.1669,1619453578.14509,0
16,4,1,3,25,1,2,c2_WhyHand,1,healthy?,18,H_438.jpg,1619452970.89815,1619452970.90835,439.59210609436,7.72302389144897,447.328324069977,449.429107894897,2.10078382492065,449.579163541794,0.983700037002563,450.57073592186,1,left,0.975271940231323,450.562863578796,604.486931791306,607.246931791306,1619453413.25026,1619453413.25206,1619453420.98648,1619453420.98831,1619453423.08726,1619453423.23732,1619453423.23918,1619453424.22889,1619453424.22102,1619453578.14509,1
16,4,1,3,25,2,2,c2_WhyHand,1,healthy?,23,H_364.jpg,1619452970.89815,1619452970.90835,439.59210609436,7.72302389144897,447.328324069977,449.429107894897,0.3,450.879648675919,0.733607530593872,451.614818086624,1,left,0.713881015777588,451.613256206512,604.486931791306,607.246931791306,1619453413.25026,1619453413.25206,1619453420.98648,1619453420.98831,1619453423.08726,1619453424.5378,1619453424.5393,1619453425.27297,1619453425.27141,1619453578.14509,1
16,4,1,3,25,3,2,c2_WhyHand,1,healthy?,17,H_362.jpg,1619452970.89815,1619452970.90835,439.59210609436,7.72302389144897,447.328324069977,449.429107894897,0.3,451.930041303635,0.583550214767456,452.515259017944,1,left,0.562590837478638,452.513591518402,604.486931791306,607.246931791306,1619453413.25026,1619453413.25206,1619453420.98648,1619453420.98831,1619453423.08726,1619453425.5882,1619453425.58946,1619453426.17341,1619453426.17175,1619453578.14509,1
16,4,1,3,25,4,2,c2_WhyHand,2,healthy?,24,H_019.jpg,1619452970.89815,1619452970.90835,439.59210609436,7.72302389144897,447.328324069977,449.429107894897,0.3,452.830376138687,0.733606338500977,453.571165075302,3,right,0.721015930175781,453.563982477188,604.486931791306,607.246931791306,1619453413.25026,1619453413.25206,1619453420.98648,1619453420.98831,1619453423.08726,1619453426.48853,1619453426.49034,1619453427.22932,1619453427.22214,1619453578.14509,0
16,4,1,3,25,5,2,c2_WhyHand,1,healthy?,19,H_167.jpg,1619452970.89815,1619452970.90835,439.59210609436,7.72302389144897,447.328324069977,449.429107894897,0.3,453.880767812729,0.516859292984009,454.399300088882,1,left,0.496246099472046,454.397627105713,604.486931791306,607.246931791306,1619453413.25026,1619453413.25206,1619453420.98648,1619453420.98831,1619453423.08726,1619453427.53892,1619453427.54085,1619453428.05746,1619453428.05578,1619453578.14509,1
16,4,1,3,25,6,2,c2_WhyHand,2,healthy?,20,H_007.jpg,1619452970.89815,1619452970.90835,439.59210609436,7.72302389144897,447.328324069977,449.429107894897,0.3,454.714412202835,0.550204277038574,455.271101942062,3,right,0.537172079086304,455.264616479874,604.486931791306,607.246931791306,1619453413.25026,1619453413.25206,1619453420.98648,1619453420.98831,1619453423.08726,1619453428.37257,1619453428.3744,1619453428.92926,1619453428.92277,1619453578.14509,0
16,4,1,3,25,7,2,c2_WhyHand,1,healthy?,21,H_627.jpg,1619452970.89815,1619452970.90835,439.59210609436,7.72302389144897,447.328324069977,449.429107894897,0.3,455.581402053833,0.650242805480957,456.23819111824,1,left,0.632106065750122,456.231644859314,604.486931791306,607.246931791306,1619453413.25026,1619453413.25206,1619453420.98648,1619453420.98831,1619453423.08726,1619453429.23956,1619453429.24104,1619453429.89635,1619453429.8898,1619453578.14509,1
16,4,1,3,25,8,2,c2_WhyHand,2,healthy?,22,H_130.jpg,1619452970.89815,1619452970.90835,439.59210609436,7.72302389144897,447.328324069977,449.429107894897,0.3,456.548428525925,0.683589220046997,457.233822097778,3,right,0.662254095077515,457.232017745972,604.486931791306,607.246931791306,1619453413.25026,1619453413.25206,1619453420.98648,1619453420.98831,1619453423.08726,1619453430.20658,1619453430.20826,1619453430.89198,1619453430.89017,1619453578.14509,0
16,4,1,3,26,1,4,c4_HowHand,1,pressing button?,82,H_126.jpg,1619452970.89815,1619452970.90835,457.315382471085,9.05353665351868,466.385430803299,468.486213912964,2.10078310966492,468.636270513535,0.533532619476318,469.170922031403,1,left,0.516901969909668,469.169803133011,604.486931791306,607.246931791306,1619453430.97354,1619453430.97956,1619453440.04359,1619453440.04653,1619453442.14437,1619453442.29443,1619453442.29673,1619453442.82908,1619453442.82796,1619453578.14509,1
16,4,1,3,26,2,4,c4_HowHand,2,pressing button?,85,H_130.jpg,1619452970.89815,1619452970.90835,457.315382471085,9.05353665351868,466.385430803299,468.486213912964,0.3,469.486586561203,0.616897583007812,470.105056991577,3,right,0.591903924942017,470.103484144211,604.486931791306,607.246931791306,1619453430.97354,1619453430.97956,1619453440.04359,1619453440.04653,1619453442.14437,1619453443.14474,1619453443.14632,1619453443.76321,1619453443.76164,1619453578.14509,0
16,4,1,3,26,3,4,c4_HowHand,1,pressing button?,84,H_483.jpg,1619452970.89815,1619452970.90835,457.315382471085,9.05353665351868,466.385430803299,468.486213912964,0.3,470.420268526077,0.550205230712891,470.97149895668,1,left,0.53400993347168,470.97047375679,604.486931791306,607.246931791306,1619453430.97354,1619453430.97956,1619453440.04359,1619453440.04653,1619453442.14437,1619453444.07842,1619453444.08023,1619453444.62965,1619453444.62863,1619453578.14509,1
16,4,1,3,26,4,4,c4_HowHand,2,pressing button?,87,H_024.jpg,1619452970.89815,1619452970.90835,457.315382471085,9.05353665351868,466.385430803299,468.486213912964,0.3,471.28725933075,0.633570194244385,471.921879043579,3,right,0.612592935562134,471.920829524994,604.486931791306,607.246931791306,1619453430.97354,1619453430.97956,1619453440.04359,1619453440.04653,1619453442.14437,1619453444.94541,1619453444.94715,1619453445.58003,1619453445.57898,1619453578.14509,0
16,4,1,3,26,5,4,c4_HowHand,1,pressing button?,86,H_332.jpg,1619452970.89815,1619452970.90835,457.315382471085,9.05353665351868,466.385430803299,468.486213912964,0.3,472.237614383698,0.550204038619995,472.788805952072,1,left,0.536300897598267,472.787818422318,604.486931791306,607.246931791306,1619453430.97354,1619453430.97956,1619453440.04359,1619453440.04653,1619453442.14437,1619453445.89577,1619453445.89716,1619453446.44696,1619453446.44597,1619453578.14509,1
16,4,1,3,26,6,4,c4_HowHand,1,pressing button?,88,H_019.jpg,1619452970.89815,1619452970.90835,457.315382471085,9.05353665351868,466.385430803299,468.486213912964,0.3,473.104603281021,0.650241851806641,473.756377925873,1,left,0.632294893264771,473.754845132828,604.486931791306,607.246931791306,1619453430.97354,1619453430.97956,1619453440.04359,1619453440.04653,1619453442.14437,1619453446.76276,1619453446.76454,1619453447.41453,1619453447.413,1619453578.14509,1
16,4,1,3,26,7,4,c4_HowHand,2,pressing button?,81,H_261.jpg,1619452970.89815,1619452970.90835,457.315382471085,9.05353665351868,466.385430803299,468.486213912964,0.3,474.071630706787,0.616897821426392,474.689639081955,3,right,0.600059986114502,474.688528528214,604.486931791306,607.246931791306,1619453430.97354,1619453430.97956,1619453440.04359,1619453440.04653,1619453442.14437,1619453447.72979,1619453447.73148,1619453448.34779,1619453448.34668,1619453578.14509,0
16,4,1,3,26,8,4,c4_HowHand,1,pressing button?,83,H_502.jpg,1619452970.89815,1619452970.90835,457.315382471085,9.05353665351868,466.385430803299,468.486213912964,0.3,475.005312194824,0.600223302841187,475.607046117783,1,left,0.58345103263855,475.605535497665,604.486931791306,607.246931791306,1619453430.97354,1619453430.97956,1619453440.04359,1619453440.04653,1619453442.14437,1619453448.66347,1619453448.66521,1619453449.2652,1619453449.26369,1619453578.14509,1
16,4,1,3,27,1,3,c3_HowFace,1,looking at camera?,60,F_618.jpg,1619452970.89815,1619452970.90835,475.688900699615,8.21005129814148,483.908632507324,486.009415378571,2.10078287124634,486.159471979141,0.750279426574707,486.91143702507,1,left,0.727407932281494,486.909751405716,604.486931791306,607.246931791306,1619453449.34706,1619453449.34842,1619453457.56679,1619453457.56823,1619453459.66757,1619453459.81763,1619453459.81912,1619453460.56959,1619453460.56791,1619453578.14509,1
16,4,1,3,27,2,3,c3_HowFace,2,looking at camera?,58,F_754.jpg,1619452970.89815,1619452970.90835,475.688900699615,8.21005129814148,483.908632507324,486.009415378571,0.3,487.226536741257,0.600224018096924,487.838168134689,3,right,0.585098028182983,487.826760759354,604.486931791306,607.246931791306,1619453449.34706,1619453449.34842,1619453457.56679,1619453457.56823,1619453459.66757,1619453460.88469,1619453460.88659,1619453461.49632,1619453461.48492,1619453578.14509,0
16,4,1,3,27,3,3,c3_HowFace,1,looking at camera?,59,F_129.jpg,1619452970.89815,1619452970.90835,475.688900699615,8.21005129814148,483.908632507324,486.009415378571,0.3,488.143544664383,0.583551406860352,488.737633934021,1,left,0.572582006454468,488.727096071243,604.486931791306,607.246931791306,1619453449.34706,1619453449.34842,1619453457.56679,1619453457.56823,1619453459.66757,1619453461.8017,1619453461.80322,1619453462.39579,1619453462.38525,1619453578.14509,1
16,4,1,3,27,4,3,c3_HowFace,1,looking at camera?,62,F_598.jpg,1619452970.89815,1619452970.90835,475.688900699615,8.21005129814148,483.908632507324,486.009415378571,0.3,489.043881406784,0.666914701461792,489.712424983978,1,left,0.646395921707153,489.710796108246,604.486931791306,607.246931791306,1619453449.34706,1619453449.34842,1619453457.56679,1619453457.56823,1619453459.66757,1619453462.70204,1619453462.70365,1619453463.37058,1619453463.36895,1619453578.14509,1
16,4,1,3,27,5,3,c3_HowFace,1,looking at camera?,64,F_128.jpg,1619452970.89815,1619452970.90835,475.688900699615,8.21005129814148,483.908632507324,486.009415378571,0.3,490.027580728531,0.70026159286499,490.729012002945,1,left,0.678883075714111,490.727842321396,604.486931791306,607.246931791306,1619453449.34706,1619453449.34842,1619453457.56679,1619453457.56823,1619453459.66757,1619453463.68574,1619453463.68766,1619453464.38717,1619453464.386,1619453578.14509,1
16,4,1,3,27,6,3,c3_HowFace,2,looking at camera?,57,F_582.jpg,1619452970.89815,1619452970.90835,475.688900699615,8.21005129814148,483.908632507324,486.009415378571,0.3,491.044626464844,0.783625841140747,491.837461938858,3,right,0.775977849960327,491.828252305985,604.486931791306,607.246931791306,1619453449.34706,1619453449.34842,1619453457.56679,1619453457.56823,1619453459.66757,1619453464.70278,1619453464.70489,1619453465.49562,1619453465.48641,1619453578.14509,0
16,4,1,3,27,7,3,c3_HowFace,1,looking at camera?,61,F_774.jpg,1619452970.89815,1619452970.90835,475.688900699615,8.21005129814148,483.908632507324,486.009415378571,0.3,492.14503692627,0.583551406860352,492.730119934082,1,left,0.565247058868408,492.72858833313,604.486931791306,607.246931791306,1619453449.34706,1619453449.34842,1619453457.56679,1619453457.56823,1619453459.66757,1619453465.80319,1619453465.80506,1619453466.38827,1619453466.38674,1619453578.14509,1
