src_subject_id,session_id,run_id,param_counterbalance_ver,param_block_num,param_trial_num,param_cond_type_num,param_cond_type_string,param_normative_response,param_ques_type_string,param_image_num,param_image_filename,param_trigger_onset,param_start_biopac,event01_fixation,event01_fixation_dur,event01_blockquestion_onset,event01_block_isi_blacksreen,event01_blockquestion_dur,event02_image_onset,event02_image_dur,event03_response_onset,event03_response_key,event03_response_keyname,event03_RT,event04_shortquestion_onset,param_end_instruct_onset,param_experiment_duration,RAW_e1_fixation,RAW_e1_fixation_biopac,RAW_e1_blockquestion_onset,RAW_e1_blockquestion_onset_biopac,RAW_e1_block_isi_blacksreen,RAW_e2_image_onset,RAW_e2_image_onset_biopac,RAW_e3_response_onset,RAW_e4_shortquestion_onset,RAW_param_end_instruct_onset,accuracy
92,4,1,4,1,1,3,c3_HowFace,1,smiling?,118,F_759.jpg,1636677207.92375,1636677207.93549,0.040835847854614,0.0401949882507324,0.0908548736572263,2.10827445030212,2.0174195766449,2.25832985877991,1.61727023124695,3.87803482055664,1,left,1.5813570022583,3.87560009002686,604.482913484573,607.242913484573,1636677210.72459,1636677210.73405,1636677210.77461,1636677210.78079,1636677212.79203,1636677212.94208,1636677212.94719,1636677214.56179,1636677214.55935,1636677815.16667,1
92,4,1,4,1,2,3,c3_HowFace,2,smiling?,114,F_412.jpg,1636677207.92375,1636677207.93549,0.040835847854614,0.0401949882507324,0.0908548736572263,2.10827445030212,0.3,4.19238375663757,0.883664131164551,5.08028601646423,3,right,0.872385025024414,5.07604788780212,604.482913484573,607.242913484573,1636677210.72459,1636677210.73405,1636677210.77461,1636677210.78079,1636677212.79203,1636677214.87614,1636677214.88088,1636677215.76404,1636677215.7598,1636677815.16667,0
92,4,1,4,1,3,3,c3_HowFace,1,smiling?,117,F_593.jpg,1636677207.92375,1636677207.93549,0.040835847854614,0.0401949882507324,0.0908548736572263,2.10827445030212,0.3,5.39283250808716,0.783625602722168,6.17983888626099,1,left,0.773341178894043,6.17645811080933,604.482913484573,607.242913484573,1636677210.72459,1636677210.73405,1636677210.77461,1636677210.78079,1636677212.79203,1636677216.07658,1636677216.08077,1636677216.86359,1636677216.86021,1636677815.16667,1
92,4,1,4,1,4,3,c3_HowFace,2,smiling?,113,F_712.jpg,1636677207.92375,1636677207.93549,0.040835847854614,0.0401949882507324,0.0908548736572263,2.10827445030212,0.3,6.49324273109436,0.866990804672241,7.36354302406311,3,right,0.857122898101807,7.3602335357666,604.482913484573,607.242913484573,1636677210.72459,1636677210.73405,1636677210.77461,1636677210.78079,1636677212.79203,1636677217.17699,1636677217.18062,1636677218.0473,1636677218.04399,1636677815.16667,0
92,4,1,4,1,5,3,c3_HowFace,1,smiling?,115,F_695.jpg,1636677207.92375,1636677207.93549,0.040835847854614,0.0401949882507324,0.0908548736572263,2.10827445030212,0.3,7.67701720237732,0.683589220046997,8.36620496749878,1,left,0.659678936004639,8.36060642242432,604.482913484573,607.242913484573,1636677210.72459,1636677210.73405,1636677210.77461,1636677210.78079,1636677212.79203,1636677218.36077,1636677218.36471,1636677219.04996,1636677219.04436,1636677815.16667,1
92,4,1,4,1,6,3,c3_HowFace,1,smiling?,119,F_139.jpg,1636677207.92375,1636677207.93549,0.040835847854614,0.0401949882507324,0.0908548736572263,2.10827445030212,0.3,8.67739056587219,0.783625841140747,9.46366786003113,1,left,0.765800952911377,9.46101640701294,604.482913484573,607.242913484573,1636677210.72459,1636677210.73405,1636677210.77461,1636677210.78079,1636677212.79203,1636677219.36114,1636677219.36419,1636677220.14742,1636677220.14477,1636677815.16667,1
92,4,1,4,1,7,3,c3_HowFace,1,smiling?,116,F_083.jpg,1636677207.92375,1636677207.93549,0.040835847854614,0.0401949882507324,0.0908548736572263,2.10827445030212,0.3,9.77780150413513,0.583550453186035,10.3637349510193,1,left,0.565129041671753,10.3613519573212,604.482913484573,607.242913484573,1636677210.72459,1636677210.73405,1636677210.77461,1636677210.78079,1636677212.79203,1636677220.46155,1636677220.46441,1636677221.04749,1636677221.0451,1636677815.16667,1
92,4,1,4,1,8,3,c3_HowFace,2,smiling?,120,F_758.jpg,1636677207.92375,1636677207.93549,0.040835847854614,0.0401949882507324,0.0908548736572263,2.10827445030212,0.3,10.6781370544434,0.78362512588501,11.4636878871918,3,right,0.77141284942627,11.4617621803284,604.482913484573,607.242913484573,1636677210.72459,1636677210.73405,1636677210.77461,1636677210.78079,1636677212.79203,1636677221.36189,1636677221.36384,1636677222.14744,1636677222.14551,1636677815.16667,0
92,4,1,4,2,1,1,c1_WhyFace,1,admiring?,1,F_593.jpg,1636677207.92375,1636677207.93549,11.6451644802094,7.46396136283875,19.1146161460876,21.2153999710083,2.10078382492065,21.3654549026489,1.10040998458862,22.4681699180603,1,left,1.07077407836914,22.4658648872375,604.482913484573,607.242913484573,1636677222.32892,1636677222.33051,1636677229.79837,1636677229.81442,1636677231.89915,1636677232.04921,1636677232.0642,1636677233.15192,1636677233.14962,1636677815.16667,1
92,4,1,4,2,2,1,c1_WhyFace,2,admiring?,2,F_129.jpg,1636677207.92375,1636677207.93549,11.6451644802094,7.46396136283875,19.1146161460876,21.2153999710083,0.3,22.7826511764526,1.40052175521851,24.1851098442078,3,right,1.38741207122803,24.1831729316711,604.482913484573,607.242913484573,1636677222.32892,1636677222.33051,1636677229.79837,1636677229.81442,1636677231.89915,1636677233.4664,1636677233.4684,1636677234.86886,1636677234.86693,1636677815.16667,0
92,4,1,4,2,3,1,c1_WhyFace,1,admiring?,5,F_759.jpg,1636677207.92375,1636677207.93549,11.6451644802094,7.46396136283875,19.1146161460876,21.2153999710083,0.3,24.4999582672119,0.950353860855103,25.4635579490662,1,left,0.939758062362671,25.450312128067,604.482913484573,607.242913484573,1636677222.32892,1636677222.33051,1636677229.79837,1636677229.81442,1636677231.89915,1636677235.18371,1636677235.18534,1636677236.14731,1636677236.13406,1636677815.16667,1
92,4,1,4,2,4,1,c1_WhyFace,2,admiring?,6,F_692.jpg,1636677207.92375,1636677207.93549,11.6451644802094,7.46396136283875,19.1146161460876,21.2153999710083,0.3,25.7670974636078,1.15042853355408,26.9192130470276,1,left,1.12786197662354,26.9175259971619,604.482913484573,607.242913484573,1636677222.32892,1636677222.33051,1636677229.79837,1636677229.81442,1636677231.89915,1636677236.45085,1636677236.45256,1636677237.60297,1636677237.60128,1636677815.16667,0
92,4,1,4,2,5,1,c1_WhyFace,1,admiring?,4,F_779.jpg,1636677207.92375,1636677207.93549,11.6451644802094,7.46396136283875,19.1146161460876,21.2153999710083,0.3,27.2343115711212,0.716933965682983,27.9523498916626,1,left,0.696727991104126,27.9512455368042,604.482913484573,607.242913484573,1636677222.32892,1636677222.33051,1636677229.79837,1636677229.81442,1636677231.89915,1636677237.91806,1636677237.91991,1636677238.6361,1636677238.635,1636677815.16667,1
92,4,1,4,2,6,1,c1_WhyFace,1,admiring?,8,F_590.jpg,1636677207.92375,1636677207.93549,11.6451644802094,7.46396136283875,19.1146161460876,21.2153999710083,0.3,28.2680287265778,0.583551168441772,28.8630149269104,1,left,0.574826002120972,28.8515798950195,604.482913484573,607.242913484573,1636677222.32892,1636677222.33051,1636677229.79837,1636677229.81442,1636677231.89915,1636677238.95178,1636677238.95347,1636677239.54677,1636677239.53533,1636677815.16667,1
92,4,1,4,2,7,1,c1_WhyFace,1,admiring?,7,F_648.jpg,1636677207.92375,1636677207.93549,11.6451644802094,7.46396136283875,19.1146161460876,21.2153999710083,0.3,29.1683661842346,0.683588266372681,29.8537418746948,1,left,0.665289878845215,29.8519544506073,604.482913484573,607.242913484573,1636677222.32892,1636677222.33051,1636677229.79837,1636677229.81442,1636677231.89915,1636677239.85212,1636677239.85395,1636677240.53749,1636677240.53571,1636677815.16667,1
92,4,1,4,2,8,1,c1_WhyFace,2,admiring?,3,F_110.jpg,1636677207.92375,1636677207.93549,11.6451644802094,7.46396136283875,19.1146161460876,21.2153999710083,0.3,30.168738117218,1.00037407875061,31.1796469593048,3,right,0.98875093460083,31.1691121959686,604.482913484573,607.242913484573,1636677222.32892,1636677222.33051,1636677229.79837,1636677229.81442,1636677231.89915,1636677240.85249,1636677240.85407,1636677241.8634,1636677241.85286,1636677815.16667,0
92,4,1,4,3,1,2,c2_WhyHand,1,competing?,9,H_261.jpg,1636677207.92375,1636677207.93549,31.2691488170624,6.89397120475769,38.1717228794098,40.2725064659119,2.10078358650208,40.4225635433197,0.850315809249878,41.2739798927307,1,left,0.823072910308838,41.2728793525696,604.482913484573,607.242913484573,1636677241.9529,1636677241.96434,1636677248.85547,1636677248.86464,1636677250.95626,1636677251.10632,1636677251.11411,1636677251.95773,1636677251.95663,1636677815.16667,1
92,4,1,4,3,2,2,c2_WhyHand,1,competing?,15,H_170.jpg,1636677207.92375,1636677207.93549,31.2691488170624,6.89397120475769,38.1717228794098,40.2725064659119,0.3,41.5896634960175,0.833644866943359,42.4243519210815,1,left,0.81303596496582,42.4233083629608,604.482913484573,607.242913484573,1636677241.9529,1636677241.96434,1636677248.85547,1636677248.86464,1636677250.95626,1636677252.27342,1636677252.27512,1636677253.1081,1636677253.10706,1636677815.16667,1
92,4,1,4,3,3,2,c2_WhyHand,2,competing?,12,H_483.jpg,1636677207.92375,1636677207.93549,31.2691488170624,6.89397120475769,38.1717228794098,40.2725064659119,0.3,42.7400932216644,0.967026948928833,43.7131240272522,3,right,0.953866958618164,43.7071201705933,604.482913484573,607.242913484573,1636677241.9529,1636677241.96434,1636677248.85547,1636677248.86464,1636677250.95626,1636677253.42385,1636677253.42491,1636677254.39688,1636677254.39087,1636677815.16667,0
92,4,1,4,3,4,2,c2_WhyHand,1,competing?,14,H_132.jpg,1636677207.92375,1636677207.93549,31.2691488170624,6.89397120475769,38.1717228794098,40.2725064659119,0.3,44.0239052677155,0.816972017288208,44.8469779396057,1,left,0.806177139282227,44.8408772850037,604.482913484573,607.242913484573,1636677241.9529,1636677241.96434,1636677248.85547,1636677248.86464,1636677250.95626,1636677254.70766,1636677254.70955,1636677255.53073,1636677255.52463,1636677815.16667,1
92,4,1,4,3,5,2,c2_WhyHand,1,competing?,16,H_136.jpg,1636677207.92375,1636677207.93549,31.2691488170624,6.89397120475769,38.1717228794098,40.2725064659119,0.3,45.1576607131958,1.13375639915466,46.2963209056854,1,left,1.09857797622681,46.2914171123505,604.482913484573,607.242913484573,1636677241.9529,1636677241.96434,1636677248.85547,1636677248.86464,1636677250.95626,1636677255.84141,1636677255.85964,1636677256.98007,1636677256.97517,1636677815.16667,1
92,4,1,4,3,6,2,c2_WhyHand,1,competing?,13,H_003.jpg,1636677207.92375,1636677207.93549,31.2691488170624,6.89397120475769,38.1717228794098,40.2725064659119,0.3,46.6082019710541,0.833645105361938,47.4434909725189,1,left,0.812608957290649,47.441847076416,604.482913484573,607.242913484573,1636677241.9529,1636677241.96434,1636677248.85547,1636677248.86464,1636677250.95626,1636677257.29195,1636677257.29344,1636677258.12724,1636677258.1256,1636677815.16667,1
92,4,1,4,3,7,2,c2_WhyHand,2,competing?,10,H_126.jpg,1636677207.92375,1636677207.93549,31.2691488170624,6.89397120475769,38.1717228794098,40.2725064659119,0.3,47.7586312198639,0.883663177490234,48.6463048362732,3,right,0.868606090545654,48.6422943973541,604.482913484573,607.242913484573,1636677241.9529,1636677241.96434,1636677248.85547,1636677248.86464,1636677250.95626,1636677258.44238,1636677258.44386,1636677259.33006,1636677259.32605,1636677815.16667,0
92,4,1,4,3,8,2,c2_WhyHand,2,competing?,11,H_502.jpg,1636677207.92375,1636677207.93549,31.2691488170624,6.89397120475769,38.1717228794098,40.2725064659119,0.3,48.9590787792206,1.26713919639587,50.2296948337555,3,right,1.25212001800537,50.2262179756165,604.482913484573,607.242913484573,1636677241.9529,1636677241.96434,1636677248.85547,1636677248.86464,1636677250.95626,1636677259.64283,1636677259.64734,1636677260.91345,1636677260.90997,1636677815.16667,0
92,4,1,4,4,1,4,c4_HowHand,1,reaching?,111,H_003.jpg,1636677207.92375,1636677207.93549,50.3262555503845,10.3188824653625,60.6634447479248,62.7475550079346,2.08411026000977,62.9142837429047,0.700260400772095,63.6163828277588,1,left,0.681331872940063,63.6145441436768,604.482913484573,607.242913484573,1636677261.01001,1636677261.01405,1636677271.3472,1636677271.34934,1636677273.43131,1636677273.59804,1636677273.60013,1636677274.30013,1636677274.2983,1636677815.16667,1
92,4,1,4,4,2,4,c4_HowHand,1,reaching?,110,H_364.jpg,1636677207.92375,1636677207.93549,50.3262555503845,10.3188824653625,60.6634447479248,62.7475550079346,0.3,63.9313290023804,0.816971063613892,64.7498600387573,1,left,0.796247005462646,64.7483000659943,604.482913484573,607.242913484573,1636677261.01001,1636677261.01405,1636677271.3472,1636677271.34934,1636677273.43131,1636677274.61508,1636677274.61692,1636677275.43361,1636677275.43205,1636677815.16667,1
92,4,1,4,4,3,4,c4_HowHand,2,reaching?,108,H_532.jpg,1636677207.92375,1636677207.93549,50.3262555503845,10.3188824653625,60.6634447479248,62.7475550079346,0.3,65.065085401535,0.80029821395874,65.8796000385284,3,right,0.789700984954834,65.8653836154938,604.482913484573,607.242913484573,1636677261.01001,1636677261.01405,1636677271.3472,1636677271.34934,1636677273.43131,1636677275.74884,1636677275.75047,1636677276.56335,1636677276.54914,1636677815.16667,0
92,4,1,4,4,4,4,c4_HowHand,1,reaching?,106,H_006.jpg,1636677207.92375,1636677207.93549,50.3262555503845,10.3188824653625,60.6634447479248,62.7475550079346,0.3,66.1821691894531,0.80029821395874,66.983577003479,1,left,0.776955127716064,66.9824674034119,604.482913484573,607.242913484573,1636677261.01001,1636677261.01405,1636677271.3472,1636677271.34934,1636677273.43131,1636677276.86592,1636677276.8679,1636677277.66733,1636677277.66622,1636677815.16667,1
92,4,1,4,4,5,4,c4_HowHand,2,reaching?,105,H_438.jpg,1636677207.92375,1636677207.93549,50.3262555503845,10.3188824653625,60.6634447479248,62.7475550079346,0.3,67.2992525005341,1.15042877197266,68.4507439041138,3,right,1.13483810424805,68.4496812725067,604.482913484573,607.242913484573,1636677261.01001,1636677261.01405,1636677271.3472,1636677271.34934,1636677273.43131,1636677277.983,1636677277.98481,1636677279.1345,1636677279.13343,1636677815.16667,0
92,4,1,4,4,6,4,c4_HowHand,1,reaching?,107,H_007.jpg,1636677207.92375,1636677207.93549,50.3262555503845,10.3188824653625,60.6634447479248,62.7475550079346,0.3,68.7664661312103,0.65024209022522,69.4296088123321,1,left,0.641848087310791,69.4167082214355,604.482913484573,607.242913484573,1636677261.01001,1636677261.01405,1636677271.3472,1636677271.34934,1636677273.43131,1636677279.45022,1636677279.45182,1636677280.11336,1636677280.10046,1636677815.16667,1
92,4,1,4,4,7,4,c4_HowHand,1,reaching?,109,H_474.jpg,1636677207.92375,1636677207.93549,50.3262555503845,10.3188824653625,60.6634447479248,62.7475550079346,0.3,69.7334928417206,1.71730756759644,71.5989448928833,3,right,1.84252305030823,71.450800409317,604.482913484573,607.242913484573,1636677261.01001,1636677261.01405,1636677271.3472,1636677271.34934,1636677273.43131,1636677280.41724,1636677280.41901,1636677282.2827,1636677282.13455,1636677815.16667,0
92,4,1,4,4,8,4,c4_HowHand,2,reaching?,112,H_132.jpg,1636677207.92375,1636677207.93549,50.3262555503845,10.3188824653625,60.6634447479248,62.7475550079346,0.3,71.7675852680206,0.0166726112365723,71.7858199977875,3,right,0.000213861465454102,71.7842578792572,604.482913484573,607.242913484573,1636677261.01001,1636677261.01405,1636677271.3472,1636677271.34934,1636677273.43131,1636677282.45134,1636677282.45296,1636677282.46957,1636677282.46801,1636677815.16667,0
92,4,1,4,5,1,3,c3_HowFace,1,open mouth?,73,F_403.jpg,1636677207.92375,1636677207.93549,71.8509488010406,7.90327119827271,79.7705697917938,81.8713531398773,2.1007833480835,82.0214099788666,0.650241136550903,82.6727919483185,1,left,0.630702972412109,82.6716511154175,604.482913484573,607.242913484573,1636677282.5347,1636677282.54859,1636677290.45432,1636677290.45763,1636677292.55511,1636677292.70516,1636677292.70743,1636677293.35654,1636677293.3554,1636677815.16667,1
92,4,1,4,5,2,3,c3_HowFace,2,open mouth?,79,F_648.jpg,1636677207.92375,1636677207.93549,71.8509488010406,7.90327119827271,79.7705697917938,81.8713531398773,0.3,82.9884357357025,0.733607292175293,83.7302799129486,3,right,0.716535091400146,83.7220430278778,604.482913484573,607.242913484573,1636677282.5347,1636677282.54859,1636677290.45432,1636677290.45763,1636677292.55511,1636677293.67219,1636677293.67389,1636677294.41403,1636677294.4058,1636677815.16667,0
92,4,1,4,5,3,3,c3_HowFace,1,open mouth?,74,F_776.jpg,1636677207.92375,1636677207.93549,71.8509488010406,7.90327119827271,79.7705697917938,81.8713531398773,0.3,84.0388283634186,0.550204515457153,84.5962188148498,1,left,0.543606996536255,84.5890328788757,604.482913484573,607.242913484573,1636677282.5347,1636677282.54859,1636677290.45432,1636677290.45763,1636677292.55511,1636677294.72258,1636677294.72422,1636677295.27997,1636677295.27278,1636677815.16667,1
92,4,1,4,5,4,3,c3_HowFace,2,open mouth?,77,F_584.jpg,1636677207.92375,1636677207.93549,71.8509488010406,7.90327119827271,79.7705697917938,81.8713531398773,0.3,84.9058184528351,0.650241374969482,85.5630009078979,3,right,0.634822130203247,85.5560598278046,604.482913484573,607.242913484573,1636677282.5347,1636677282.54859,1636677290.45432,1636677290.45763,1636677292.55511,1636677295.58957,1636677295.59132,1636677296.24675,1636677296.23981,1636677815.16667,0
92,4,1,4,5,5,3,c3_HowFace,1,open mouth?,80,F_844.jpg,1636677207.92375,1636677207.93549,71.8509488010406,7.90327119827271,79.7705697917938,81.8713531398773,0.3,85.8728451633453,0.533532381057739,86.4129960441589,1,left,0.526165962219238,86.4063775444031,604.482913484573,607.242913484573,1636677282.5347,1636677282.54859,1636677290.45432,1636677290.45763,1636677292.55511,1636677296.5566,1636677296.5582,1636677297.09675,1636677297.09013,1636677815.16667,1
92,4,1,4,5,6,3,c3_HowFace,1,open mouth?,78,F_692.jpg,1636677207.92375,1636677207.93549,71.8509488010406,7.90327119827271,79.7705697917938,81.8713531398773,0.3,86.7231619262695,0.650243282318115,87.3799579048157,1,left,0.638079166412354,87.3734052085876,604.482913484573,607.242913484573,1636677282.5347,1636677282.54859,1636677290.45432,1636677290.45763,1636677292.55511,1636677297.40691,1636677297.40846,1636677298.06371,1636677298.05716,1636677815.16667,1
92,4,1,4,5,7,3,c3_HowFace,1,open mouth?,75,F_086.jpg,1636677207.92375,1636677207.93549,71.8509488010406,7.90327119827271,79.7705697917938,81.8713531398773,0.3,87.6901905441284,0.533531665802002,88.2295980358124,1,left,0.519109010696411,88.2237222099304,604.482913484573,607.242913484573,1636677282.5347,1636677282.54859,1636677290.45432,1636677290.45763,1636677292.55511,1636677298.37394,1636677298.37589,1636677298.91335,1636677298.90747,1636677815.16667,1
92,4,1,4,5,8,3,c3_HowFace,2,open mouth?,76,F_544.jpg,1636677207.92375,1636677207.93549,71.8509488010406,7.90327119827271,79.7705697917938,81.8713531398773,0.3,88.5405073070526,0.75027871131897,89.29637383461,3,right,0.740154981613159,89.2907860183716,604.482913484573,607.242913484573,1636677282.5347,1636677282.54859,1636677290.45432,1636677290.45763,1636677292.55511,1636677299.22426,1636677299.2264,1636677299.98013,1636677299.97454,1636677815.16667,0
92,4,1,4,6,1,1,c1_WhyFace,1,argument?,42,F_403.jpg,1636677207.92375,1636677207.93549,89.3741502666473,11.858758687973,101.24524353981,103.346028795242,2.10078525543213,103.49608420372,0.600224494934082,104.097542037964,1,left,0.583992958068848,104.096308698654,604.482913484573,607.242913484573,1636677300.0579,1636677300.06336,1636677311.929,1636677311.93074,1636677314.02978,1636677314.17984,1636677314.18184,1636677314.78129,1636677314.78006,1636677815.16667,1
92,4,1,4,6,2,1,c1_WhyFace,2,argument?,46,F_844.jpg,1636677207.92375,1636677207.93549,89.3741502666473,11.858758687973,101.24524353981,103.346028795242,0.3,104.413091888428,0.716934204101562,105.131798973083,3,right,0.700205087661743,105.130026092529,604.482913484573,607.242913484573,1636677300.0579,1636677300.06336,1636677311.929,1636677311.93074,1636677314.02978,1636677315.09684,1636677315.09866,1636677315.81555,1636677315.81378,1636677815.16667,0
92,4,1,4,6,3,1,c1_WhyFace,1,argument?,41,F_712.jpg,1636677207.92375,1636677207.93549,89.3741502666473,11.858758687973,101.24524353981,103.346028795242,0.3,105.446810951233,0.683589220046997,106.131778945923,1,left,0.631732940673828,106.13040017128,604.482913484573,607.242913484573,1636677300.0579,1636677300.06336,1636677311.929,1636677311.93074,1636677314.02978,1636677316.13056,1636677316.1657,1636677316.81553,1636677316.81415,1636677815.16667,1
92,4,1,4,6,4,1,c1_WhyFace,1,argument?,48,F_758.jpg,1636677207.92375,1636677207.93549,89.3741502666473,11.858758687973,101.24524353981,103.346028795242,0.3,106.447184553146,0.666915893554688,107.130259027481,1,left,0.658738136291504,107.114100446701,604.482913484573,607.242913484573,1636677300.0579,1636677300.06336,1636677311.929,1636677311.93074,1636677314.02978,1636677317.13094,1636677317.13253,1636677317.81401,1636677317.79785,1636677815.16667,1
92,4,1,4,6,5,1,c1_WhyFace,2,argument?,45,F_433.jpg,1636677207.92375,1636677207.93549,89.3741502666473,11.858758687973,101.24524353981,103.346028795242,0.3,107.430884113312,1.06706500053406,108.499368896484,1,left,1.05082392692566,108.497949113846,604.482913484573,607.242913484573,1636677300.0579,1636677300.06336,1636677311.929,1636677311.93074,1636677314.02978,1636677318.11464,1636677318.11589,1636677319.18312,1636677319.1817,1636677815.16667,0
92,4,1,4,6,6,1,c1_WhyFace,1,argument?,43,F_716.jpg,1636677207.92375,1636677207.93549,89.3741502666473,11.858758687973,101.24524353981,103.346028795242,0.3,108.814734210968,0.68358850479126,109.500068893433,1,left,0.66155219078064,109.498322715759,604.482913484573,607.242913484573,1636677300.0579,1636677300.06336,1636677311.929,1636677311.93074,1636677314.02978,1636677319.49849,1636677319.49995,1636677320.18382,1636677320.18207,1636677815.16667,1
92,4,1,4,6,7,1,c1_WhyFace,2,argument?,44,F_139.jpg,1636677207.92375,1636677207.93549,89.3741502666473,11.858758687973,101.24524353981,103.346028795242,0.3,109.815106859207,1.00037288665771,110.816534986496,3,right,0.981674909591675,110.815479745865,604.482913484573,607.242913484573,1636677300.0579,1636677300.06336,1636677311.929,1636677311.93074,1636677314.02978,1636677320.49886,1636677320.50061,1636677321.50029,1636677321.49923,1636677815.16667,0
92,4,1,4,6,8,1,c1_WhyFace,1,argument?,47,F_743.jpg,1636677207.92375,1636677207.93549,89.3741502666473,11.858758687973,101.24524353981,103.346028795242,0.3,111.132264842987,0.650240898132324,111.784211864471,1,left,0.629295110702515,111.782505741119,604.482913484573,607.242913484573,1636677300.0579,1636677300.06336,1636677311.929,1636677311.93074,1636677314.02978,1636677321.81602,1636677321.81775,1636677322.46796,1636677322.46626,1636677815.16667,1
92,4,1,4,7,1,2,c2_WhyHand,1,helping?,39,H_024.jpg,1636677207.92375,1636677207.93549,111.849199047089,11.8657288551331,123.720291843414,125.821076145172,2.10078430175781,125.971132268906,1.13375568389893,127.113086929321,1,left,1.11593914031982,127.104887952805,604.482913484573,607.242913484573,1636677322.53295,1636677322.54747,1636677334.40404,1636677334.41418,1636677336.50483,1636677336.65488,1636677336.66443,1636677337.79684,1636677337.78864,1636677815.16667,1
92,4,1,4,7,2,2,c2_WhyHand,1,helping?,36,H_349.jpg,1636677207.92375,1636677207.93549,111.849199047089,11.8657288551331,123.720291843414,125.821076145172,0.3,127.42167257309,0.766952514648438,128.196343889236,1,left,0.750546932220459,128.188625087738,604.482913484573,607.242913484573,1636677322.53295,1636677322.54747,1636677334.40404,1636677334.41418,1636677336.50483,1636677338.10542,1636677338.10736,1636677338.8801,1636677338.87238,1636677815.16667,1
92,4,1,4,7,3,2,c2_WhyHand,1,helping?,38,H_077.jpg,1636677207.92375,1636677207.93549,111.849199047089,11.8657288551331,123.720291843414,125.821076145172,0.3,128.50541018486,0.733607530593872,129.240447034836,1,left,0.711635112762451,129.239017715454,604.482913484573,607.242913484573,1636677322.53295,1636677322.54747,1636677334.40404,1636677334.41418,1636677336.50483,1636677339.18916,1636677339.19041,1636677339.9242,1636677339.92277,1636677815.16667,1
92,4,1,4,7,4,2,c2_WhyHand,1,helping?,37,H_474.jpg,1636677207.92375,1636677207.93549,111.849199047089,11.8657288551331,123.720291843414,125.821076145172,0.3,129.555801620483,0.750280857086182,130.31363986969,1,left,0.736997127532959,130.30608247757,604.482913484573,607.242913484573,1636677322.53295,1636677322.54747,1636677334.40404,1636677334.41418,1636677336.50483,1636677340.23955,1636677340.24134,1636677340.99739,1636677340.98983,1636677815.16667,1
92,4,1,4,7,5,2,c2_WhyHand,2,helping?,33,H_091.jpg,1636677207.92375,1636677207.93549,111.849199047089,11.8657288551331,123.720291843414,125.821076145172,0.3,130.622866859436,1.06706404685974,131.691751947403,3,right,1.04534006118774,131.689930906296,604.482913484573,607.242913484573,1636677322.53295,1636677322.54747,1636677334.40404,1636677334.41418,1636677336.50483,1636677341.30662,1636677341.30837,1636677342.3755,1636677342.37368,1636677815.16667,0
92,4,1,4,7,6,2,c2_WhyHand,2,helping?,35,H_159.jpg,1636677207.92375,1636677207.93549,111.849199047089,11.8657288551331,123.720291843414,125.821076145172,0.3,132.006716718674,1.0337188243866,133.046679010391,3,right,1.01816010475159,133.04043554306,604.482913484573,607.242913484573,1636677322.53295,1636677322.54747,1636677334.40404,1636677334.41418,1636677336.50483,1636677342.69047,1636677342.69204,1636677343.73043,1636677343.72419,1636677815.16667,0
92,4,1,4,7,7,2,c2_WhyHand,1,helping?,34,H_111.jpg,1636677207.92375,1636677207.93549,111.849199047089,11.8657288551331,123.720291843414,125.821076145172,0.3,133.357220163345,0.950353860855103,134.309420814514,1,left,0.928087949752808,134.3075740242,604.482913484573,607.242913484573,1636677322.53295,1636677322.54747,1636677334.40404,1636677334.41418,1636677336.50483,1636677344.04097,1636677344.04289,1636677344.99317,1636677344.99133,1636677815.16667,1
92,4,1,4,7,8,2,c2_WhyHand,2,helping?,40,H_012.jpg,1636677207.92375,1636677207.93549,111.849199047089,11.8657288551331,123.720291843414,125.821076145172,0.3,134.62435959816,0.833643436431885,135.46376704216,3,right,0.816216945648193,135.458003034592,604.482913484573,607.242913484573,1636677322.53295,1636677322.54747,1636677334.40404,1636677334.41418,1636677336.50483,1636677345.30811,1636677345.30969,1636677346.14752,1636677346.14176,1636677815.16667,0
92,4,1,4,8,1,4,c4_HowHand,1,both hands?,122,H_111.jpg,1636677207.92375,1636677207.93549,135.524694910049,5.72020101547241,141.260166397095,143.360949745178,2.1007833480835,143.51100610733,0.750280141830444,144.26280497551,1,left,0.741073846817017,144.261286249161,604.482913484573,607.242913484573,1636677346.20845,1636677346.21368,1636677351.94392,1636677351.94722,1636677354.0447,1636677354.19476,1636677354.19715,1636677354.94656,1636677354.94504,1636677815.16667,1
92,4,1,4,8,2,4,c4_HowHand,1,both hands?,128,H_027.jpg,1636677207.92375,1636677207.93549,135.524694910049,5.72020101547241,141.260166397095,143.360949745178,0.3,144.578071107864,0.750280618667603,145.329627027512,1,left,0.727719068527222,145.328351726532,604.482913484573,607.242913484573,1636677346.20845,1636677346.21368,1636677351.94392,1636677351.94722,1636677354.0447,1636677355.26182,1636677355.2637,1636677356.01338,1636677356.0121,1636677815.16667,1
92,4,1,4,8,3,4,c4_HowHand,2,both hands?,121,H_091.jpg,1636677207.92375,1636677207.93549,135.524694910049,5.72020101547241,141.260166397095,143.360949745178,0.3,145.645134916306,0.716934204101562,146.36305688858,3,right,0.706954956054688,146.362069120407,604.482913484573,607.242913484573,1636677346.20845,1636677346.21368,1636677351.94392,1636677351.94722,1636677354.0447,1636677356.32889,1636677356.33011,1636677357.04681,1636677357.04582,1636677815.16667,0
92,4,1,4,8,4,4,c4_HowHand,1,both hands?,123,H_167.jpg,1636677207.92375,1636677207.93549,135.524694910049,5.72020101547241,141.260166397095,143.360949745178,0.3,146.678852787018,0.917009830474854,147.597678890228,1,left,0.907809019088745,147.595862617493,604.482913484573,607.242913484573,1636677346.20845,1636677346.21368,1636677351.94392,1636677351.94722,1636677354.0447,1636677357.3626,1636677357.3642,1636677358.28143,1636677358.27961,1636677815.16667,1
92,4,1,4,8,5,4,c4_HowHand,1,both hands?,124,H_581.jpg,1636677207.92375,1636677207.93549,135.524694910049,5.72020101547241,141.260166397095,143.360949745178,0.3,147.912648191452,0.900335311889648,148.814807882309,1,left,0.883188009262085,148.812983503342,604.482913484573,607.242913484573,1636677346.20845,1636677346.21368,1636677351.94392,1636677351.94722,1636677354.0447,1636677358.5964,1636677358.59802,1636677359.49856,1636677359.49674,1636677815.16667,1
92,4,1,4,8,6,4,c4_HowHand,2,both hands?,126,H_159.jpg,1636677207.92375,1636677207.93549,135.524694910049,5.72020101547241,141.260166397095,143.360949745178,0.3,149.129767885208,0.833644866943359,149.965384950638,3,right,0.810879945755005,149.963412752151,604.482913484573,607.242913484573,1636677346.20845,1636677346.21368,1636677351.94392,1636677351.94722,1636677354.0447,1636677359.81352,1636677359.81554,1636677360.64914,1636677360.64716,1636677815.16667,0
92,4,1,4,8,7,4,c4_HowHand,1,both hands?,127,H_349.jpg,1636677207.92375,1636677207.93549,135.524694910049,5.72020101547241,141.260166397095,143.360949745178,0.3,150.280196895599,0.633570432662964,150.914700021744,1,left,0.623288154602051,150.913767328262,604.482913484573,607.242913484573,1636677346.20845,1636677346.21368,1636677351.94392,1636677351.94722,1636677354.0447,1636677360.96395,1636677360.96568,1636677361.59845,1636677361.59752,1636677815.16667,1
92,4,1,4,8,8,4,c4_HowHand,2,both hands?,125,H_627.jpg,1636677207.92375,1636677207.93549,135.524694910049,5.72020101547241,141.260166397095,143.360949745178,0.3,151.230552186966,1.38384938240051,152.61618803978,3,right,1.36240601539612,152.614401569366,604.482913484573,607.242913484573,1636677346.20845,1636677346.21368,1636677351.94392,1636677351.94722,1636677354.0447,1636677361.9143,1636677361.91607,1636677363.29994,1636677363.29815,1636677815.16667,0
92,4,1,4,9,1,2,c2_WhyHand,1,healthy?,18,H_438.jpg,1636677207.92375,1636677207.93549,152.681092252731,6.09408259391785,158.783367624283,160.884152164459,2.10078454017639,161.034208288193,0.950353622436523,161.996469964981,1,left,0.938872814178467,161.984561910629,604.482913484573,607.242913484573,1636677363.36484,1636677363.36637,1636677369.46712,1636677369.48118,1636677371.5679,1636677371.71796,1636677371.72005,1636677372.68022,1636677372.66831,1636677815.16667,1
92,4,1,4,9,2,2,c2_WhyHand,1,healthy?,23,H_364.jpg,1636677207.92375,1636677207.93549,152.681092252731,6.09408259391785,158.783367624283,160.884152164459,0.3,162.30134724617,1.56725072860718,163.870473852158,1,left,1.54992604255676,163.868597974777,604.482913484573,607.242913484573,1636677363.36484,1636677363.36637,1636677369.46712,1636677369.48118,1636677371.5679,1636677372.9851,1636677372.98673,1636677374.55423,1636677374.55235,1636677815.16667,1
92,4,1,4,9,3,2,c2_WhyHand,1,healthy?,17,H_362.jpg,1636677207.92375,1636677207.93549,152.681092252731,6.09408259391785,158.783367624283,160.884152164459,0.3,164.185383071899,1.26713919639587,165.463594903946,1,left,1.25762104988098,165.452522268295,604.482913484573,607.242913484573,1636677363.36484,1636677363.36637,1636677369.46712,1636677369.48118,1636677371.5679,1636677374.86914,1636677374.87133,1636677376.14735,1636677376.13627,1636677815.16667,1
92,4,1,4,9,4,2,c2_WhyHand,2,healthy?,24,H_019.jpg,1636677207.92375,1636677207.93549,152.681092252731,6.09408259391785,158.783367624283,160.884152164459,0.3,165.76930688858,0.683588743209839,166.463325967789,3,right,0.672476053237915,166.45289563179,604.482913484573,607.242913484573,1636677363.36484,1636677363.36637,1636677369.46712,1636677369.48118,1636677371.5679,1636677376.45306,1636677376.45465,1636677377.14708,1636677377.13665,1636677815.16667,0
92,4,1,4,9,5,2,c2_WhyHand,1,healthy?,19,H_167.jpg,1636677207.92375,1636677207.93549,152.681092252731,6.09408259391785,158.783367624283,160.884152164459,0.3,166.769679536819,0.683588743209839,167.45492099762,1,left,0.66118597984314,167.453268280029,604.482913484573,607.242913484573,1636677363.36484,1636677363.36637,1636677369.46712,1636677369.48118,1636677371.5679,1636677377.45343,1636677377.455,1636677378.13867,1636677378.13702,1636677815.16667,1
92,4,1,4,9,6,2,c2_WhyHand,2,healthy?,20,H_007.jpg,1636677207.92375,1636677207.93549,152.681092252731,6.09408259391785,158.783367624283,160.884152164459,0.3,167.770052900314,0.800298929214478,168.57959197998,3,right,0.788825988769531,168.570351829529,604.482913484573,607.242913484573,1636677363.36484,1636677363.36637,1636677369.46712,1636677369.48118,1636677371.5679,1636677378.4538,1636677378.455,1636677379.26334,1636677379.2541,1636677815.16667,0
92,4,1,4,9,7,2,c2_WhyHand,1,healthy?,21,H_627.jpg,1636677207.92375,1636677207.93549,152.681092252731,6.09408259391785,158.783367624283,160.884152164459,0.3,168.887136449814,0.883663654327393,169.779707899094,1,left,0.874788045883179,169.770800104141,604.482913484573,607.242913484573,1636677363.36484,1636677363.36637,1636677369.46712,1636677369.48118,1636677371.5679,1636677379.57089,1636677379.57231,1636677380.46346,1636677380.45455,1636677815.16667,1
92,4,1,4,9,8,2,c2_WhyHand,2,healthy?,22,H_130.jpg,1636677207.92375,1636677207.93549,152.681092252731,6.09408259391785,158.783367624283,160.884152164459,0.3,170.087583770752,0.80029821395874,170.896399011612,3,right,0.792992115020752,170.887881984711,604.482913484573,607.242913484573,1636677363.36484,1636677363.36637,1636677369.46712,1636677369.48118,1636677371.5679,1636677380.77134,1636677380.77292,1636677381.58015,1636677381.57163,1636677815.16667,0
92,4,1,4,10,1,4,c4_HowHand,1,pressing button?,82,H_126.jpg,1636677207.92375,1636677207.93549,170.971245994568,6.47992300987244,177.456999530792,179.557781686783,2.1007821559906,179.707838525772,0.616896390914917,180.329598894119,1,left,0.605931997299194,180.324734916687,604.482913484573,607.242913484573,1636677381.655,1636677381.65662,1636677388.14075,1636677388.14737,1636677390.24153,1636677390.39159,1636677390.39733,1636677391.01335,1636677391.00849,1636677815.16667,1
92,4,1,4,10,2,4,c4_HowHand,2,pressing button?,85,H_130.jpg,1636677207.92375,1636677207.93549,170.971245994568,6.47992300987244,177.456999530792,179.557781686783,0.3,180.641520490646,0.850316762924194,181.493139972687,3,right,0.82913613319397,181.491837253571,604.482913484573,607.242913484573,1636677381.655,1636677381.65662,1636677388.14075,1636677388.14737,1636677390.24153,1636677391.32527,1636677391.32735,1636677392.17689,1636677392.17559,1636677815.16667,0
92,4,1,4,10,3,4,c4_HowHand,1,pressing button?,84,H_483.jpg,1636677207.92375,1636677207.93549,170.971245994568,6.47992300987244,177.456999530792,179.557781686783,0.3,181.808622112274,0.650242567062378,182.46296500206,1,left,0.643513917922974,182.458864679337,604.482913484573,607.242913484573,1636677381.655,1636677381.65662,1636677388.14075,1636677388.14737,1636677390.24153,1636677392.49237,1636677392.4937,1636677393.14672,1636677393.14262,1636677815.16667,1
92,4,1,4,10,4,4,c4_HowHand,2,pressing button?,87,H_024.jpg,1636677207.92375,1636677207.93549,170.971245994568,6.47992300987244,177.456999530792,179.557781686783,0.3,182.775649061203,0.700260877609253,183.477637042999,3,right,0.679496049880981,183.475909938812,604.482913484573,607.242913484573,1636677381.655,1636677381.65662,1636677388.14075,1636677388.14737,1636677390.24153,1636677393.4594,1636677393.46042,1636677394.16139,1636677394.15966,1636677815.16667,0
92,4,1,4,10,5,4,c4_HowHand,1,pressing button?,86,H_332.jpg,1636677207.92375,1636677207.93549,170.971245994568,6.47992300987244,177.456999530792,179.557781686783,0.3,183.792695035934,0.633569478988647,184.427350988388,1,left,0.609104156494141,184.426264514923,604.482913484573,607.242913484573,1636677381.655,1636677381.65662,1636677388.14075,1636677388.14737,1636677390.24153,1636677394.47645,1636677394.48041,1636677395.1111,1636677395.11002,1636677815.16667,1
92,4,1,4,10,6,4,c4_HowHand,1,pressing button?,88,H_019.jpg,1636677207.92375,1636677207.93549,170.971245994568,6.47992300987244,177.456999530792,179.557781686783,0.3,184.743049612045,0.716933965682983,185.463641872406,1,left,0.69453501701355,185.459983577728,604.482913484573,607.242913484573,1636677381.655,1636677381.65662,1636677388.14075,1636677388.14737,1636677390.24153,1636677395.4268,1636677395.43074,1636677396.14739,1636677396.14374,1636677815.16667,1
92,4,1,4,10,7,4,c4_HowHand,2,pressing button?,81,H_261.jpg,1636677207.92375,1636677207.93549,170.971245994568,6.47992300987244,177.456999530792,179.557781686783,0.3,185.77676867485,0.750279664993286,186.529573907852,3,right,0.736824035644531,186.527048339844,604.482913484573,607.242913484573,1636677381.655,1636677381.65662,1636677388.14075,1636677388.14737,1636677390.24153,1636677396.46052,1636677396.46416,1636677397.21333,1636677397.2108,1636677815.16667,0
92,4,1,4,10,8,4,c4_HowHand,1,pressing button?,83,H_502.jpg,1636677207.92375,1636677207.93549,170.971245994568,6.47992300987244,177.456999530792,179.557781686783,0.3,186.843833198547,0.583550691604614,187.430258026123,1,left,0.561139822006226,187.427383890152,604.482913484573,607.242913484573,1636677381.655,1636677381.65662,1636677388.14075,1636677388.14737,1636677390.24153,1636677397.52759,1636677397.53044,1636677398.11401,1636677398.11114,1636677815.16667,1
92,4,1,4,11,1,3,c3_HowFace,1,looking at camera?,60,F_618.jpg,1636677207.92375,1636677207.93549,187.494075050354,11.4369068145752,198.948347082138,201.049130191803,2.10078310966492,201.199186077118,0.633569717407227,201.8338808918,1,left,0.616422891616821,201.832755794525,604.482913484573,607.242913484573,1636677398.17783,1636677398.18037,1636677409.6321,1636677409.63367,1636677411.73288,1636677411.88294,1636677411.88483,1636677412.51763,1636677412.51651,1636677815.16667,1
92,4,1,4,11,2,3,c3_HowFace,2,looking at camera?,58,F_754.jpg,1636677207.92375,1636677207.93549,187.494075050354,11.4369068145752,198.948347082138,201.049130191803,0.3,202.149539699554,0.700262308120728,202.862990846634,3,right,0.6893310546875,202.849802007675,604.482913484573,607.242913484573,1636677398.17783,1636677398.18037,1636677409.6321,1636677409.63367,1636677411.73288,1636677412.83329,1636677412.83505,1636677413.54674,1636677413.53355,1636677815.16667,0
92,4,1,4,11,3,3,c3_HowFace,1,looking at camera?,59,F_129.jpg,1636677207.92375,1636677207.93549,187.494075050354,11.4369068145752,198.948347082138,201.049130191803,0.3,203.166586151123,0.583551406860352,203.763501873016,1,left,0.572587966918945,203.750137557983,604.482913484573,607.242913484573,1636677398.17783,1636677398.18037,1636677409.6321,1636677409.63367,1636677411.73288,1636677413.85034,1636677413.85166,1636677414.44725,1636677414.43389,1636677815.16667,1
92,4,1,4,11,4,3,c3_HowFace,1,looking at camera?,62,F_598.jpg,1636677207.92375,1636677207.93549,187.494075050354,11.4369068145752,198.948347082138,201.049130191803,0.3,204.066922655106,0.633569240570068,204.713955869675,1,left,0.623805046081543,204.700491895676,604.482913484573,607.242913484573,1636677398.17783,1636677398.18037,1636677409.6321,1636677409.63367,1636677411.73288,1636677414.75067,1636677414.7522,1636677415.39771,1636677415.38424,1636677815.16667,1
92,4,1,4,11,5,3,c3_HowFace,1,looking at camera?,64,F_128.jpg,1636677207.92375,1636677207.93549,187.494075050354,11.4369068145752,198.948347082138,201.049130191803,0.3,205.017276992798,0.533531904220581,205.563611021042,1,left,0.523880004882812,205.550808897018,604.482913484573,607.242913484573,1636677398.17783,1636677398.18037,1636677409.6321,1636677409.63367,1636677411.73288,1636677415.70103,1636677415.70279,1636677416.24736,1636677416.23456,1636677815.16667,1
92,4,1,4,11,6,3,c3_HowFace,2,looking at camera?,57,F_582.jpg,1636677207.92375,1636677207.93549,187.494075050354,11.4369068145752,198.948347082138,201.049130191803,0.3,205.867593755722,0.833644390106201,206.713605871201,3,right,0.824892997741699,206.701238145828,604.482913484573,607.242913484573,1636677398.17783,1636677398.18037,1636677409.6321,1636677409.63367,1636677411.73288,1636677416.55135,1636677416.55292,1636677417.39736,1636677417.38499,1636677815.16667,0
92,4,1,4,11,7,3,c3_HowFace,1,looking at camera?,61,F_774.jpg,1636677207.92375,1636677207.93549,187.494075050354,11.4369068145752,198.948347082138,201.049130191803,0.3,207.01802324295,0.616895914077759,207.636389961243,1,left,0.598668813705444,207.634919157028,604.482913484573,607.242913484573,1636677398.17783,1636677398.18037,1636677409.6321,1636677409.63367,1636677411.73288,1636677417.70178,1636677417.70317,1636677418.32014,1636677418.31867,1636677815.16667,1
92,4,1,4,11,8,3,c3_HowFace,2,looking at camera?,63,F_743.jpg,1636677207.92375,1636677207.93549,187.494075050354,11.4369068145752,198.948347082138,201.049130191803,0.3,207.951703777313,0.850317239761353,208.803102960587,3,right,0.8318030834198,208.802021017075,604.482913484573,607.242913484573,1636677398.17783,1636677398.18037,1636677409.6321,1636677409.63367,1636677411.73288,1636677418.63546,1636677418.6368,1636677419.48686,1636677419.48577,1636677815.16667,0
92,4,1,4,12,1,1,c1_WhyFace,1,self-doubt?,25,F_798.jpg,1636677207.92375,1636677207.93549,208.88538526535,8.83552074432373,217.738687505722,219.839471092224,2.10078358650208,219.989527692795,0.683587551116943,220.679611911774,1,left,0.67214298248291,220.673115243912,604.482913484573,607.242913484573,1636677419.56914,1636677419.58055,1636677428.42244,1636677428.42379,1636677430.52322,1636677430.67328,1636677430.67523,1636677431.36336,1636677431.35687,1636677815.16667,1
92,4,1,4,12,2,1,c1_WhyFace,2,self-doubt?,27,F_086.jpg,1636677207.92375,1636677207.93549,208.88538526535,8.83552074432373,217.738687505722,219.839471092224,0.3,220.989900579453,0.833644151687622,221.825278987885,1,left,0.814285039901733,221.82354473114,604.482913484573,607.242913484573,1636677419.56914,1636677419.58055,1636677428.42244,1636677428.42379,1636677430.52322,1636677431.67365,1636677431.67539,1636677432.50903,1636677432.5073,1636677815.16667,0
92,4,1,4,12,3,1,c1_WhyFace,1,self-doubt?,29,F_544.jpg,1636677207.92375,1636677207.93549,208.88538526535,8.83552074432373,217.738687505722,219.839471092224,0.3,222.140329589844,0.750278234481812,222.896282901764,1,left,0.734757900238037,222.890607824326,604.482913484573,607.242913484573,1636677419.56914,1636677419.58055,1636677428.42244,1636677428.42379,1636677430.52322,1636677432.82408,1636677432.82603,1636677433.58003,1636677433.57436,1636677815.16667,1
92,4,1,4,12,4,1,c1_WhyFace,1,self-doubt?,28,F_754.jpg,1636677207.92375,1636677207.93549,208.88538526535,8.83552074432373,217.738687505722,219.839471092224,0.3,223.207393159866,0.833645343780518,224.042801847458,1,left,0.810800075531006,224.041038503647,604.482913484573,607.242913484573,1636677419.56914,1636677419.58055,1636677428.42244,1636677428.42379,1636677430.52322,1636677433.89115,1636677433.89277,1636677434.72655,1636677434.72479,1636677815.16667,1
92,4,1,4,12,5,1,c1_WhyFace,1,self-doubt?,26,F_111.jpg,1636677207.92375,1636677207.93549,208.88538526535,8.83552074432373,217.738687505722,219.839471092224,0.3,224.357821931839,0.616896390914917,224.979637851715,1,left,0.603723049163818,224.974718322754,604.482913484573,607.242913484573,1636677419.56914,1636677419.58055,1636677428.42244,1636677428.42379,1636677430.52322,1636677435.04157,1636677435.04348,1636677435.66339,1636677435.65847,1636677815.16667,1
92,4,1,4,12,6,1,c1_WhyFace,1,self-doubt?,30,F_584.jpg,1636677207.92375,1636677207.93549,208.88538526535,8.83552074432373,217.738687505722,219.839471092224,0.3,225.291504135132,0.800297737121582,226.096945991516,1,left,0.781631946563721,226.091801872253,604.482913484573,607.242913484573,1636677419.56914,1636677419.58055,1636677428.42244,1636677428.42379,1636677430.52322,1636677435.97526,1636677435.97684,1636677436.7807,1636677436.77555,1636677815.16667,1
92,4,1,4,12,7,1,c1_WhyFace,2,self-doubt?,32,F_128.jpg,1636677207.92375,1636677207.93549,208.88538526535,8.83552074432373,217.738687505722,219.839471092224,0.3,226.408586730957,0.700261116027832,227.112798919678,3,right,0.693759918212891,227.108847846985,604.482913484573,607.242913484573,1636677419.56914,1636677419.58055,1636677428.42244,1636677428.42379,1636677430.52322,1636677437.09234,1636677437.09384,1636677437.79655,1636677437.7926,1636677815.16667,0
92,4,1,4,12,8,1,c1_WhyFace,2,self-doubt?,31,F_774.jpg,1636677207.92375,1636677207.93549,208.88538526535,8.83552074432373,217.738687505722,219.839471092224,0.3,227.425633182526,1.01704478263855,228.446174850464,3,right,1.00686192512512,228.442677965164,604.482913484573,607.242913484573,1636677419.56914,1636677419.58055,1636677428.42244,1636677428.42379,1636677430.52322,1636677438.10939,1636677438.11389,1636677439.12993,1636677439.12643,1636677815.16667,0
92,4,1,4,13,1,2,c2_WhyHand,1,self-protection?,91,H_581.jpg,1636677207.92375,1636677207.93549,228.509371271133,6.74162554740906,235.26188873291,237.362672080994,2.1007833480835,237.512727966309,0.900336027145386,238.414760818481,1,left,0.884752988815308,238.413063993454,604.482913484573,607.242913484573,1636677439.19312,1636677439.19675,1636677445.94564,1636677445.94711,1636677448.04642,1636677448.19648,1636677448.19852,1636677449.09851,1636677449.09682,1636677815.16667,1
92,4,1,4,13,2,2,c2_WhyHand,1,self-protection?,89,H_443.jpg,1636677207.92375,1636677207.93549,228.509371271133,6.74162554740906,235.26188873291,237.362672080994,0.3,238.72984837532,0.883662939071655,239.61458896637,1,left,0.868558883666992,239.613511314392,604.482913484573,607.242913484573,1636677439.19312,1636677439.19675,1636677445.94564,1636677445.94711,1636677448.04642,1636677449.4136,1636677449.41502,1636677450.29834,1636677450.29726,1636677815.16667,1
92,4,1,4,13,3,2,c2_WhyHand,2,self-protection?,95,H_332.jpg,1636677207.92375,1636677207.93549,228.509371271133,6.74162554740906,235.26188873291,237.362672080994,0.3,239.930296888351,0.700261116027832,240.631582012177,3,right,0.691447019577026,240.630558004379,604.482913484573,607.242913484573,1636677439.19312,1636677439.19675,1636677445.94564,1636677445.94711,1636677448.04642,1636677450.61405,1636677450.61571,1636677451.31533,1636677451.31431,1636677815.16667,0
92,4,1,4,13,4,2,c2_WhyHand,1,self-protection?,96,H_027.jpg,1636677207.92375,1636677207.93549,228.509371271133,6.74162554740906,235.26188873291,237.362672080994,0.3,240.947341194153,0.917010068893433,241.866030921936,1,left,0.899318218231201,241.864351263046,604.482913484573,607.242913484573,1636677439.19312,1636677439.19675,1636677445.94564,1636677445.94711,1636677448.04642,1636677451.63109,1636677451.63271,1636677452.54978,1636677452.5481,1636677815.16667,1
92,4,1,4,13,5,2,c2_WhyHand,2,self-protection?,92,H_532.jpg,1636677207.92375,1636677207.93549,228.509371271133,6.74162554740906,235.26188873291,237.362672080994,0.3,242.18113612175,0.900335311889648,243.083241930008,3,right,0.877897977828979,243.08147143364,604.482913484573,607.242913484573,1636677439.19312,1636677439.19675,1636677445.94564,1636677445.94711,1636677448.04642,1636677452.86489,1636677452.86696,1636677453.76699,1636677453.76522,1636677815.16667,0
92,4,1,4,13,6,2,c2_WhyHand,1,self-protection?,94,H_189.jpg,1636677207.92375,1636677207.93549,228.509371271133,6.74162554740906,235.26188873291,237.362672080994,0.3,243.398256053925,1.01704621315002,244.416378011704,1,left,0.995930194854736,244.415302267075,604.482913484573,607.242913484573,1636677439.19312,1636677439.19675,1636677445.94564,1636677445.94711,1636677448.04642,1636677454.08201,1636677454.08399,1636677455.10013,1636677455.09905,1636677815.16667,1
92,4,1,4,13,7,2,c2_WhyHand,2,self-protection?,90,H_006.jpg,1636677207.92375,1636677207.93549,228.509371271133,6.74162554740906,235.26188873291,237.362672080994,0.3,244.732087364197,1.08373665809631,245.830359926224,3,right,1.07682108879089,245.815824022293,604.482913484573,607.242913484573,1636677439.19312,1636677439.19675,1636677445.94564,1636677445.94711,1636677448.04642,1636677455.41584,1636677455.41749,1636677456.51411,1636677456.49958,1636677815.16667,0
92,4,1,4,13,8,2,c2_WhyHand,1,self-protection?,93,H_038.jpg,1636677207.92375,1636677207.93549,228.509371271133,6.74162554740906,235.26188873291,237.362672080994,0.3,246.132609119415,1.08373808860779,247.217386951447,1,left,1.06435203552246,247.216347208023,604.482913484573,607.242913484573,1636677439.19312,1636677439.19675,1636677445.94564,1636677445.94711,1636677448.04642,1636677456.81636,1636677456.81779,1636677457.90114,1636677457.9001,1636677815.16667,1
92,4,1,4,14,1,4,c4_HowHand,1,lifting?,50,H_443.jpg,1636677207.92375,1636677207.93549,247.283038606644,5.84288144111633,253.135220994949,255.236003866196,2.10078287124634,255.386060228348,0.883662939071655,256.271253814697,1,left,0.857519149780273,256.269723167419,604.482913484573,607.242913484573,1636677457.96679,1636677457.96868,1636677463.81897,1636677463.8309,1636677465.91976,1636677466.06981,1636677466.08089,1636677466.95501,1636677466.95348,1636677815.16667,1
92,4,1,4,14,2,4,c4_HowHand,2,lifting?,51,H_038.jpg,1636677207.92375,1636677207.93549,247.283038606644,5.84288144111633,253.135220994949,255.236003866196,0.3,256.586508264542,0.900336027145386,257.496739854813,3,right,0.891852855682373,257.486844291687,604.482913484573,607.242913484573,1636677457.96679,1636677457.96868,1636677463.81897,1636677463.8309,1636677465.91976,1636677467.27026,1636677467.27197,1636677468.18049,1636677468.1706,1636677815.16667,0
92,4,1,4,14,3,4,c4_HowHand,1,lifting?,56,H_136.jpg,1636677207.92375,1636677207.93549,247.283038606644,5.84288144111633,253.135220994949,255.236003866196,0.3,257.803628673553,0.883662939071655,258.688421001434,1,left,0.861729145050049,258.687291612625,604.482913484573,607.242913484573,1636677457.96679,1636677457.96868,1636677463.81897,1636677463.8309,1636677465.91976,1636677468.48738,1636677468.48924,1636677469.37217,1636677469.37104,1636677815.16667,1
92,4,1,4,14,4,4,c4_HowHand,2,lifting?,55,H_012.jpg,1636677207.92375,1636677207.93549,247.283038606644,5.84288144111633,253.135220994949,255.236003866196,0.3,259.004075279236,0.766953945159912,259.77257894516,3,right,0.747614860534668,259.771029224396,604.482913484573,607.242913484573,1636677457.96679,1636677457.96868,1636677463.81897,1636677463.8309,1636677465.91976,1636677469.68783,1636677469.68955,1636677470.45633,1636677470.45478,1636677815.16667,0
92,4,1,4,14,5,4,c4_HowHand,1,lifting?,49,H_362.jpg,1636677207.92375,1636677207.93549,247.283038606644,5.84288144111633,253.135220994949,255.236003866196,0.3,260.087813129425,0.583552122116089,260.672412862778,1,left,0.566795110702515,260.671365251541,604.482913484573,607.242913484573,1636677457.96679,1636677457.96868,1636677463.81897,1636677463.8309,1636677465.91976,1636677470.77157,1636677470.77336,1636677471.35616,1636677471.35512,1636677815.16667,1
92,4,1,4,14,6,4,c4_HowHand,1,lifting?,52,H_189.jpg,1636677207.92375,1636677207.93549,247.283038606644,5.84288144111633,253.135220994949,255.236003866196,0.3,260.988150348663,0.967026472091675,261.963598003387,1,left,0.953356981277466,261.955176820755,604.482913484573,607.242913484573,1636677457.96679,1636677457.96868,1636677463.81897,1636677463.8309,1636677465.91976,1636677471.6719,1636677471.67379,1636677472.64735,1636677472.63893,1636677815.16667,1
92,4,1,4,14,7,4,c4_HowHand,1,lifting?,54,H_170.jpg,1636677207.92375,1636677207.93549,247.283038606644,5.84288144111633,253.135220994949,255.236003866196,0.3,262.271960964203,0.750279426574707,263.029647817612,1,left,0.738271951675415,263.022240390778,604.482913484573,607.242913484573,1636677457.96679,1636677457.96868,1636677463.81897,1636677463.8309,1636677465.91976,1636677472.95571,1636677472.95713,1636677473.7134,1636677473.70599,1636677815.16667,1
92,4,1,4,14,8,4,c4_HowHand,2,lifting?,53,H_077.jpg,1636677207.92375,1636677207.93549,247.283038606644,5.84288144111633,253.135220994949,255.236003866196,0.3,263.339026203156,0.866989135742188,264.213032951355,3,right,0.861348152160645,264.206015338898,604.482913484573,607.242913484573,1636677457.96679,1636677457.96868,1636677463.81897,1636677463.8309,1636677465.91976,1636677474.02278,1636677474.02404,1636677474.89679,1636677474.88977,1636677815.16667,0
92,4,1,4,15,1,3,c3_HowFace,1,looking to side?,67,F_716.jpg,1636677207.92375,1636677207.93549,264.289380302429,6.71150374412537,271.00855301857,273.109335889816,2.10078287124634,273.259392251968,0.766953706741333,274.03022693634,1,left,0.747976064682007,274.02634595871,604.482913484573,607.242913484573,1636677474.97313,1636677474.9801,1636677481.69231,1636677481.69714,1636677483.79309,1636677483.94314,1636677483.9474,1636677484.71398,1636677484.7101,1636677815.16667,1
92,4,1,4,15,2,3,c3_HowFace,2,looking to side?,65,F_798.jpg,1636677207.92375,1636677207.93549,264.289380302429,6.71150374412537,271.00855301857,273.109335889816,0.3,274.343128910065,0.783626317977905,275.129595985413,3,right,0.762140035629272,275.126755228043,604.482913484573,607.242913484573,1636677474.97313,1636677474.9801,1636677481.69231,1636677481.69714,1636677483.79309,1636677485.02688,1636677485.03052,1636677485.81335,1636677485.81051,1636677815.16667,0
92,4,1,4,15,3,3,c3_HowFace,1,looking to side?,68,F_760.jpg,1636677207.92375,1636677207.93549,264.289380302429,6.71150374412537,271.00855301857,273.109335889816,0.3,275.443539848328,0.816972494125366,276.263728847504,1,left,0.805813789367676,276.260512342453,604.482913484573,607.242913484573,1636677474.97313,1636677474.9801,1636677481.69231,1636677481.69714,1636677483.79309,1636677486.12729,1636677486.13072,1636677486.94748,1636677486.94426,1636677815.16667,1
92,4,1,4,15,4,3,c3_HowFace,1,looking to side?,69,F_110.jpg,1636677207.92375,1636677207.93549,264.289380302429,6.71150374412537,271.00855301857,273.109335889816,0.3,276.577296485901,0.783625364303589,277.362874975204,1,left,0.773746967315674,277.360921850204,604.482913484573,607.242913484573,1636677474.97313,1636677474.9801,1636677481.69231,1636677481.69714,1636677483.79309,1636677487.26105,1636677487.2639,1636677488.04663,1636677488.04467,1636677815.16667,1
92,4,1,4,15,5,3,c3_HowFace,2,looking to side?,70,F_779.jpg,1636677207.92375,1636677207.93549,264.289380302429,6.71150374412537,271.00855301857,273.109335889816,0.3,277.677707424164,0.800297975540161,278.479675045013,1,left,0.784271001815796,278.478005399704,604.482913484573,607.242913484573,1636677474.97313,1636677474.9801,1636677481.69231,1636677481.69714,1636677483.79309,1636677488.36146,1636677488.36375,1636677489.16343,1636677489.16176,1636677815.16667,0
92,4,1,4,15,6,3,c3_HowFace,1,looking to side?,72,F_590.jpg,1636677207.92375,1636677207.93549,264.289380302429,6.71150374412537,271.00855301857,273.109335889816,0.3,278.794790019989,0.600224494934082,279.396785964966,1,left,0.580919981002808,279.395014514923,604.482913484573,607.242913484573,1636677474.97313,1636677474.9801,1636677481.69231,1636677481.69714,1636677483.79309,1636677489.47854,1636677489.48055,1636677490.08054,1636677490.07877,1636677815.16667,1
92,4,1,4,15,7,3,c3_HowFace,2,looking to side?,66,F_111.jpg,1636677207.92375,1636677207.93549,264.289380302429,6.71150374412537,271.00855301857,273.109335889816,0.3,279.711799135208,0.80029821395874,280.513792028427,3,right,0.787546873092651,280.512097349167,604.482913484573,607.242913484573,1636677474.97313,1636677474.9801,1636677481.69231,1636677481.69714,1636677483.79309,1636677490.39555,1636677490.39747,1636677491.19754,1636677491.19585,1636677815.16667,0
92,4,1,4,15,8,3,c3_HowFace,1,looking to side?,71,F_433.jpg,1636677207.92375,1636677207.93549,264.289380302429,6.71150374412537,271.00855301857,273.109335889816,0.3,280.828881969452,0.616896629333496,281.447247972488,1,left,0.606539964675903,281.445778598785,604.482913484573,607.242913484573,1636677474.97313,1636677474.9801,1636677481.69231,1636677481.69714,1636677483.79309,1636677491.51263,1636677491.51423,1636677492.131,1636677492.12953,1636677815.16667,1
92,4,1,4,16,1,1,c1_WhyFace,1,proud?,101,F_083.jpg,1636677207.92375,1636677207.93549,281.52914308548,7.00187087059021,288.548427095413,290.649211397171,2.10078430175781,290.799266805649,1.03371834754944,291.834105005264,1,left,1.01541495323181,291.832985153198,604.482913484573,607.242913484573,1636677492.2129,1636677492.21476,1636677499.23218,1636677499.23359,1636677501.33296,1636677501.48302,1636677501.48493,1636677502.51786,1636677502.51674,1636677815.16667,1
92,4,1,4,16,2,1,c1_WhyFace,1,proud?,97,F_582.jpg,1636677207.92375,1636677207.93549,281.52914308548,7.00187087059021,288.548427095413,290.649211397171,0.3,292.149770011902,0.566877841949463,292.717686882019,1,left,0.545601844787598,292.716647853851,604.482913484573,607.242913484573,1636677492.2129,1636677492.21476,1636677499.23218,1636677499.23359,1636677501.33296,1636677502.83352,1636677502.83514,1636677503.40144,1636677503.4004,1636677815.16667,1
92,4,1,4,16,3,1,c1_WhyFace,1,proud?,103,F_618.jpg,1636677207.92375,1636677207.93549,281.52914308548,7.00187087059021,288.548427095413,290.649211397171,0.3,293.033432950974,0.700261354446411,293.746911993027,1,left,0.689894914627075,293.73369430542,604.482913484573,607.242913484573,1636677492.2129,1636677492.21476,1636677499.23218,1636677499.23359,1636677501.33296,1636677503.71719,1636677503.7186,1636677504.43066,1636677504.41745,1636677815.16667,1
92,4,1,4,16,4,1,c1_WhyFace,2,proud?,100,F_776.jpg,1636677207.92375,1636677207.93549,281.52914308548,7.00187087059021,288.548427095413,290.649211397171,0.3,294.050479164124,0.917007923126221,294.980406036377,3,right,0.908881902694702,294.96748708725,604.482913484573,607.242913484573,1636677492.2129,1636677492.21476,1636677499.23218,1636677499.23359,1636677501.33296,1636677504.73423,1636677504.73593,1636677505.66416,1636677505.65124,1636677815.16667,0
92,4,1,4,16,5,1,c1_WhyFace,1,proud?,104,F_598.jpg,1636677207.92375,1636677207.93549,281.52914308548,7.00187087059021,288.548427095413,290.649211397171,0.3,295.284272899628,0.683588027954102,295.979682912827,1,left,0.674389839172363,295.967860927582,604.482913484573,607.242913484573,1636677492.2129,1636677492.21476,1636677499.23218,1636677499.23359,1636677501.33296,1636677505.96802,1636677505.96973,1636677506.66343,1636677506.65161,1636677815.16667,1
92,4,1,4,16,6,1,c1_WhyFace,2,proud?,102,F_760.jpg,1636677207.92375,1636677207.93549,281.52914308548,7.00187087059021,288.548427095413,290.649211397171,0.3,296.28464673996,0.917007684707642,297.203099002838,3,right,0.896430015563965,297.201654424667,604.482913484573,607.242913484573,1636677492.2129,1636677492.21476,1636677499.23218,1636677499.23359,1636677501.33296,1636677506.9684,1636677506.96995,1636677507.88685,1636677507.88541,1636677815.16667,0
92,4,1,4,16,7,1,c1_WhyFace,2,proud?,98,F_412.jpg,1636677207.92375,1636677207.93549,281.52914308548,7.00187087059021,288.548427095413,290.649211397171,0.3,297.518439283371,0.766952037811279,298.286603918076,3,right,0.750410079956055,298.285391321182,604.482913484573,607.242913484573,1636677492.2129,1636677492.21476,1636677499.23218,1636677499.23359,1636677501.33296,1636677508.20219,1636677508.20403,1636677508.97036,1636677508.96914,1636677815.16667,0
92,4,1,4,16,8,1,c1_WhyFace,1,proud?,99,F_695.jpg,1636677207.92375,1636677207.93549,281.52914308548,7.00187087059021,288.548427095413,290.649211397171,0.3,298.602175941467,0.616897106170654,299.229629030228,1,left,0.606127023696899,299.219073047638,604.482913484573,607.242913484573,1636677492.2129,1636677492.21476,1636677499.23218,1636677499.23359,1636677501.33296,1636677509.28593,1636677509.28744,1636677509.91338,1636677509.90283,1636677815.16667,1
92,4,1,4,17,1,3,c3_HowFace,1,smiling?,115,F_695.jpg,1636677207.92375,1636677207.93549,299.302438488007,7.01844334602356,306.338395586014,308.439178934097,2.1007833480835,308.589233865738,0.833644151687622,309.429669847488,1,left,0.816914081573486,309.422878017426,604.482913484573,607.242913484573,1636677509.98619,1636677509.99736,1636677517.02215,1636677517.02445,1636677519.12293,1636677519.27299,1636677519.27555,1636677520.11342,1636677520.10663,1636677815.16667,1
92,4,1,4,17,2,3,c3_HowFace,2,smiling?,114,F_412.jpg,1636677207.92375,1636677207.93549,299.302438488007,7.01844334602356,306.338395586014,308.439178934097,0.3,309.739663114548,0.800298690795898,310.541023006439,3,right,0.77996301651001,310.539961805344,604.482913484573,607.242913484573,1636677509.98619,1636677509.99736,1636677517.02215,1636677517.02445,1636677519.12293,1636677520.42342,1636677520.42506,1636677521.22478,1636677521.22371,1636677815.16667,0
92,4,1,4,17,3,3,c3_HowFace,1,smiling?,117,F_593.jpg,1636677207.92375,1636677207.93549,299.302438488007,7.01844334602356,306.338395586014,308.439178934097,0.3,310.856745948792,0.600224256515503,311.463019838333,1,left,0.583559989929199,311.456970205307,604.482913484573,607.242913484573,1636677509.98619,1636677509.99736,1636677517.02215,1636677517.02445,1636677519.12293,1636677521.5405,1636677521.54201,1636677522.14677,1636677522.14072,1636677815.16667,1
92,4,1,4,17,4,3,c3_HowFace,1,smiling?,119,F_139.jpg,1636677207.92375,1636677207.93549,299.302438488007,7.01844334602356,306.338395586014,308.439178934097,0.3,311.773755302429,0.666915416717529,312.446868886948,1,left,0.659365892410278,312.440670719147,604.482913484573,607.242913484573,1636677509.98619,1636677509.99736,1636677517.02215,1636677517.02445,1636677519.12293,1636677522.45751,1636677522.45953,1636677523.13062,1636677523.12442,1636677815.16667,1
92,4,1,4,17,5,3,c3_HowFace,2,smiling?,113,F_712.jpg,1636677207.92375,1636677207.93549,299.302438488007,7.01844334602356,306.338395586014,308.439178934097,0.3,312.757455101013,0.550204992294312,313.313559999466,3,right,0.537857055664062,313.307660093308,604.482913484573,607.242913484573,1636677509.98619,1636677509.99736,1636677517.02215,1636677517.02445,1636677519.12293,1636677523.44121,1636677523.44319,1636677523.99731,1636677523.99141,1636677815.16667,0
92,4,1,4,17,6,3,c3_HowFace,1,smiling?,118,F_759.jpg,1636677207.92375,1636677207.93549,299.302438488007,7.01844334602356,306.338395586014,308.439178934097,0.3,313.624444952011,0.466840744018555,314.09301399231,1,left,0.445125102996826,314.09128569603,604.482913484573,607.242913484573,1636677509.98619,1636677509.99736,1636677517.02215,1636677517.02445,1636677519.12293,1636677524.3082,1636677524.30986,1636677524.77677,1636677524.77504,1636677815.16667,1
92,4,1,4,17,7,3,c3_HowFace,2,smiling?,120,F_758.jpg,1636677207.92375,1636677207.93549,299.302438488007,7.01844334602356,306.338395586014,308.439178934097,0.3,314.408071269989,0.917007923126221,315.329627027512,3,right,0.904748916625977,315.325079193115,604.482913484573,607.242913484573,1636677509.98619,1636677509.99736,1636677517.02215,1636677517.02445,1636677519.12293,1636677525.09182,1636677525.09365,1636677526.01338,1636677526.00883,1636677815.16667,0
92,4,1,4,17,8,3,c3_HowFace,1,smiling?,116,F_083.jpg,1636677207.92375,1636677207.93549,299.302438488007,7.01844334602356,306.338395586014,308.439178934097,0.3,315.641864051819,0.533533096313477,316.180249919891,1,left,0.519574165344238,316.175397148132,604.482913484573,607.242913484573,1636677509.98619,1636677509.99736,1636677517.02215,1636677517.02445,1636677519.12293,1636677526.32562,1636677526.32738,1636677526.864,1636677526.85915,1636677815.16667,1
92,4,1,4,18,1,1,c1_WhyFace,1,admiring?,4,F_779.jpg,1636677207.92375,1636677207.93549,316.258760681152,9.11621236801147,325.378829231262,327.47961186409,2.10078263282776,327.629668226242,0.833643674850464,328.464928855896,1,left,0.810371875762939,328.463311901093,604.482913484573,607.242913484573,1636677526.94251,1636677526.94421,1636677536.06258,1636677536.08106,1636677538.16336,1636677538.31342,1636677538.31503,1636677539.14868,1636677539.14706,1636677815.16667,1
92,4,1,4,18,2,1,c1_WhyFace,2,admiring?,3,F_110.jpg,1636677207.92375,1636677207.93549,316.258760681152,9.11621236801147,325.378829231262,327.47961186409,0.3,328.78009771347,0.967026948928833,329.763357868195,3,right,0.959942102432251,329.747124662399,604.482913484573,607.242913484573,1636677526.94251,1636677526.94421,1636677536.06258,1636677536.08106,1636677538.16336,1636677539.46385,1636677539.46541,1636677540.44711,1636677540.43088,1636677815.16667,0
92,4,1,4,18,3,1,c1_WhyFace,1,admiring?,8,F_590.jpg,1636677207.92375,1636677207.93549,316.258760681152,9.11621236801147,325.378829231262,327.47961186409,0.3,330.063908805847,0.516860246658325,330.582327833176,1,left,0.502684831619263,330.580769052506,604.482913484573,607.242913484573,1636677526.94251,1636677526.94421,1636677536.06258,1636677536.08106,1636677538.16336,1636677540.74766,1636677540.74912,1636677541.26608,1636677541.26452,1636677815.16667,1
92,4,1,4,18,4,1,c1_WhyFace,1,admiring?,7,F_648.jpg,1636677207.92375,1636677207.93549,316.258760681152,9.11621236801147,325.378829231262,327.47961186409,0.3,330.897553434372,0.600223541259766,331.498858919144,1,left,0.577372074127197,331.497776975632,604.482913484573,607.242913484573,1636677526.94251,1636677526.94421,1636677536.06258,1636677536.08106,1636677538.16336,1636677541.58131,1636677541.58285,1636677542.18261,1636677542.18153,1636677815.16667,1
92,4,1,4,18,5,1,c1_WhyFace,1,admiring?,5,F_759.jpg,1636677207.92375,1636677207.93549,316.258760681152,9.11621236801147,325.378829231262,327.47961186409,0.3,331.814562072754,0.516860246658325,332.332878818512,1,left,0.504544019699097,332.331422319412,604.482913484573,607.242913484573,1636677526.94251,1636677526.94421,1636677536.06258,1636677536.08106,1636677538.16336,1636677542.49831,1636677542.50021,1636677543.01663,1636677543.01517,1636677815.16667,1
92,4,1,4,18,6,1,c1_WhyFace,2,admiring?,2,F_129.jpg,1636677207.92375,1636677207.93549,316.258760681152,9.11621236801147,325.378829231262,327.47961186409,0.3,332.648205986023,0.666915893554688,333.316674938202,3,right,0.643976926803589,333.315121879578,604.482913484573,607.242913484573,1636677526.94251,1636677526.94421,1636677536.06258,1636677536.08106,1636677538.16336,1636677543.33196,1636677543.33348,1636677544.00043,1636677543.99887,1636677815.16667,0
92,4,1,4,18,7,1,c1_WhyFace,1,admiring?,1,F_593.jpg,1636677207.92375,1636677207.93549,316.258760681152,9.11621236801147,325.378829231262,327.47961186409,0.3,333.631907691956,0.600222587585449,334.233181943893,1,left,0.579946994781494,334.232130279541,604.482913484573,607.242913484573,1636677526.94251,1636677526.94421,1636677536.06258,1636677536.08106,1636677538.16336,1636677544.31566,1636677544.31756,1636677544.91693,1636677544.91588,1636677815.16667,1
92,4,1,4,18,8,1,c1_WhyFace,2,admiring?,6,F_692.jpg,1636677207.92375,1636677207.93549,316.258760681152,9.11621236801147,325.378829231262,327.47961186409,0.3,334.548914899826,0.93368124961853,335.48405002594,1,left,0.911357164382935,335.482596149445,604.482913484573,607.242913484573,1636677526.94251,1636677526.94421,1636677536.06258,1636677536.08106,1636677538.16336,1636677545.23267,1636677545.23415,1636677546.1678,1636677546.16635,1636677815.16667,0
92,4,1,4,19,1,2,c2_WhyHand,1,healthy?,23,H_364.jpg,1636677207.92375,1636677207.93549,335.565961351395,7.87894153594971,343.452235927582,345.553018798828,2.10078287124634,345.70307516098,0.816970348358154,346.530464878082,1,left,0.795660972595215,346.520045509338,604.482913484573,607.242913484573,1636677546.24971,1636677546.25149,1636677554.13599,1636677554.1477,1636677556.23677,1636677556.38683,1636677556.39756,1636677557.21422,1636677557.2038,1636677815.16667,1
92,4,1,4,19,2,2,c2_WhyHand,2,healthy?,20,H_007.jpg,1636677207.92375,1636677207.93549,335.565961351395,7.87894153594971,343.452235927582,345.553018798828,0.3,346.836830368042,1.1337571144104,347.981039037704,3,right,1.12052989006042,347.970587482452,604.482913484573,607.242913484573,1636677546.24971,1636677546.25149,1636677554.13599,1636677554.1477,1636677556.23677,1636677557.52058,1636677557.52286,1636677558.66479,1636677558.65434,1636677815.16667,0
92,4,1,4,19,3,2,c2_WhyHand,1,healthy?,19,H_167.jpg,1636677207.92375,1636677207.93549,335.565961351395,7.87894153594971,343.452235927582,345.553018798828,0.3,348.287372102737,0.816971063613892,349.11303185463,1,left,0.810152053833008,349.104343166351,604.482913484573,607.242913484573,1636677546.24971,1636677546.25149,1636677554.13599,1636677554.1477,1636677556.23677,1636677558.97112,1636677558.97281,1636677559.79678,1636677559.7881,1636677815.16667,1
92,4,1,4,19,4,2,c2_WhyHand,2,healthy?,22,H_130.jpg,1636677207.92375,1636677207.93549,335.565961351395,7.87894153594971,343.452235927582,345.553018798828,0.3,349.421128025055,0.800299644470215,350.222661962509,3,right,0.782279014587402,350.221427669525,604.482913484573,607.242913484573,1636677546.24971,1636677546.25149,1636677554.13599,1636677554.1477,1636677556.23677,1636677560.10488,1636677560.10678,1636677560.90641,1636677560.90518,1636677815.16667,0
92,4,1,4,19,5,2,c2_WhyHand,1,healthy?,18,H_438.jpg,1636677207.92375,1636677207.93549,335.565961351395,7.87894153594971,343.452235927582,345.553018798828,0.3,350.538211097717,0.533532381057739,351.079720010757,1,left,0.524354934692383,351.071743478775,604.482913484573,607.242913484573,1636677546.24971,1636677546.25149,1636677554.13599,1636677554.1477,1636677556.23677,1636677561.22196,1636677561.22397,1636677561.76347,1636677561.7555,1636677815.16667,1
92,4,1,4,19,6,2,c2_WhyHand,2,healthy?,24,H_019.jpg,1636677207.92375,1636677207.93549,335.565961351395,7.87894153594971,343.452235927582,345.553018798828,0.3,351.388527860641,0.650243282318115,352.039840927124,3,right,0.631505966186523,352.03877114296,604.482913484573,607.242913484573,1636677546.24971,1636677546.25149,1636677554.13599,1636677554.1477,1636677556.23677,1636677562.07228,1636677562.07394,1636677562.72359,1636677562.72252,1636677815.16667,0
92,4,1,4,19,7,2,c2_WhyHand,1,healthy?,17,H_362.jpg,1636677207.92375,1636677207.93549,335.565961351395,7.87894153594971,343.452235927582,345.553018798828,0.3,352.3555564785,0.550204753875732,352.913022031784,1,left,0.532727956771851,352.905761232376,604.482913484573,607.242913484573,1636677546.24971,1636677546.25149,1636677554.13599,1636677554.1477,1636677556.23677,1636677563.03931,1636677563.04107,1636677563.59677,1636677563.58951,1636677815.16667,1
92,4,1,4,19,8,2,c2_WhyHand,1,healthy?,21,H_627.jpg,1636677207.92375,1636677207.93549,335.565961351395,7.87894153594971,343.452235927582,345.553018798828,0.3,353.22254609108,1.0170464515686,354.240622987747,1,left,0.997035980224609,354.239592542648,604.482913484573,607.242913484573,1636677546.24971,1636677546.25149,1636677554.13599,1636677554.1477,1636677556.23677,1636677563.9063,1636677563.90808,1636677564.92438,1636677564.92334,1636677815.16667,1
92,4,1,4,20,1,4,c4_HowHand,1,pressing button?,82,H_126.jpg,1636677207.92375,1636677207.93549,354.32295583725,6.63895511627197,360.975436916351,363.076220264435,2.1007833480835,363.22627614975,0.616894960403442,363.847095003128,1,left,0.592159986495972,363.843171110153,604.482913484573,607.242913484573,1636677565.00671,1636677565.00854,1636677571.65919,1636677571.66445,1636677573.75997,1636677573.91003,1636677573.91493,1636677574.53085,1636677574.52692,1636677815.16667,1
92,4,1,4,20,2,4,c4_HowHand,1,pressing button?,86,H_332.jpg,1636677207.92375,1636677207.93549,354.32295583725,6.63895511627197,360.975436916351,363.076220264435,0.3,364.159958114624,0.583550453186035,364.74697684288,1,left,0.56439208984375,364.74350856781,604.482913484573,607.242913484573,1636677565.00671,1636677565.00854,1636677571.65919,1636677571.66445,1636677573.75997,1636677574.84371,1636677574.84752,1636677575.43073,1636677575.42726,1636677815.16667,1
92,4,1,4,20,3,4,c4_HowHand,2,pressing button?,81,H_261.jpg,1636677207.92375,1636677207.93549,354.32295583725,6.63895511627197,360.975436916351,363.076220264435,0.3,365.060293664932,1.01704621315002,366.079574813843,3,right,1.006422996521,366.077339878082,604.482913484573,607.242913484573,1636677565.00671,1636677565.00854,1636677571.65919,1636677571.66445,1636677573.75997,1636677575.74405,1636677575.74833,1636677576.76333,1636677576.76109,1636677815.16667,0
92,4,1,4,20,4,4,c4_HowHand,2,pressing button?,87,H_024.jpg,1636677207.92375,1636677207.93549,354.32295583725,6.63895511627197,360.975436916351,363.076220264435,0.3,366.394124498367,1.11708211898804,367.513337841034,3,right,1.09606599807739,367.511206617355,604.482913484573,607.242913484573,1636677565.00671,1636677565.00854,1636677571.65919,1636677571.66445,1636677573.75997,1636677577.07788,1636677577.08072,1636677578.19709,1636677578.19496,1636677815.16667,0
92,4,1,4,20,5,4,c4_HowHand,1,pressing button?,83,H_502.jpg,1636677207.92375,1636677207.93549,354.32295583725,6.63895511627197,360.975436916351,363.076220264435,0.3,367.827992191315,0.683588266372681,368.513735046387,1,left,0.666476964950562,368.511580457687,604.482913484573,607.242913484573,1636677565.00671,1636677565.00854,1636677571.65919,1636677571.66445,1636677573.75997,1636677578.51174,1636677578.51403,1636677579.19749,1636677579.19533,1636677815.16667,1
92,4,1,4,20,6,4,c4_HowHand,2,pressing button?,85,H_130.jpg,1636677207.92375,1636677207.93549,354.32295583725,6.63895511627197,360.975436916351,363.076220264435,0.3,368.828366031647,1.00037336349487,369.830255975723,3,right,0.978188991546631,369.828739395142,604.482913484573,607.242913484573,1636677565.00671,1636677565.00854,1636677571.65919,1636677571.66445,1636677573.75997,1636677579.51212,1636677579.51382,1636677580.51401,1636677580.51249,1636677815.16667,0
92,4,1,4,20,7,4,c4_HowHand,1,pressing button?,88,H_019.jpg,1636677207.92375,1636677207.93549,354.32295583725,6.63895511627197,360.975436916351,363.076220264435,0.3,370.145522823334,0.816971302032471,370.964149942398,1,left,0.801491022109985,370.962494125366,604.482913484573,607.242913484573,1636677565.00671,1636677565.00854,1636677571.65919,1636677571.66445,1636677573.75997,1636677580.82927,1636677580.83065,1636677581.6479,1636677581.64625,1636677815.16667,1
92,4,1,4,20,8,4,c4_HowHand,1,pressing button?,84,H_483.jpg,1636677207.92375,1636677207.93549,354.32295583725,6.63895511627197,360.975436916351,363.076220264435,0.3,371.279279699326,0.716933488845825,371.997196903229,1,left,0.70906400680542,371.996213188171,604.482913484573,607.242913484573,1636677565.00671,1636677565.00854,1636677571.65919,1636677571.66445,1636677573.75997,1636677581.96303,1636677581.96487,1636677582.68095,1636677582.67997,1636677815.16667,1
92,4,1,4,21,1,3,c3_HowFace,1,looking to side?,72,F_590.jpg,1636677207.92375,1636677207.93549,372.079576721191,6.77232027053833,378.865442266464,380.966225137711,2.10078287124634,381.116281499863,0.800298929214478,381.917629947662,1,left,0.780994892120361,381.916580429077,604.482913484573,607.242913484573,1636677582.76333,1636677582.7647,1636677589.54919,1636677589.55146,1636677591.64998,1636677591.80003,1636677591.80194,1636677592.60138,1636677592.60033,1636677815.16667,1
92,4,1,4,21,2,3,c3_HowFace,1,looking to side?,69,F_110.jpg,1636677207.92375,1636677207.93549,372.079576721191,6.77232027053833,378.865442266464,380.966225137711,0.3,382.233364334106,0.933681726455688,383.168216934204,1,left,0.915416955947876,383.167046060562,604.482913484573,607.242913484573,1636677582.76333,1636677582.7647,1636677589.54919,1636677589.55146,1636677591.64998,1636677592.91712,1636677592.91889,1636677593.85197,1636677593.8508,1636677815.16667,1
92,4,1,4,21,3,3,c3_HowFace,1,looking to side?,68,F_760.jpg,1636677207.92375,1636677207.93549,372.079576721191,6.77232027053833,378.865442266464,380.966225137711,0.3,383.48383020401,0.616897106170654,384.102107992172,1,left,0.601386070251465,384.100727310181,604.482913484573,607.242913484573,1636677582.76333,1636677582.7647,1636677589.54919,1636677589.55146,1636677591.64998,1636677594.16758,1636677594.16904,1636677594.78586,1636677594.78448,1636677815.16667,1
92,4,1,4,21,4,3,c3_HowFace,2,looking to side?,70,F_779.jpg,1636677207.92375,1636677207.93549,372.079576721191,6.77232027053833,378.865442266464,380.966225137711,0.3,384.417512407303,0.683588027954102,385.102556934357,1,left,0.665280818939209,385.101100435257,604.482913484573,607.242913484573,1636677582.76333,1636677582.7647,1636677589.54919,1636677589.55146,1636677591.64998,1636677595.10126,1636677595.10285,1636677595.78631,1636677595.78485,1636677815.16667,0
92,4,1,4,21,5,3,c3_HowFace,1,looking to side?,71,F_433.jpg,1636677207.92375,1636677207.93549,372.079576721191,6.77232027053833,378.865442266464,380.966225137711,0.3,385.417885532379,0.583550453186035,386.013679971695,1,left,0.573107957839966,386.001435985565,604.482913484573,607.242913484573,1636677582.76333,1636677582.7647,1636677589.54919,1636677589.55146,1636677591.64998,1636677596.10164,1636677596.10346,1636677596.69743,1636677596.68519,1636677815.16667,1
92,4,1,4,21,6,3,c3_HowFace,2,looking to side?,65,F_798.jpg,1636677207.92375,1636677207.93549,372.079576721191,6.77232027053833,378.865442266464,380.966225137711,0.3,386.318221321106,0.583551168441772,386.903259029388,1,left,0.560175895690918,386.901772489548,604.482913484573,607.242913484573,1636677582.76333,1636677582.7647,1636677589.54919,1636677589.55146,1636677591.64998,1636677597.00197,1636677597.0037,1636677597.58701,1636677597.58552,1636677815.16667,0
92,4,1,4,21,7,3,c3_HowFace,1,looking to side?,67,F_716.jpg,1636677207.92375,1636677207.93549,372.079576721191,6.77232027053833,378.865442266464,380.966225137711,0.3,387.218557348251,1.21712040901184,388.436791887283,1,left,1.19664406776428,388.435677757263,604.482913484573,607.242913484573,1636677582.76333,1636677582.7647,1636677589.54919,1636677589.55146,1636677591.64998,1636677597.90231,1636677597.90438,1636677599.12054,1636677599.11943,1636677815.16667,1
92,4,1,4,21,8,3,c3_HowFace,2,looking to side?,66,F_111.jpg,1636677207.92375,1636677207.93549,372.079576721191,6.77232027053833,378.865442266464,380.966225137711,0.3,388.752462377548,0.917008638381958,389.671149959564,3,right,0.899675846099854,389.66947101593,604.482913484573,607.242913484573,1636677582.76333,1636677582.7647,1636677589.54919,1636677589.55146,1636677591.64998,1636677599.43621,1636677599.43802,1636677600.3549,1636677600.35322,1636677815.16667,0
92,4,1,4,22,1,1,c1_WhyFace,1,argument?,42,F_403.jpg,1636677207.92375,1636677207.93549,389.752834787369,6.93936324119568,396.705428352356,398.806212177277,2.10078382492065,398.956266870499,0.650243520736694,399.613548984528,1,left,0.642632007598877,399.606510391235,604.482913484573,607.242913484573,1636677600.43659,1636677600.4383,1636677607.38918,1636677607.39821,1636677609.48996,1636677609.64002,1636677609.64171,1636677610.2973,1636677610.29026,1636677815.16667,1
92,4,1,4,22,2,1,c1_WhyFace,2,argument?,44,F_139.jpg,1636677207.92375,1636677207.93549,389.752834787369,6.93936324119568,396.705428352356,398.806212177277,0.3,399.92329501152,0.866990327835083,400.796413888931,3,right,0.853317022323608,400.790285339355,604.482913484573,607.242913484573,1636677600.43659,1636677600.4383,1636677607.38918,1636677607.39821,1636677609.48996,1636677610.60705,1636677610.60913,1636677611.48017,1636677611.47404,1636677815.16667,0
92,4,1,4,22,3,1,c1_WhyFace,1,argument?,47,F_743.jpg,1636677207.92375,1636677207.93549,389.752834787369,6.93936324119568,396.705428352356,398.806212177277,0.3,401.107070198059,1.41719532012939,402.530571928024,1,left,1.39829111099243,402.524265518188,604.482913484573,607.242913484573,1636677600.43659,1636677600.4383,1636677607.38918,1636677607.39821,1636677609.48996,1636677611.79082,1636677611.79237,1636677613.21432,1636677613.20802,1636677815.16667,1
92,4,1,4,22,4,1,c1_WhyFace,2,argument?,45,F_433.jpg,1636677207.92375,1636677207.93549,389.752834787369,6.93936324119568,396.705428352356,398.806212177277,0.3,402.841049900055,1.01704549789429,403.86304186821,1,left,0.998970985412598,403.858095397949,604.482913484573,607.242913484573,1636677600.43659,1636677600.4383,1636677607.38918,1636677607.39821,1636677609.48996,1636677613.5248,1636677613.52646,1636677614.54679,1636677614.54185,1636677815.16667,0
92,4,1,4,22,5,1,c1_WhyFace,1,argument?,43,F_716.jpg,1636677207.92375,1636677207.93549,389.752834787369,6.93936324119568,396.705428352356,398.806212177277,0.3,404.174879779816,0.700261354446411,404.88031291008,1,left,0.689805030822754,404.875141134262,604.482913484573,607.242913484573,1636677600.43659,1636677600.4383,1636677607.38918,1636677607.39821,1636677609.48996,1636677614.85863,1636677614.86037,1636677615.56406,1636677615.55889,1636677815.16667,1
92,4,1,4,22,6,1,c1_WhyFace,1,argument?,48,F_758.jpg,1636677207.92375,1636677207.93549,389.752834787369,6.93936324119568,396.705428352356,398.806212177277,0.3,405.191926231384,0.783625841140747,405.979979028702,1,left,0.769439935684204,405.975552072525,604.482913484573,607.242913484573,1636677600.43659,1636677600.4383,1636677607.38918,1636677607.39821,1636677609.48996,1636677615.87568,1636677615.87725,1636677616.66373,1636677616.6593,1636677815.16667,1
92,4,1,4,22,7,1,c1_WhyFace,2,argument?,46,F_844.jpg,1636677207.92375,1636677207.93549,389.752834787369,6.93936324119568,396.705428352356,398.806212177277,0.3,406.292336454391,0.7169349193573,407.010431041718,3,right,0.692409992218018,407.009271373749,604.482913484573,607.242913484573,1636677600.43659,1636677600.4383,1636677607.38918,1636677607.39821,1636677609.48996,1636677616.97609,1636677616.98052,1636677617.69418,1636677617.69302,1636677815.16667,0
92,4,1,4,22,8,1,c1_WhyFace,1,argument?,41,F_712.jpg,1636677207.92375,1636677207.93549,389.752834787369,6.93936324119568,396.705428352356,398.806212177277,0.3,407.326055517197,0.850316762924194,408.179617872238,1,left,0.83208179473877,408.176372280121,604.482913484573,607.242913484573,1636677600.43659,1636677600.4383,1636677607.38918,1636677607.39821,1636677609.48996,1636677618.00981,1636677618.01397,1636677618.86337,1636677618.86012,1636677815.16667,1
92,4,1,4,23,1,2,c2_WhyHand,1,self-protection?,94,H_189.jpg,1636677207.92375,1636677207.93549,408.259737005234,6.27215790748596,414.545414438248,416.64619802475,2.10078358650208,416.796253910065,1.05039143562317,417.847708930969,1,left,1.02981901168823,417.846645345688,604.482913484573,607.242913484573,1636677618.94349,1636677618.94739,1636677625.22917,1636677625.23086,1636677627.32995,1636677627.48001,1636677627.48189,1636677628.53146,1636677628.5304,1636677815.16667,1
92,4,1,4,23,2,2,c2_WhyHand,1,self-protection?,93,H_038.jpg,1636677207.92375,1636677207.93549,408.259737005234,6.27215790748596,414.545414438248,416.64619802475,0.3,418.163430204391,0.550205230712891,418.714694013596,1,left,0.536336898803711,418.713635435104,604.482913484573,607.242913484573,1636677618.94349,1636677618.94739,1636677625.22917,1636677625.23086,1636677627.32995,1636677628.84718,1636677628.84875,1636677629.39845,1636677629.39739,1636677815.16667,1
92,4,1,4,23,3,2,c2_WhyHand,1,self-protection?,91,H_581.jpg,1636677207.92375,1636677207.93549,408.259737005234,6.27215790748596,414.545414438248,416.64619802475,0.3,419.030421009064,0.600223541259766,419.632473936081,1,left,0.577353954315186,419.630644550323,604.482913484573,607.242913484573,1636677618.94349,1636677618.94739,1636677625.22917,1636677625.23086,1636677627.32995,1636677629.71417,1636677629.71596,1636677630.31623,1636677630.3144,1636677815.16667,1
92,4,1,4,23,4,2,c2_WhyHand,2,self-protection?,90,H_006.jpg,1636677207.92375,1636677207.93549,408.259737005234,6.27215790748596,414.545414438248,416.64619802475,0.3,419.947429170609,0.566877841949463,420.515223970413,1,left,0.557247877120972,420.514307012558,604.482913484573,607.242913484573,1636677618.94349,1636677618.94739,1636677625.22917,1636677625.23086,1636677627.32995,1636677630.63118,1636677630.63295,1636677631.19898,1636677631.19806,1636677815.16667,0
92,4,1,4,23,5,2,c2_WhyHand,1,self-protection?,96,H_027.jpg,1636677207.92375,1636677207.93549,408.259737005234,6.27215790748596,414.545414438248,416.64619802475,0.3,420.83109210968,0.650242567062378,421.482947816849,1,left,0.632289886474609,421.481334676743,604.482913484573,607.242913484573,1636677618.94349,1636677618.94739,1636677625.22917,1636677625.23086,1636677627.32995,1636677631.51484,1636677631.51636,1636677632.1667,1636677632.16509,1636677815.16667,1
92,4,1,4,23,6,2,c2_WhyHand,2,self-protection?,95,H_332.jpg,1636677207.92375,1636677207.93549,408.259737005234,6.27215790748596,414.545414438248,416.64619802475,0.3,421.798119773865,0.683587074279785,422.483160963058,1,left,0.669722080230713,422.481706848145,604.482913484573,607.242913484573,1636677618.94349,1636677618.94739,1636677625.22917,1636677625.23086,1636677627.32995,1636677632.48187,1636677632.4839,1636677633.16691,1636677633.16546,1636677815.16667,0
92,4,1,4,23,7,2,c2_WhyHand,1,self-protection?,89,H_443.jpg,1636677207.92375,1636677207.93549,408.259737005234,6.27215790748596,414.545414438248,416.64619802475,0.3,422.798492422104,0.967026948928833,423.766619911194,1,left,0.953070878982544,423.765519371033,604.482913484573,607.242913484573,1636677618.94349,1636677618.94739,1636677625.22917,1636677625.23086,1636677627.32995,1636677633.48224,1636677633.4839,1636677634.45037,1636677634.44927,1636677815.16667,1
92,4,1,4,23,8,2,c2_WhyHand,2,self-protection?,92,H_532.jpg,1636677207.92375,1636677207.93549,408.259737005234,6.27215790748596,414.545414438248,416.64619802475,0.3,424.082304468155,0.816971778869629,424.901005020142,3,right,0.795808792114258,424.899276247025,604.482913484573,607.242913484573,1636677618.94349,1636677618.94739,1636677625.22917,1636677625.23086,1636677627.32995,1636677634.76606,1636677634.76776,1636677635.58476,1636677635.58303,1636677815.16667,0
92,4,1,4,24,1,4,c4_HowHand,1,both hands?,124,H_581.jpg,1636677207.92375,1636677207.93549,424.982639303207,7.0662636756897,432.068615665436,434.152726402283,2.08411073684692,434.302782049179,0.683588266372681,434.988167037964,1,left,0.656661033630371,434.986370315552,604.482913484573,607.242913484573,1636677635.66639,1636677635.66803,1636677642.75237,1636677642.75387,1636677644.83648,1636677644.98653,1636677644.99749,1636677645.67192,1636677645.67012,1636677815.16667,1
92,4,1,4,24,2,4,c4_HowHand,1,both hands?,127,H_349.jpg,1636677207.92375,1636677207.93549,424.982639303207,7.0662636756897,432.068615665436,434.152726402283,0.3,435.303155174255,0.600223541259766,435.904423942566,1,left,0.577056884765625,435.903378715515,604.482913484573,607.242913484573,1636677635.66639,1636677635.66803,1636677642.75237,1636677642.75387,1636677644.83648,1636677645.98691,1636677645.98868,1636677646.58818,1636677646.58713,1636677815.16667,1
92,4,1,4,24,3,4,c4_HowHand,2,both hands?,126,H_159.jpg,1636677207.92375,1636677207.93549,424.982639303207,7.0662636756897,432.068615665436,434.152726402283,0.3,436.220164527893,0.683588266372681,436.913614025116,3,right,0.676522970199585,436.903752794266,604.482913484573,607.242913484573,1636677635.66639,1636677635.66803,1636677642.75237,1636677642.75387,1636677644.83648,1636677646.90392,1636677646.90557,1636677647.59737,1636677647.5875,1636677815.16667,0
92,4,1,4,24,4,4,c4_HowHand,1,both hands?,122,H_111.jpg,1636677207.92375,1636677207.93549,424.982639303207,7.0662636756897,432.068615665436,434.152726402283,0.3,437.220536937714,0.68358850479126,437.913039913177,1,left,0.674826860427856,437.904125442505,604.482913484573,607.242913484573,1636677635.66639,1636677635.66803,1636677642.75237,1636677642.75387,1636677644.83648,1636677647.90429,1636677647.90608,1636677648.59679,1636677648.58788,1636677815.16667,1
92,4,1,4,24,5,4,c4_HowHand,2,both hands?,125,H_627.jpg,1636677207.92375,1636677207.93549,424.982639303207,7.0662636756897,432.068615665436,434.152726402283,0.3,438.22091006279,1.35050439834595,439.57317899704,3,right,1.33369493484497,439.571414461136,604.482913484573,607.242913484573,1636677635.66639,1636677635.66803,1636677642.75237,1636677642.75387,1636677644.83648,1636677648.90466,1636677648.90637,1636677650.25693,1636677650.25517,1636677815.16667,0
92,4,1,4,24,6,4,c4_HowHand,1,both hands?,123,H_167.jpg,1636677207.92375,1636677207.93549,424.982639303207,7.0662636756897,432.068615665436,434.152726402283,0.3,439.888198604584,1.15042877197266,441.039739837646,1,left,1.1282000541687,441.038627376556,604.482913484573,607.242913484573,1636677635.66639,1636677635.66803,1636677642.75237,1636677642.75387,1636677644.83648,1636677650.57195,1636677650.57342,1636677651.72349,1636677651.72238,1636677815.16667,1
92,4,1,4,24,7,4,c4_HowHand,1,both hands?,128,H_027.jpg,1636677207.92375,1636677207.93549,424.982639303207,7.0662636756897,432.068615665436,434.152726402283,0.3,441.355412473679,1.03371906280518,442.397027959824,1,left,1.02167582511902,442.389131536484,604.482913484573,607.242913484573,1636677635.66639,1636677635.66803,1636677642.75237,1636677642.75387,1636677644.83648,1636677652.03916,1636677652.04082,1636677653.08078,1636677653.07288,1636677815.16667,1
92,4,1,4,24,8,4,c4_HowHand,2,both hands?,121,H_091.jpg,1636677207.92375,1636677207.93549,424.982639303207,7.0662636756897,432.068615665436,434.152726402283,0.3,442.705916633606,1.30048441886902,444.013741960526,3,right,1.287358045578,444.006401052475,604.482913484573,607.242913484573,1636677635.66639,1636677635.66803,1636677642.75237,1636677642.75387,1636677644.83648,1636677653.38967,1636677653.39179,1636677654.69749,1636677654.69015,1636677815.16667,0
92,4,1,4,25,1,2,c2_WhyHand,1,competing?,15,H_170.jpg,1636677207.92375,1636677207.93549,444.089765539169,5.74923849105835,449.858584156036,451.942694416046,2.08411026000977,452.092750301361,0.750279903411865,452.846791973114,1,left,0.736446142196655,452.843030204773,604.482913484573,607.242913484573,1636677654.77352,1636677654.78004,1636677660.54234,1636677660.54415,1636677662.62645,1636677662.7765,1636677662.78078,1636677663.53054,1636677663.52678,1636677815.16667,1
92,4,1,4,25,2,2,c2_WhyHand,1,competing?,14,H_132.jpg,1636677207.92375,1636677207.93549,444.089765539169,5.74923849105835,449.858584156036,451.942694416046,0.3,453.159813871384,0.550206422805786,453.711567869186,1,left,0.526128053665161,453.710020294189,604.482913484573,607.242913484573,1636677654.77352,1636677654.78004,1636677660.54234,1636677660.54415,1636677662.62645,1636677663.84357,1636677663.84695,1636677664.39532,1636677664.39377,1636677815.16667,1
92,4,1,4,25,3,2,c2_WhyHand,2,competing?,10,H_126.jpg,1636677207.92375,1636677207.93549,444.089765539169,5.74923849105835,449.858584156036,451.942694416046,0.3,454.026805391312,0.90033483505249,454.930444946289,3,right,0.879851818084717,454.927140226364,604.482913484573,607.242913484573,1636677654.77352,1636677654.78004,1636677660.54234,1636677660.54415,1636677662.62645,1636677664.71056,1636677664.71394,1636677665.6142,1636677665.61089,1636677815.16667,0
92,4,1,4,25,4,2,c2_WhyHand,1,competing?,13,H_003.jpg,1636677207.92375,1636677207.93549,444.089765539169,5.74923849105835,449.858584156036,451.942694416046,0.3,455.243925561905,0.75027871131897,455.996335020065,1,left,0.729470014572144,455.994204273224,604.482913484573,607.242913484573,1636677654.77352,1636677654.78004,1636677660.54234,1636677660.54415,1636677662.62645,1636677665.92768,1636677665.93083,1636677666.68009,1636677666.67796,1636677815.16667,1
92,4,1,4,25,5,2,c2_WhyHand,2,competing?,11,H_502.jpg,1636677207.92375,1636677207.93549,444.089765539169,5.74923849105835,449.858584156036,451.942694416046,0.3,456.310989370346,1.0670645236969,457.380024900436,3,right,1.046795129776,457.378053894043,604.482913484573,607.242913484573,1636677654.77352,1636677654.78004,1636677660.54234,1636677660.54415,1636677662.62645,1636677666.99474,1636677666.99707,1636677668.06378,1636677668.06181,1636677815.16667,0
92,4,1,4,25,6,2,c2_WhyHand,1,competing?,16,H_136.jpg,1636677207.92375,1636677207.93549,444.089765539169,5.74923849105835,449.858584156036,451.942694416046,0.3,457.694838991165,1.05039191246033,458.746933927536,1,left,1.03754186630249,458.745230903625,604.482913484573,607.242913484573,1636677654.77352,1636677654.78004,1636677660.54234,1636677660.54415,1636677662.62645,1636677668.37859,1636677668.38035,1636677669.43069,1636677669.42898,1636677815.16667,1
92,4,1,4,25,7,2,c2_WhyHand,2,competing?,12,H_483.jpg,1636677207.92375,1636677207.93549,444.089765539169,5.74923849105835,449.858584156036,451.942694416046,0.3,459.062015047073,1.71730732917786,NaN,0,NA,0,460.779322376251,604.482913484573,607.242913484573,1636677654.77352,1636677654.78004,1636677660.54234,1636677660.54415,1636677662.62645,1636677669.74577,1636677669.74768,NaN,1636677671.46307,1636677815.16667,0
92,4,1,4,25,8,2,c2_WhyHand,1,competing?,9,H_261.jpg,1636677207.92375,1636677207.93549,444.089765539169,5.74923849105835,449.858584156036,451.942694416046,0.3,461.096107711792,1.71730589866638,NaN,0,NA,0,462.813413610458,604.482913484573,607.242913484573,1636677654.77352,1636677654.78004,1636677660.54234,1636677660.54415,1636677662.62645,1636677671.77986,1636677671.78187,NaN,1636677673.49717,1636677815.16667,0
92,4,1,4,26,1,4,c4_HowHand,1,lifting?,49,H_362.jpg,1636677207.92375,1636677207.93549,463.163545598984,4.56567144393921,467.748588552475,469.832699766159,2.08411121368408,469.982755174637,0.733607053756714,470.717699995041,1,left,0.699005126953125,470.716362228394,604.482913484573,607.242913484573,1636677673.8473,1636677673.86438,1636677678.43234,1636677678.43437,1636677680.51645,1636677680.66651,1636677680.68102,1636677681.40145,1636677681.40011,1636677815.16667,1
92,4,1,4,26,2,4,c4_HowHand,2,lifting?,55,H_012.jpg,1636677207.92375,1636677207.93549,463.163545598984,4.56567144393921,467.748588552475,469.832699766159,0.3,471.033147563934,0.766951560974121,471.801138868332,3,right,0.751130104064941,471.800099124908,604.482913484573,607.242913484573,1636677673.8473,1636677673.86438,1636677678.43234,1636677678.43437,1636677680.51645,1636677681.7169,1636677681.7188,1636677682.48489,1636677682.48385,1636677815.16667,0
92,4,1,4,26,3,4,c4_HowHand,1,lifting?,56,H_136.jpg,1636677207.92375,1636677207.93549,463.163545598984,4.56567144393921,467.748588552475,469.832699766159,0.3,472.116883745193,0.650243520736694,472.768832912445,1,left,0.629344940185547,472.76712726593,604.482913484573,607.242913484573,1636677673.8473,1636677673.86438,1636677678.43234,1636677678.43437,1636677680.51645,1636677682.80064,1636677682.80236,1636677683.45258,1636677683.45088,1636677815.16667,1
92,4,1,4,26,4,4,c4_HowHand,1,lifting?,52,H_189.jpg,1636677207.92375,1636677207.93549,463.163545598984,4.56567144393921,467.748588552475,469.832699766159,0.3,473.083910932541,0.933681726455688,474.019134988785,1,left,0.911735057830811,474.017592658997,604.482913484573,607.242913484573,1636677673.8473,1636677673.86438,1636677678.43234,1636677678.43437,1636677680.51645,1636677683.76766,1636677683.76958,1636677684.70289,1636677684.70134,1636677815.16667,1
92,4,1,4,26,5,4,c4_HowHand,1,lifting?,54,H_170.jpg,1636677207.92375,1636677207.93549,463.163545598984,4.56567144393921,467.748588552475,469.832699766159,0.3,474.3343775177,1.00037336349487,475.335805883408,1,left,0.97936487197876,475.334750881195,604.482913484573,607.242913484573,1636677673.8473,1636677673.86438,1636677678.43234,1636677678.43437,1636677680.51645,1636677685.01813,1636677685.02004,1636677686.01956,1636677686.0185,1636677815.16667,1
92,4,1,4,26,6,4,c4_HowHand,2,lifting?,53,H_077.jpg,1636677207.92375,1636677207.93549,463.163545598984,4.56567144393921,467.748588552475,469.832699766159,0.3,475.651536216736,1.05039072036743,476.703593959808,1,left,1.02858710289001,476.701926937103,604.482913484573,607.242913484573,1636677673.8473,1636677673.86438,1636677678.43234,1636677678.43437,1636677680.51645,1636677686.33529,1636677686.33711,1636677687.38735,1636677687.38568,1636677815.16667,0
92,4,1,4,26,7,4,c4_HowHand,1,lifting?,50,H_443.jpg,1636677207.92375,1636677207.93549,463.163545598984,4.56567144393921,467.748588552475,469.832699766159,0.3,477.018712511063,1.7173068523407,NaN,0,NA,0,478.736019363403,604.482913484573,607.242913484573,1636677673.8473,1636677673.86438,1636677678.43234,1636677678.43437,1636677680.51645,1636677687.70246,1636677687.70439,NaN,1636677689.41977,1636677815.16667,0
92,4,1,4,26,8,4,c4_HowHand,2,lifting?,51,H_038.jpg,1636677207.92375,1636677207.93549,463.163545598984,4.56567144393921,467.748588552475,469.832699766159,0.3,479.052803983688,0.967026948928833,480.029958953857,3,right,0.953871011734009,480.019830932617,604.482913484573,607.242913484573,1636677673.8473,1636677673.86438,1636677678.43234,1636677678.43437,1636677680.51645,1636677689.73656,1636677689.73813,1636677690.71371,1636677690.70358,1636677815.16667,0
92,4,1,4,27,1,3,c3_HowFace,1,open mouth?,73,F_403.jpg,1636677207.92375,1636677207.93549,480.119868984222,5.67916202545166,485.805322399139,487.906105508804,2.10078310966492,488.056162347794,0.416820764541626,488.479661931992,1,left,0.400776147842407,488.472983112335,604.482913484573,607.242913484573,1636677690.80362,1636677690.80539,1636677696.48907,1636677696.4976,1636677698.58986,1636677698.73991,1636677698.74785,1636677699.16341,1636677699.15674,1636677815.16667,1
92,4,1,4,27,2,3,c3_HowFace,1,open mouth?,75,F_086.jpg,1636677207.92375,1636677207.93549,480.119868984222,5.67916202545166,485.805322399139,487.906105508804,0.3,488.789768447876,0.583551168441772,489.375112047195,1,left,0.56206202507019,489.373319616318,604.482913484573,607.242913484573,1636677690.80362,1636677690.80539,1636677696.48907,1636677696.4976,1636677698.58986,1636677699.47352,1636677699.47553,1636677700.05886,1636677700.05707,1636677815.16667,1
92,4,1,4,27,3,3,c3_HowFace,1,open mouth?,80,F_844.jpg,1636677207.92375,1636677207.93549,480.119868984222,5.67916202545166,485.805322399139,487.906105508804,0.3,489.690103998184,0.516860246658325,490.208667030334,1,left,0.494914054870605,490.206964244843,604.482913484573,607.242913484573,1636677690.80362,1636677690.80539,1636677696.48907,1636677696.4976,1636677698.58986,1636677700.37386,1636677700.37597,1636677700.89242,1636677700.89072,1636677815.16667,1
92,4,1,4,27,4,3,c3_HowFace,2,open mouth?,76,F_544.jpg,1636677207.92375,1636677207.93549,480.119868984222,5.67916202545166,485.805322399139,487.906105508804,0.3,490.523749103546,0.650242567062378,491.175119867325,3,right,0.628315925598145,491.173991670609,604.482913484573,607.242913484573,1636677690.80362,1636677690.80539,1636677696.48907,1636677696.4976,1636677698.58986,1636677701.2075,1636677701.20909,1636677701.85887,1636677701.85774,1636677815.16667,0
92,4,1,4,27,5,3,c3_HowFace,1,open mouth?,74,F_776.jpg,1636677207.92375,1636677207.93549,480.119868984222,5.67916202545166,485.805322399139,487.906105508804,0.3,491.490775337219,0.516860246658325,492.00912689209,1,left,0.495090961456299,492.007635583878,604.482913484573,607.242913484573,1636677690.80362,1636677690.80539,1636677696.48907,1636677696.4976,1636677698.58986,1636677702.17453,1636677702.1764,1636677702.69288,1636677702.69139,1636677815.16667,1
92,4,1,4,27,6,3,c3_HowFace,2,open mouth?,79,F_648.jpg,1636677207.92375,1636677207.93549,480.119868984222,5.67916202545166,485.805322399139,487.906105508804,0.3,492.324420204163,0.700260639190674,493.029618968964,3,right,0.689567804336548,493.024680843353,604.482913484573,607.242913484573,1636677690.80362,1636677690.80539,1636677696.48907,1636677696.4976,1636677698.58986,1636677703.00817,1636677703.00975,1636677703.71337,1636677703.70843,1636677815.16667,0
92,4,1,4,27,7,3,c3_HowFace,1,open mouth?,78,F_692.jpg,1636677207.92375,1636677207.93549,480.119868984222,5.67916202545166,485.805322399139,487.906105508804,0.3,493.341466417313,0.516858577728271,493.863049020767,1,left,0.500509023666382,493.858324995041,604.482913484573,607.242913484573,1636677690.80362,1636677690.80539,1636677696.48907,1636677696.4976,1636677698.58986,1636677704.02522,1636677704.0271,1636677704.5468,1636677704.54208,1636677815.16667,1
92,4,1,4,27,8,3,c3_HowFace,2,open mouth?,77,F_584.jpg,1636677207.92375,1636677207.93549,480.119868984222,5.67916202545166,485.805322399139,487.906105508804,0.3,494.175109615326,0.900336503982544,495.080214014053,3,right,0.891570091247559,495.075446119308,604.482913484573,607.242913484573,1636677690.80362,1636677690.80539,1636677696.48907,1636677696.4976,1636677698.58986,1636677704.85886,1636677704.86041,1636677705.76397,1636677705.7592,1636677815.16667,0
