onset	duration	trial_type	pmod_accuracy
11.75372838974	0.7185093879699711	cue_valid	1
15.2883791923523	1.08898491859436	cue_valid	1
37.3632791042328	0.695417833328247	cue_valid	1
44.0991237163544	0.678468656539917	cue_valid	1
51.1684272289276	0.6851992130279541	cue_valid	1
69.675329208374	0.653009366989136	cue_valid	1
73.2433261871338	0.7001788139343259	cue_valid	1
77.3948736190796	0.6379744529724121	cue_valid	1
82.1633191108704	0.612230491638184	cue_valid	1
89.632771730423	0.6194502830505371	cue_valid	1
123.795511007309	0.720121812820435	cue_valid	1
131.264963388443	0.7020501613616941	cue_valid	1
134.53284907341	0.701405715942383	cue_valid	1
138.000809192657	0.666414451599121	cue_valid	1
142.569178819656	0.583599996566772	cue_valid	1
146.220541000366	0.71382040977478	cue_valid	1
161.526248931885	0.605951261520386	cue_valid	1
167.661870002747	0.7253758430480961	cue_valid	1
183.967950582504	0.631442975997925	cue_valid	1
187.035762310028	0.741435480117798	cue_valid	1
194.08839225769	0.7241980552673339	cue_valid	1
197.556352615356	0.63625545501709	cue_valid	1
204.192159891129	0.635565710067749	cue_valid	1
225.250012397766	0.7782902240753171	cue_valid	1
239.522002696991	0.726665449142456	cue_valid	1
243.190035581589	0.665835809707642	cue_valid	1
275.30201125145	0.692466449737549	cue_valid	1
282.671425819397	0.575825881958008	cue_valid	1
285.939311981201	0.698927593231201	cue_valid	1
306.647033929825	0.6184889793396	cue_valid	1
313.816373348236	0.645613145828247	cue_valid	1
317.684484243393	0.7607771873474121	cue_valid	1
325.153936624527	0.636697721481323	cue_valid	1
328.821971416473	0.720228624343872	cue_valid	1
333.190265893936	0.639473628997803	cue_valid	1
336.658226251602	0.621996355056763	cue_valid	1
345.028014421463	0.8003098487853999	cue_valid	1
348.095824956894	0.661090087890625	cue_valid	1
380.30783700943	0.659904670715332	cue_valid	1
387.777289867401	0.6517402648925781	cue_valid	1
390.845099687576	0.8084744930267329	cue_valid	1
397.914403438568	0.7262172222137451	cue_valid	1
409.452039480209	0.6754319190979	cue_valid	1
415.520968675613	0.938597869873047	cue_valid	1
419.189004182816	0.7016782283782961	cue_valid	1
422.456889152527	0.616319370269775	cue_valid	1
437.095681428909	0.66110725402832	cue_valid	1
449.433616399765	0.657021236419678	cue_valid	1
452.501427412033	0.791248989105225	cue_valid	1
455.669274091721	0.8496031284332279	cue_valid	1
466.089826822281	0.6931995868682861	cue_valid	1
491.182517528534	0.6999692440032961	cue_valid	1
497.151410579681	0.639562559127808	cue_valid	1
507.788710594177	0.693645668029785	cue_valid	1
512.557156324387	0.6210343360900881	cue_valid	1
522.660923719406	0.6576780796051029	cue_valid	1
542.434964895248	0.8115303039550781	cue_valid	1
578.848543405533	0.6966597557067871	cue_valid	1
592.620347261429	0.678916168212891	cue_valid	1
595.588119983673	0.8922163963317871	cue_valid	1
18.7563397884369	0.7611681938171391	cue_invalid	1
26.2257914543152	0.852457475662231	cue_invalid	1
29.8938271999359	0.7773699283599851	cue_invalid	1
40.8312382698059	0.7603430271148681	cue_invalid	1
58.6378800868988	0.683049869537354	cue_invalid	1
62.2058753967285	0.819457721710205	cue_invalid	1
96.9855136871338	0.680201244354248	cue_invalid	1
100.253399133682	0.6601080417633061	cue_invalid	1
103.321209192276	0.7112307071685791	cue_invalid	1
106.889207363129	0.707222890853882	cue_invalid	1
114.358659029007	0.7491116046905519	cue_invalid	1
120.627662658691	0.823160123825073	cue_invalid	1
153.289843797684	0.7637745857238769	cue_invalid	1
158.058288812637	0.643668127059937	cue_invalid	1
164.594058990479	0.6707164764404301	cue_invalid	1
170.729679822922	0.6714517593383791	cue_invalid	1
176.498498916626	0.768989038467407	cue_invalid	1
200.724199533463	0.7245251655578611	cue_invalid	1
211.661612033844	0.7195779800415041	cue_invalid	1
214.812786579132	0.7514881610870361	cue_invalid	1
217.780560970306	0.672227573394775	cue_invalid	1
229.018084764481	0.807450723648071	cue_invalid	1
232.786155939102	0.7050718784332279	cue_invalid	1
236.454191207886	0.757731151580811	cue_invalid	1
247.258220434189	0.646086883544922	cue_invalid	1
250.726179838181	0.7426123142242431	cue_invalid	1
258.195632219315	0.700929832458496	cue_invalid	1
264.564673423767	0.655750226974487	cue_invalid	1
271.633977413177	0.7369882583618159	cue_invalid	1
294.809285879135	0.686901521682739	cue_invalid	1
299.377655982971	0.664526653289795	cue_invalid	1
353.064343690872	0.7174572467803959	cue_invalid	1
358.93319940567	0.722675275802612	cue_invalid	1
366.402651786804	0.689084720611572	cue_invalid	1
369.470461606979	0.703105878829956	cue_invalid	1
372.838384866714	0.695688199996948	cue_invalid	1
401.982586860657	0.74377269744873	cue_invalid	1
429.626229047775	0.8211800575256349	cue_invalid	1
444.565133810043	0.798245143890381	cue_invalid	1
463.022016048431	0.7424540042877199	cue_invalid	1
469.057600975037	0.688860130310059	cue_invalid	1
472.909036636353	0.7041582584381101	cue_invalid	1
475.976848363876	0.7475072860717771	cue_invalid	1
483.146187782288	0.750946712493896	cue_invalid	1
487.714558362961	0.7527093410491941	cue_invalid	1
500.319259166718	0.7393979549407961	cue_invalid	1
516.025116205215	0.7674188137054441	cue_invalid	1
519.293000459671	0.7432972908020019	cue_invalid	1
526.428995609283	0.794075918197632	cue_invalid	1
535.499044656754	0.920185041427612	cue_invalid	1
538.96700501442	0.7153508186340329	cue_invalid	1
549.804379701614	0.724819135665894	cue_invalid	1
553.272339820862	0.7283770561218259	cue_invalid	1
558.140822172165	0.693498086929321	cue_invalid	1
567.210870981216	0.672230434417725	cue_invalid	1
571.379091501236	0.699200105667114	cue_invalid	1
582.216467380524	0.6718325138092041	cue_invalid	1
585.384315490723	0.633227062225342	cue_invalid	1
589.152386903763	0.724915456771851	cue_invalid	1
598.956041812897	0.711504173278809	cue_invalid	1
