src_subject_id,session_id,run_id,param_counterbalance_ver,param_block_num,param_trial_num,param_cond_type_num,param_cond_type_string,param_normative_response,param_ques_type_string,param_image_num,param_image_filename,param_trigger_onset,param_start_biopac,event01_fixation,event01_fixation_dur,event01_blockquestion_onset,event01_block_isi_blacksreen,event01_blockquestion_dur,event02_image_onset,event02_image_dur,event03_response_onset,event03_response_key,event03_response_keyname,event03_RT,event04_shortquestion_onset,param_end_instruct_onset,param_experiment_duration,RAW_e1_fixation,RAW_e1_fixation_biopac,RAW_e1_blockquestion_onset,RAW_e1_blockquestion_onset_biopac,RAW_e1_block_isi_blacksreen,RAW_e2_image_onset,RAW_e2_image_onset_biopac,RAW_e3_response_onset,RAW_e4_shortquestion_onset,RAW_param_end_instruct_onset,accuracy
127,4,2,3,1,1,4,c4_HowHand,1,reaching?,107,H_007.jpg,1654561436.10542,1654561436.1073,0.0164189243316648,0.0295929908752441,0.0497651004791257,2.11720274925232,2.06743764877319,2.26725863456726,0.750280141830444,3.01909684181213,1,left,0.722275972366333,3.0175387763977,604.475168457031,607.235168457031,1654561438.88183,1654561438.88686,1654561438.91518,1654561438.93001,1654561440.98262,1654561441.13267,1654561441.13477,1654561441.88451,1654561441.88295,1654562043.34058,1
127,4,2,3,1,2,4,c4_HowHand,2,reaching?,108,H_532.jpg,1654561436.10542,1654561436.1073,0.0164189243316648,0.0295929908752441,0.0497651004791257,2.11720274925232,0.3,3.33432244300842,0.5668785572052,3.91348480224609,1,left,0.555591106414795,3.90120100021362,604.475168457031,607.235168457031,1654561438.88183,1654561438.88686,1654561438.91518,1654561438.93001,1654561440.98262,1654561442.19974,1654561442.20165,1654561442.7789,1654561442.76662,1654562043.34058,0
127,4,2,3,1,3,4,c4_HowHand,1,reaching?,109,H_474.jpg,1654561436.10542,1654561436.1073,0.0164189243316648,0.0295929908752441,0.0497651004791257,2.11720274925232,0.3,4.21798562049866,0.700262069702148,4.93116377830505,1,left,0.691220045089722,4.91824769020081,604.475168457031,607.235168457031,1654561438.88183,1654561438.88686,1654561438.91518,1654561438.93001,1654561440.98262,1654561443.0834,1654561443.08516,1654561443.79658,1654561443.78366,1654562043.34058,1
127,4,2,3,1,4,4,c4_HowHand,2,reaching?,105,H_438.jpg,1654561436.10542,1654561436.1073,0.0164189243316648,0.0295929908752441,0.0497651004791257,2.11720274925232,0.3,5.23503302574158,0.683586359024048,5.93097781181335,1,left,0.675765991210938,5.91861938476563,604.475168457031,607.235168457031,1654561438.88183,1654561438.88686,1654561438.91518,1654561438.93001,1654561440.98262,1654561444.10045,1654561444.10218,1654561444.79639,1654561444.78403,1654562043.34058,0
127,4,2,3,1,5,4,c4_HowHand,1,reaching?,110,H_364.jpg,1654561436.10542,1654561436.1073,0.0164189243316648,0.0295929908752441,0.0497651004791257,2.11720274925232,0.3,6.23540591239929,0.866989135742188,7.10471891403198,1,left,0.847394943237305,7.10239504814148,604.475168457031,607.235168457031,1654561438.88183,1654561438.88686,1654561438.91518,1654561438.93001,1654561440.98262,1654561445.10082,1654561445.10377,1654561445.97013,1654561445.96781,1654562043.34058,1
127,4,2,3,1,6,4,c4_HowHand,1,reaching?,106,H_006.jpg,1654561436.10542,1654561436.1073,0.0164189243316648,0.0295929908752441,0.0497651004791257,2.11720274925232,0.3,7.41917966842651,0.666916131973267,8.08794783592224,1,left,0.646308183670044,8.08609580039978,604.475168457031,607.235168457031,1654561438.88183,1654561438.88686,1654561438.91518,1654561438.93001,1654561440.98262,1654561446.28459,1654561446.28554,1654561446.95336,1654561446.95151,1654562043.34058,1
127,4,2,3,1,7,4,c4_HowHand,1,reaching?,111,H_003.jpg,1654561436.10542,1654561436.1073,0.0164189243316648,0.0295929908752441,0.0497651004791257,2.11720274925232,0.3,8.40288042068481,0.716933250427246,9.13074277877808,1,left,0.710522890090942,9.11981367111206,604.475168457031,607.235168457031,1654561438.88183,1654561438.88686,1654561438.91518,1654561438.93001,1654561440.98262,1654561447.2683,1654561447.26975,1654561447.99616,1654561447.98523,1654562043.34058,1
127,4,2,3,1,8,4,c4_HowHand,2,reaching?,112,H_132.jpg,1654561436.10542,1654561436.1073,0.0164189243316648,0.0295929908752441,0.0497651004791257,2.11720274925232,0.3,9.43659900665283,0.866989135742188,10.304680814743,3,right,0.847736120223999,10.303588142395,604.475168457031,607.235168457031,1654561438.88183,1654561438.88686,1654561438.91518,1654561438.93001,1654561440.98262,1654561448.30201,1654561448.30359,1654561449.1701,1654561449.169,1654562043.34058,0
127,4,2,3,2,1,2,c2_WhyHand,1,healthy?,21,H_627.jpg,1654561436.10542,1654561436.1073,10.4036266708374,7.12746024131775,17.5396206283569,19.640404214859,2.10078358650208,19.7904601001739,0.850317716598511,20.6478710079193,1,left,0.833096981048584,20.6407778167725,604.475168457031,607.235168457031,1654561449.26904,1654561449.2794,1654561456.40504,1654561456.41308,1654561458.50582,1654561458.65588,1654561458.66268,1654561459.51329,1654561459.50619,1654562043.34058,1
127,4,2,3,2,2,2,c2_WhyHand,1,healthy?,18,H_438.jpg,1654561436.10542,1654561436.1073,10.4036266708374,7.12746024131775,17.5396206283569,19.640404214859,0.3,20.9575612449646,1.25046753883362,22.2138199710846,1,left,1.23618483543396,22.2080287837982,604.475168457031,607.235168457031,1654561449.26904,1654561449.2794,1654561456.40504,1654561456.41308,1654561458.50582,1654561459.82298,1654561459.82481,1654561461.07924,1654561461.07344,1654562043.34058,1
127,4,2,3,2,3,2,c2_WhyHand,1,healthy?,23,H_364.jpg,1654561436.10542,1654561436.1073,10.4036266708374,7.12746024131775,17.5396206283569,19.640404214859,0.3,22.5248136425018,0.750279426574707,23.2765238189697,1,left,0.728610992431641,23.2750930690765,604.475168457031,607.235168457031,1654561449.26904,1654561449.2794,1654561456.40504,1654561456.41308,1654561458.50582,1654561461.39023,1654561461.39181,1654561462.14194,1654561462.14051,1654562043.34058,1
127,4,2,3,2,4,2,c2_WhyHand,2,healthy?,22,H_130.jpg,1654561436.10542,1654561436.1073,10.4036266708374,7.12746024131775,17.5396206283569,19.640404214859,0.3,23.5918776893616,0.800297975540161,24.3932528400421,3,right,0.779108047485352,24.3921756649017,604.475168457031,607.235168457031,1654561449.26904,1654561449.2794,1654561456.40504,1654561456.41308,1654561458.50582,1654561462.45729,1654561462.45887,1654561463.25867,1654561463.25759,1654562043.34058,0
127,4,2,3,2,5,2,c2_WhyHand,1,healthy?,17,H_362.jpg,1654561436.10542,1654561436.1073,10.4036266708374,7.12746024131775,17.5396206283569,19.640404214859,0.3,24.7089610004425,0.783626079559326,25.4936039352417,1,left,0.757109880447388,25.4925870800018,604.475168457031,607.235168457031,1654561449.26904,1654561449.2794,1654561456.40504,1654561456.41308,1654561458.50582,1654561463.57438,1654561463.58041,1654561464.35902,1654561464.358,1654562043.34058,1
127,4,2,3,2,6,2,c2_WhyHand,2,healthy?,20,H_007.jpg,1654561436.10542,1654561436.1073,10.4036266708374,7.12746024131775,17.5396206283569,19.640404214859,0.3,25.8093712234497,0.967027425765991,26.780638923645,3,right,0.952224969863892,26.7763986492157,604.475168457031,607.235168457031,1654561449.26904,1654561449.2794,1654561456.40504,1654561456.41308,1654561458.50582,1654561464.67479,1654561464.67926,1654561465.64605,1654561465.64181,1654562043.34058,0
127,4,2,3,2,7,2,c2_WhyHand,1,healthy?,19,H_167.jpg,1654561436.10542,1654561436.1073,10.4036266708374,7.12746024131775,17.5396206283569,19.640404214859,0.3,27.0931839847565,0.700260877609253,27.7965369129181,1,left,0.684815883636475,27.7934448623657,604.475168457031,607.235168457031,1654561449.26904,1654561449.2794,1654561456.40504,1654561456.41308,1654561458.50582,1654561465.9586,1654561465.96251,1654561466.66195,1654561466.65886,1654562043.34058,1
127,4,2,3,2,8,2,c2_WhyHand,2,healthy?,24,H_019.jpg,1654561436.10542,1654561436.1073,10.4036266708374,7.12746024131775,17.5396206283569,19.640404214859,0.3,28.1102294826508,0.883662462234497,28.9971918964386,3,right,0.860496997833252,28.9938919448853,604.475168457031,607.235168457031,1654561449.26904,1654561449.2794,1654561456.40504,1654561456.41308,1654561458.50582,1654561466.97564,1654561466.97922,1654561467.86261,1654561467.85931,1654562043.34058,0
127,4,2,3,3,1,1,c1_WhyFace,1,admiring?,4,F_779.jpg,1654561436.10542,1654561436.1073,29.0605857276916,7.57849717140198,36.6467459106445,38.7475299739838,2.10078406333923,38.8975860977173,0.633568525314331,39.547354927063,1,left,0.623334884643555,39.5311546230316,604.475168457031,607.235168457031,1654561467.926,1654561467.92945,1654561475.51216,1654561475.5141,1654561477.61295,1654561477.763,1654561477.7648,1654561478.41277,1654561478.39657,1654562043.34058,1
127,4,2,3,3,2,1,c1_WhyFace,1,admiring?,1,F_593.jpg,1654561436.10542,1654561436.1073,29.0605857276916,7.57849717140198,36.6467459106445,38.7475299739838,0.3,39.8479390048981,0.733607292175293,40.5825858020782,1,left,0.712887048721313,40.5815462970734,604.475168457031,607.235168457031,1654561467.926,1654561467.92945,1654561475.51216,1654561475.5141,1654561477.61295,1654561478.71335,1654561478.71486,1654561479.448,1654561479.44696,1654562043.34058,1
127,4,2,3,3,3,1,c1_WhyFace,2,admiring?,3,F_110.jpg,1654561436.10542,1654561436.1073,29.0605857276916,7.57849717140198,36.6467459106445,38.7475299739838,0.3,40.8983313941956,0.800297021865845,41.7135949039459,3,right,0.793821811676025,41.6986284160614,604.475168457031,607.235168457031,1654561467.926,1654561467.92945,1654561475.51216,1654561475.5141,1654561477.61295,1654561479.76375,1654561479.76566,1654561480.57901,1654561480.56404,1654562043.34058,0
127,4,2,3,3,4,1,c1_WhyFace,1,admiring?,8,F_590.jpg,1654561436.10542,1654561436.1073,29.0605857276916,7.57849717140198,36.6467459106445,38.7475299739838,0.3,42.0154147052765,0.633570194244385,42.6506259346008,1,left,0.619204044342041,42.6489848995209,604.475168457031,607.235168457031,1654561467.926,1654561467.92945,1654561475.51216,1654561475.5141,1654561477.61295,1654561480.88083,1654561480.88256,1654561481.51604,1654561481.5144,1654562043.34058,1
127,4,2,3,3,5,1,c1_WhyFace,2,admiring?,6,F_692.jpg,1654561436.10542,1654561436.1073,29.0605857276916,7.57849717140198,36.6467459106445,38.7475299739838,0.3,42.9657690429688,0.566878318786621,43.5344259643555,1,left,0.547744035720825,43.5326473617554,604.475168457031,607.235168457031,1654561467.926,1654561467.92945,1654561475.51216,1654561475.5141,1654561477.61295,1654561481.83118,1654561481.83287,1654561482.39984,1654561482.39806,1654562043.34058,0
127,4,2,3,3,6,1,c1_WhyFace,1,admiring?,5,F_759.jpg,1654561436.10542,1654561436.1073,29.0605857276916,7.57849717140198,36.6467459106445,38.7475299739838,0.3,43.8494326972961,0.583550930023193,44.4471259021759,1,left,0.57468318939209,44.4329836273193,604.475168457031,607.235168457031,1654561467.926,1654561467.92945,1654561475.51216,1654561475.5141,1654561477.61295,1654561482.71485,1654561482.7166,1654561483.31254,1654561483.2984,1654562043.34058,1
127,4,2,3,3,7,1,c1_WhyFace,1,admiring?,7,F_648.jpg,1654561436.10542,1654561436.1073,29.0605857276916,7.57849717140198,36.6467459106445,38.7475299739838,0.3,44.7497677707672,0.833645105361938,45.5847468280792,1,left,0.821269989013672,45.5834128761292,604.475168457031,607.235168457031,1654561467.926,1654561467.92945,1654561475.51216,1654561475.5141,1654561477.61295,1654561483.61518,1654561483.61686,1654561484.45016,1654561484.44883,1654562043.34058,1
127,4,2,3,3,8,1,c1_WhyFace,2,admiring?,2,F_129.jpg,1654561436.10542,1654561436.1073,29.0605857276916,7.57849717140198,36.6467459106445,38.7475299739838,0.3,45.900197019577,0.583550691604614,46.4971818828583,1,left,0.576147079467773,46.4837477111816,604.475168457031,607.235168457031,1654561467.926,1654561467.92945,1654561475.51216,1654561475.5141,1654561477.61295,1654561484.76561,1654561484.7672,1654561485.3626,1654561485.34916,1654562043.34058,0
127,4,2,3,4,1,3,c3_HowFace,1,smiling?,119,F_139.jpg,1654561436.10542,1654561436.1073,46.5671117210388,9.03598713874817,55.6204883956909,57.7212724590302,2.10078406333923,57.8713276290894,0.483513593673706,58.3558828735352,1,left,0.463974952697754,58.3548412227631,604.475168457031,607.235168457031,1654561485.43253,1654561485.44616,1654561494.4859,1654561494.48884,1654561496.58669,1654561496.73674,1654561496.73871,1654561497.2213,1654561497.22026,1654562043.34058,1
127,4,2,3,4,2,3,c3_HowFace,2,smiling?,113,F_712.jpg,1654561436.10542,1654561436.1073,46.5671117210388,9.03598713874817,55.6204883956909,57.7212724590302,0.3,58.6716272735596,0.800297260284424,59.4803810024261,3,right,0.788349151611328,59.471924533844,604.475168457031,607.235168457031,1654561485.43253,1654561485.44616,1654561494.4859,1654561494.48884,1654561496.58669,1654561497.53704,1654561497.5386,1654561498.3458,1654561498.33734,1654562043.34058,0
127,4,2,3,4,3,3,c3_HowFace,1,smiling?,115,F_695.jpg,1654561436.10542,1654561436.1073,46.5671117210388,9.03598713874817,55.6204883956909,57.7212724590302,0.3,59.7887096309662,0.650243043899536,60.4407138729095,1,left,0.632066965103149,60.4389526748657,604.475168457031,607.235168457031,1654561485.43253,1654561485.44616,1654561494.4859,1654561494.48884,1654561496.58669,1654561498.65412,1654561498.6559,1654561499.30613,1654561499.30437,1654562043.34058,1
127,4,2,3,4,4,3,c3_HowFace,2,smiling?,120,F_758.jpg,1654561436.10542,1654561436.1073,46.5671117210388,9.03598713874817,55.6204883956909,57.7212724590302,0.3,60.7557361030579,0.800299882888794,61.5632228755951,3,right,0.790138006210327,61.5560359859467,604.475168457031,607.235168457031,1654561485.43253,1654561485.44616,1654561494.4859,1654561494.48884,1654561496.58669,1654561499.62115,1654561499.62287,1654561500.42864,1654561500.42145,1654562043.34058,0
127,4,2,3,4,5,3,c3_HowFace,1,smiling?,116,F_083.jpg,1654561436.10542,1654561436.1073,46.5671117210388,9.03598713874817,55.6204883956909,57.7212724590302,0.3,61.8728194141388,0.533532857894897,62.4131958389282,1,left,0.526144981384277,62.4063522720337,604.475168457031,607.235168457031,1654561485.43253,1654561485.44616,1654561494.4859,1654561494.48884,1654561496.58669,1654561500.73823,1654561500.74032,1654561501.27861,1654561501.27177,1654562043.34058,1
127,4,2,3,4,6,3,c3_HowFace,1,smiling?,118,F_759.jpg,1654561436.10542,1654561436.1073,46.5671117210388,9.03598713874817,55.6204883956909,57.7212724590302,0.3,62.7231373691559,0.483513832092285,63.2139058017731,1,left,0.473230123519897,63.2066512012482,604.475168457031,607.235168457031,1654561485.43253,1654561485.44616,1654561494.4859,1654561494.48884,1654561496.58669,1654561501.58855,1654561501.59016,1654561502.07932,1654561502.07207,1654562043.34058,1
127,4,2,3,4,7,3,c3_HowFace,2,smiling?,114,F_412.jpg,1654561436.10542,1654561436.1073,46.5671117210388,9.03598713874817,55.6204883956909,57.7212724590302,0.3,63.5234355831146,0.550205230712891,64.0806507968903,3,right,0.537322998046875,64.0736408138275,604.475168457031,607.235168457031,1654561485.43253,1654561485.44616,1654561494.4859,1654561494.48884,1654561496.58669,1654561502.38885,1654561502.39043,1654561502.94607,1654561502.93906,1654562043.34058,0
127,4,2,3,4,8,3,c3_HowFace,1,smiling?,117,F_593.jpg,1654561436.10542,1654561436.1073,46.5671117210388,9.03598713874817,55.6204883956909,57.7212724590302,0.3,64.3904275798798,0.56687593460083,64.9638368988037,1,left,0.55660605430603,64.9573035144806,604.475168457031,607.235168457031,1654561485.43253,1654561485.44616,1654561494.4859,1654561494.48884,1654561496.58669,1654561503.25584,1654561503.25769,1654561503.82925,1654561503.82272,1654562043.34058,1
127,4,2,3,5,1,4,c4_HowHand,1,lifting?,56,H_136.jpg,1654561436.10542,1654561436.1073,65.0239956283569,8.11000728607178,73.1436893844604,75.2444734477997,2.10078406333923,75.3945298099518,1.11708283424377,76.5132138633728,1,left,1.10570693016052,76.5116126441956,604.475168457031,607.235168457031,1654561503.88941,1654561503.89669,1654561512.0091,1654561512.01332,1654561514.10989,1654561514.25994,1654561514.26266,1654561515.37863,1654561515.37703,1654562043.34058,1
127,4,2,3,5,2,4,c4_HowHand,2,lifting?,51,H_038.jpg,1654561436.10542,1654561436.1073,65.0239956283569,8.11000728607178,73.1436893844604,75.2444734477997,0.3,76.8283982181549,1.1837739944458,78.0139927768707,3,right,1.17120718955994,78.0121722126007,604.475168457031,607.235168457031,1654561503.88941,1654561503.89669,1654561512.0091,1654561512.01332,1654561514.10989,1654561515.69381,1654561515.69633,1654561516.87941,1654561516.87759,1654562043.34058,0
127,4,2,3,5,3,4,c4_HowHand,1,lifting?,52,H_189.jpg,1654561436.10542,1654561436.1073,65.0239956283569,8.11000728607178,73.1436893844604,75.2444734477997,0.3,78.3289565944672,1.08373785018921,79.4142858886719,1,left,1.07319784164429,79.4126944446564,604.475168457031,607.235168457031,1654561503.88941,1654561503.89669,1654561512.0091,1654561512.01332,1654561514.10989,1654561517.19437,1654561517.19584,1654561518.2797,1654561518.27811,1654562043.34058,1
127,4,2,3,5,4,4,c4_HowHand,2,lifting?,53,H_077.jpg,1654561436.10542,1654561436.1073,65.0239956283569,8.11000728607178,73.1436893844604,75.2444734477997,0.3,79.7294802570343,1.16710066795349,80.8979518318176,3,right,1.15334606170654,80.8965809249878,604.475168457031,607.235168457031,1654561503.88941,1654561503.89669,1654561512.0091,1654561512.01332,1654561514.10989,1654561518.5949,1654561518.59627,1654561519.76337,1654561519.762,1654562043.34058,0
127,4,2,3,5,5,4,c4_HowHand,1,lifting?,50,H_443.jpg,1654561436.10542,1654561436.1073,65.0239956283569,8.11000728607178,73.1436893844604,75.2444734477997,0.3,81.2133653068542,1.71730756759644,NaN,0,NA,0,82.9306728744507,604.475168457031,607.235168457031,1654561503.88941,1654561503.89669,1654561512.0091,1654561512.01332,1654561514.10989,1654561520.07878,1654561520.08014,NaN,1654561521.79609,1654562043.34058,0
127,4,2,3,5,6,4,c4_HowHand,2,lifting?,55,H_012.jpg,1654561436.10542,1654561436.1073,65.0239956283569,8.11000728607178,73.1436893844604,75.2444734477997,0.3,83.2474572563171,1.13375639915466,84.3822939300537,3,right,1.1193699836731,84.3812136554718,604.475168457031,607.235168457031,1654561503.88941,1654561503.89669,1654561512.0091,1654561512.01332,1654561514.10989,1654561522.11287,1654561522.11474,1654561523.24771,1654561523.24663,1654562043.34058,0
127,4,2,3,5,7,4,c4_HowHand,1,lifting?,49,H_362.jpg,1654561436.10542,1654561436.1073,65.0239956283569,8.11000728607178,73.1436893844604,75.2444734477997,0.3,84.697998752594,0.666915893554688,85.3660578632355,1,left,0.653577089309692,85.3649146461487,604.475168457031,607.235168457031,1654561503.88941,1654561503.89669,1654561512.0091,1654561512.01332,1654561514.10989,1654561523.56341,1654561523.56464,1654561524.23147,1654561524.23033,1654562043.34058,1
127,4,2,3,5,8,4,c4_HowHand,1,lifting?,54,H_170.jpg,1654561436.10542,1654561436.1073,65.0239956283569,8.11000728607178,73.1436893844604,75.2444734477997,0.3,85.681698551178,1.16710162162781,86.8504350090027,1,left,1.14901781082153,86.8488001728058,604.475168457031,607.235168457031,1654561503.88941,1654561503.89669,1654561512.0091,1654561512.01332,1654561514.10989,1654561524.54711,1654561524.54924,1654561525.71585,1654561525.71422,1654562043.34058,1
127,4,2,3,6,1,2,c2_WhyHand,1,helping?,38,H_077.jpg,1654561436.10542,1654561436.1073,86.9154930019379,8.69949579238892,95.618737449646,97.7195219898224,2.10078454017639,97.8695773983002,0.783624887466431,98.6542618179321,1,left,0.756549119949341,98.6532022857666,604.475168457031,607.235168457031,1654561525.78091,1654561525.78222,1654561534.48415,1654561534.49622,1654561536.58494,1654561536.73499,1654561536.74617,1654561537.51968,1654561537.51862,1654562043.34058,1
127,4,2,3,6,2,2,c2_WhyHand,1,helping?,36,H_349.jpg,1654561436.10542,1654561436.1073,86.9154930019379,8.69949579238892,95.618737449646,97.7195219898224,0.3,98.9699878597259,0.783624887466431,99.7548138999939,1,left,0.765750169754028,99.7536127471924,604.475168457031,607.235168457031,1654561525.78091,1654561525.78222,1654561534.48415,1654561534.49622,1654561536.58494,1654561537.8354,1654561537.83733,1654561538.62023,1654561538.61903,1654562043.34058,1
127,4,2,3,6,3,2,c2_WhyHand,1,helping?,37,H_474.jpg,1654561436.10542,1654561436.1073,86.9154930019379,8.69949579238892,95.618737449646,97.7195219898224,0.3,100.070396413803,0.750281095504761,100.83061384201,1,left,0.740885972976685,100.820677509308,604.475168457031,607.235168457031,1654561525.78091,1654561525.78222,1654561534.48415,1654561534.49622,1654561536.58494,1654561538.93581,1654561538.93738,1654561539.69603,1654561539.68609,1654562043.34058,1
127,4,2,3,6,4,2,c2_WhyHand,1,helping?,39,H_024.jpg,1654561436.10542,1654561436.1073,86.9154930019379,8.69949579238892,95.618737449646,97.7195219898224,0.3,101.137462844849,1.30048489570618,102.447278966904,3,right,1.29121088981628,102.437947740555,604.475168457031,607.235168457031,1654561525.78091,1654561525.78222,1654561534.48415,1654561534.49622,1654561536.58494,1654561540.00288,1654561540.00448,1654561541.31269,1654561541.30336,1654562043.34058,0
127,4,2,3,6,5,2,c2_WhyHand,2,helping?,40,H_012.jpg,1654561436.10542,1654561436.1073,86.9154930019379,8.69949579238892,95.618737449646,97.7195219898224,0.3,102.754732837677,0.933680772781372,103.69673584938,3,right,0.920638084411621,103.688413610458,604.475168457031,607.235168457031,1654561525.78091,1654561525.78222,1654561534.48415,1654561534.49622,1654561536.58494,1654561541.62015,1654561541.62172,1654561542.56215,1654561542.55383,1654562043.34058,0
127,4,2,3,6,6,2,c2_WhyHand,2,helping?,35,H_159.jpg,1654561436.10542,1654561436.1073,86.9154930019379,8.69949579238892,95.618737449646,97.7195219898224,0.3,104.005198230743,1.06706547737122,105.073624839783,3,right,1.04481482505798,105.072263708115,604.475168457031,607.235168457031,1654561525.78091,1654561525.78222,1654561534.48415,1654561534.49622,1654561536.58494,1654561542.87061,1654561542.87218,1654561543.93904,1654561543.93768,1654562043.34058,0
127,4,2,3,6,7,2,c2_WhyHand,1,helping?,34,H_111.jpg,1654561436.10542,1654561436.1073,86.9154930019379,8.69949579238892,95.618737449646,97.7195219898224,0.3,105.389048805237,0.7669517993927,106.163851966858,1,left,0.754719018936157,106.15600060463,604.475168457031,607.235168457031,1654561525.78091,1654561525.78222,1654561534.48415,1654561534.49622,1654561536.58494,1654561544.25446,1654561544.25617,1654561545.02927,1654561545.02142,1654562043.34058,1
127,4,2,3,6,8,2,c2_WhyHand,2,helping?,33,H_091.jpg,1654561436.10542,1654561436.1073,86.9154930019379,8.69949579238892,95.618737449646,97.7195219898224,0.3,106.472785224915,1.00037360191345,107.474670877457,3,right,0.9791100025177,107.473158826828,604.475168457031,607.235168457031,1654561525.78091,1654561525.78222,1654561534.48415,1654561534.49622,1654561536.58494,1654561545.3382,1654561545.33989,1654561546.34009,1654561546.33857,1654562043.34058,0
127,4,2,3,7,1,1,c1_WhyFace,1,proud?,104,F_598.jpg,1654561436.10542,1654561436.1073,107.539850225449,5.95003271102905,113.508742799759,115.592853536606,2.08411073684692,115.742909660339,0.650241851806641,116.396651973724,1,left,0.62870192527771,116.393151512146,604.475168457031,607.235168457031,1654561546.40527,1654561546.40678,1654561552.37416,1654561552.37608,1654561554.45827,1654561554.60832,1654561554.6125,1654561555.26207,1654561555.25857,1654562043.34058,1
127,4,2,3,7,2,1,c1_WhyFace,2,proud?,102,F_760.jpg,1654561436.10542,1654561436.1073,107.539850225449,5.95003271102905,113.508742799759,115.592853536606,0.3,116.70993637085,0.883662462234497,117.597108831406,3,right,0.8646399974823,117.593598833084,604.475168457031,607.235168457031,1654561546.40527,1654561546.40678,1654561552.37416,1654561552.37608,1654561554.45827,1654561555.57535,1654561555.57923,1654561556.46252,1654561556.45901,1654562043.34058,0
127,4,2,3,7,3,1,c1_WhyFace,1,proud?,97,F_582.jpg,1654561436.10542,1654561436.1073,107.539850225449,5.95003271102905,113.508742799759,115.592853536606,0.3,117.910385122299,0.600221633911133,118.513140907288,1,left,0.591708898544312,118.51060675621,604.475168457031,607.235168457031,1654561546.40527,1654561546.40678,1654561552.37416,1654561552.37608,1654561554.45827,1654561556.7758,1654561556.77912,1654561557.37856,1654561557.37602,1654562043.34058,1
127,4,2,3,7,4,1,c1_WhyFace,2,proud?,98,F_412.jpg,1654561436.10542,1654561436.1073,107.539850225449,5.95003271102905,113.508742799759,115.592853536606,0.3,118.827392807007,1.15042853355408,119.980389823914,3,right,1.142254114151,119.977821340561,604.475168457031,607.235168457031,1654561546.40527,1654561546.40678,1654561552.37416,1654561552.37608,1654561554.45827,1654561557.69281,1654561557.69558,1654561558.8458,1654561558.84324,1654562043.34058,0
127,4,2,3,7,5,1,c1_WhyFace,1,proud?,101,F_083.jpg,1654561436.10542,1654561436.1073,107.539850225449,5.95003271102905,113.508742799759,115.592853536606,0.3,120.294606437683,0.683589458465576,120.979730834961,1,left,0.659274101257324,120.978195896149,604.475168457031,607.235168457031,1654561546.40527,1654561546.40678,1654561552.37416,1654561552.37608,1654561554.45827,1654561559.16002,1654561559.16269,1654561559.84515,1654561559.84361,1654562043.34058,1
127,4,2,3,7,6,1,c1_WhyFace,2,proud?,100,F_776.jpg,1654561436.10542,1654561436.1073,107.539850225449,5.95003271102905,113.508742799759,115.592853536606,0.3,121.294979801178,1.08373761177063,122.380239953995,1,left,1.07371807098389,122.378717412949,604.475168457031,607.235168457031,1654561546.40527,1654561546.40678,1654561552.37416,1654561552.37608,1654561554.45827,1654561560.16039,1654561560.16246,1654561561.24566,1654561561.24413,1654562043.34058,0
127,4,2,3,7,7,1,c1_WhyFace,1,proud?,103,F_618.jpg,1654561436.10542,1654561436.1073,107.539850225449,5.95003271102905,113.508742799759,115.592853536606,0.3,122.695502986908,0.700260400772095,123.396896829605,1,left,0.683103799819946,123.39576338768,604.475168457031,607.235168457031,1654561546.40527,1654561546.40678,1654561552.37416,1654561552.37608,1654561554.45827,1654561561.56092,1654561561.56247,1654561562.26231,1654561562.26118,1654562043.34058,1
127,4,2,3,7,8,1,c1_WhyFace,1,proud?,99,F_695.jpg,1654561436.10542,1654561436.1073,107.539850225449,5.95003271102905,113.508742799759,115.592853536606,0.3,123.712547531128,0.716933727264404,124.430513849258,1,left,0.69625186920166,124.429481258392,604.475168457031,607.235168457031,1654561546.40527,1654561546.40678,1654561552.37416,1654561552.37608,1654561554.45827,1654561562.57796,1654561562.57955,1654561563.29593,1654561563.2949,1654562043.34058,1
127,4,2,3,8,1,3,c3_HowFace,1,looking to side?,72,F_590.jpg,1654561436.10542,1654561436.1073,124.496173610687,6.52378535270691,131.031944980621,133.132728567123,2.10078358650208,133.282783737183,0.883662700653076,134.167983999252,1,left,0.871824026107788,134.166446437836,604.475168457031,607.235168457031,1654561563.36159,1654561563.36318,1654561569.89736,1654561569.89862,1654561571.99814,1654561572.1482,1654561572.14985,1654561573.0334,1654561573.03186,1654562043.34058,1
127,4,2,3,8,2,3,c3_HowFace,1,looking to side?,71,F_433.jpg,1654561436.10542,1654561436.1073,124.496173610687,6.52378535270691,131.031944980621,133.132728567123,0.3,134.483231773376,0.700260877609253,135.184545984268,1,left,0.687772035598755,135.183492650986,604.475168457031,607.235168457031,1654561563.36159,1654561563.36318,1654561569.89736,1654561569.89862,1654561571.99814,1654561573.34865,1654561573.35023,1654561574.04996,1654561574.04891,1654562043.34058,1
127,4,2,3,8,3,3,c3_HowFace,1,looking to side?,67,F_716.jpg,1654561436.10542,1654561436.1073,124.496173610687,6.52378535270691,131.031944980621,133.132728567123,0.3,135.500277986526,0.666913509368896,136.16831993103,1,left,0.653032064437866,136.167191495895,604.475168457031,607.235168457031,1654561563.36159,1654561563.36318,1654561569.89736,1654561569.89862,1654561571.99814,1654561574.36569,1654561574.36717,1654561575.03374,1654561575.03261,1654562043.34058,1
127,4,2,3,8,4,3,c3_HowFace,2,looking to side?,70,F_779.jpg,1654561436.10542,1654561436.1073,124.496173610687,6.52378535270691,131.031944980621,133.132728567123,0.3,136.483977546692,1.16710257530212,137.65214299202,3,right,1.1437828540802,137.651080121994,604.475168457031,607.235168457031,1654561563.36159,1654561563.36318,1654561569.89736,1654561569.89862,1654561571.99814,1654561575.34939,1654561575.3512,1654561576.51756,1654561576.5165,1654562043.34058,0
127,4,2,3,8,5,3,c3_HowFace,1,looking to side?,68,F_760.jpg,1654561436.10542,1654561436.1073,124.496173610687,6.52378535270691,131.031944980621,133.132728567123,0.3,137.96786450386,0.66691517829895,138.647288789749,1,left,0.657677888870239,138.634779682159,604.475168457031,607.235168457031,1654561563.36159,1654561563.36318,1654561569.89736,1654561569.89862,1654561571.99814,1654561576.83328,1654561576.83491,1654561577.5127,1654561577.50019,1654562043.34058,1
127,4,2,3,8,6,3,c3_HowFace,2,looking to side?,66,F_111.jpg,1654561436.10542,1654561436.1073,124.496173610687,6.52378535270691,131.031944980621,133.132728567123,0.3,138.951564779282,0.783625364303589,139.736250867844,3,right,0.762505769729614,139.735190143585,604.475168457031,607.235168457031,1654561563.36159,1654561563.36318,1654561569.89736,1654561569.89862,1654561571.99814,1654561577.81698,1654561577.81869,1654561578.60167,1654561578.60061,1654562043.34058,0
127,4,2,3,8,7,3,c3_HowFace,1,looking to side?,69,F_110.jpg,1654561436.10542,1654561436.1073,124.496173610687,6.52378535270691,131.031944980621,133.132728567123,0.3,140.051974525452,0.766953229904175,140.820122947693,1,left,0.753000974655151,140.818927755356,604.475168457031,607.235168457031,1654561563.36159,1654561563.36318,1654561569.89736,1654561569.89862,1654561571.99814,1654561578.91739,1654561578.91906,1654561579.68554,1654561579.68434,1654562043.34058,1
127,4,2,3,8,8,3,c3_HowFace,2,looking to side?,65,F_798.jpg,1654561436.10542,1654561436.1073,124.496173610687,6.52378535270691,131.031944980621,133.132728567123,0.3,141.135712137222,1.01704668998718,142.154683818817,3,right,1.0028190612793,142.152758827209,604.475168457031,607.235168457031,1654561563.36159,1654561563.36318,1654561569.89736,1654561569.89862,1654561571.99814,1654561580.00113,1654561580.00285,1654561581.0201,1654561581.01817,1654562043.34058,0
127,4,2,3,9,1,1,c1_WhyFace,1,argument?,43,F_716.jpg,1654561436.10542,1654561436.1073,142.21945022583,7.90851378440857,150.139069309235,152.23985408783,2.10078477859497,152.389908542633,0.73360800743103,153.125142803192,1,left,0.70599889755249,153.123516550064,604.475168457031,607.235168457031,1654561581.08487,1654561581.08665,1654561589.00448,1654561589.01358,1654561591.10527,1654561591.25532,1654561591.2628,1654561591.99056,1654561591.98893,1654562043.34058,1
127,4,2,3,9,2,1,c1_WhyFace,2,argument?,44,F_139.jpg,1654561436.10542,1654561436.1073,142.21945022583,7.90851378440857,150.139069309235,152.23985408783,0.3,153.440301647186,0.900334596633911,154.346589794159,3,right,0.892759084701538,154.34063624382,604.475168457031,607.235168457031,1654561581.08487,1654561581.08665,1654561589.00448,1654561589.01358,1654561591.10527,1654561592.30572,1654561592.30732,1654561593.212,1654561593.20605,1654562043.34058,0
127,4,2,3,9,3,1,c1_WhyFace,1,argument?,41,F_712.jpg,1654561436.10542,1654561436.1073,142.21945022583,7.90851378440857,150.139069309235,152.23985408783,0.3,154.657421579361,0.96702766418457,155.625510921478,1,left,0.946420907974243,155.624449243546,604.475168457031,607.235168457031,1654561581.08487,1654561581.08665,1654561589.00448,1654561589.01358,1654561591.10527,1654561593.52284,1654561593.52464,1654561594.49093,1654561594.48986,1654562043.34058,1
127,4,2,3,9,4,1,c1_WhyFace,2,argument?,45,F_433.jpg,1654561436.10542,1654561436.1073,142.21945022583,7.90851378440857,150.139069309235,152.23985408783,0.3,155.941233625412,0.933681964874268,156.880470981598,3,right,0.921201944351196,156.874915590286,604.475168457031,607.235168457031,1654561581.08487,1654561581.08665,1654561589.00448,1654561589.01358,1654561591.10527,1654561594.80665,1654561594.80834,1654561595.74589,1654561595.74033,1654562043.34058,0
127,4,2,3,9,5,1,c1_WhyFace,1,argument?,42,F_403.jpg,1654561436.10542,1654561436.1073,142.21945022583,7.90851378440857,150.139069309235,152.23985408783,0.3,157.191700210571,0.766952276229858,157.963852872849,1,left,0.750257015228271,157.958652486801,604.475168457031,607.235168457031,1654561581.08487,1654561581.08665,1654561589.00448,1654561589.01358,1654561591.10527,1654561596.05712,1654561596.05887,1654561596.82927,1654561596.82407,1654562043.34058,1
127,4,2,3,9,6,1,c1_WhyFace,2,argument?,46,F_844.jpg,1654561436.10542,1654561436.1073,142.21945022583,7.90851378440857,150.139069309235,152.23985408783,0.3,158.275437583923,0.866990089416504,159.146629800797,3,right,0.851157903671265,159.14242767334,604.475168457031,607.235168457031,1654561581.08487,1654561581.08665,1654561589.00448,1654561589.01358,1654561591.10527,1654561597.14085,1654561597.14228,1654561598.01204,1654561598.00784,1654562043.34058,0
127,4,2,3,9,7,1,c1_WhyFace,1,argument?,47,F_743.jpg,1654561436.10542,1654561436.1073,142.21945022583,7.90851378440857,150.139069309235,152.23985408783,0.3,159.459211816788,0.700261831283569,160.161271800995,1,left,0.675731182098389,160.159473648071,604.475168457031,607.235168457031,1654561581.08487,1654561581.08665,1654561589.00448,1654561589.01358,1654561591.10527,1654561598.32463,1654561598.3292,1654561599.02669,1654561599.02489,1654562043.34058,1
127,4,2,3,9,8,1,c1_WhyFace,1,argument?,48,F_758.jpg,1654561436.10542,1654561436.1073,142.21945022583,7.90851378440857,150.139069309235,152.23985408783,0.3,160.476257076263,0.800299644470215,161.280107011795,1,left,0.784316062927246,161.276556720734,604.475168457031,607.235168457031,1654561581.08487,1654561581.08665,1654561589.00448,1654561589.01358,1654561591.10527,1654561599.34167,1654561599.34611,1654561600.14552,1654561600.14197,1654562043.34058,1
127,4,2,3,10,1,3,c3_HowFace,1,open mouth?,80,F_844.jpg,1654561436.10542,1654561436.1073,161.343247404099,6.62467241287231,167.979055633545,170.079840173721,2.10078454017639,170.229895820618,0.633570671081543,170.864463796616,1,left,0.618310928344727,170.863466491699,604.475168457031,607.235168457031,1654561600.20866,1654561600.21239,1654561606.84447,1654561606.84623,1654561608.94526,1654561609.09531,1654561609.09715,1654561609.72988,1654561609.72888,1654562043.34058,1
127,4,2,3,10,2,3,c3_HowFace,1,open mouth?,74,F_776.jpg,1654561436.10542,1654561436.1073,161.343247404099,6.62467241287231,167.979055633545,170.079840173721,0.3,171.180249443054,0.550204753875732,171.731541862488,1,left,0.536067008972168,171.73045419693,604.475168457031,607.235168457031,1654561600.20866,1654561600.21239,1654561606.84447,1654561606.84623,1654561608.94526,1654561610.04566,1654561610.04728,1654561610.59696,1654561610.59587,1654562043.34058,1
127,4,2,3,10,3,3,c3_HowFace,2,open mouth?,76,F_544.jpg,1654561436.10542,1654561436.1073,161.343247404099,6.62467241287231,167.979055633545,170.079840173721,0.3,172.047240724564,0.733606576919556,172.781836977005,3,right,0.721254110336304,172.780847301483,604.475168457031,607.235168457031,1654561600.20866,1654561600.21239,1654561606.84447,1654561606.84623,1654561608.94526,1654561610.91266,1654561610.91436,1654561611.64725,1654561611.64626,1654562043.34058,0
127,4,2,3,10,4,3,c3_HowFace,1,open mouth?,78,F_692.jpg,1654561436.10542,1654561436.1073,161.343247404099,6.62467241287231,167.979055633545,170.079840173721,0.3,173.097632398605,0.866988897323608,173.966316928864,1,left,0.845830202102661,173.964621295929,604.475168457031,607.235168457031,1654561600.20866,1654561600.21239,1654561606.84447,1654561606.84623,1654561608.94526,1654561611.96305,1654561611.96482,1654561612.83173,1654561612.83004,1654562043.34058,1
127,4,2,3,10,5,3,c3_HowFace,2,open mouth?,77,F_584.jpg,1654561436.10542,1654561436.1073,161.343247404099,6.62467241287231,167.979055633545,170.079840173721,0.3,174.281406869888,0.566878080368042,174.849931945801,3,right,0.544110059738159,174.848284950256,604.475168457031,607.235168457031,1654561600.20866,1654561600.21239,1654561606.84447,1654561606.84623,1654561608.94526,1654561613.14682,1654561613.14853,1654561613.71535,1654561613.7137,1654562043.34058,0
127,4,2,3,10,6,3,c3_HowFace,1,open mouth?,73,F_403.jpg,1654561436.10542,1654561436.1073,161.343247404099,6.62467241287231,167.979055633545,170.079840173721,0.3,175.165068616867,0.483514070510864,175.65016793251,1,left,0.471575975418091,175.648582687378,604.475168457031,607.235168457031,1654561600.20866,1654561600.21239,1654561606.84447,1654561606.84623,1654561608.94526,1654561614.03048,1654561614.03232,1654561614.51558,1654561614.514,1654562043.34058,1
127,4,2,3,10,7,3,c3_HowFace,1,open mouth?,75,F_086.jpg,1654561436.10542,1654561436.1073,161.343247404099,6.62467241287231,167.979055633545,170.079840173721,0.3,175.965367307663,0.566878318786621,176.533860912323,1,left,0.549108982086182,176.53224562645,604.475168457031,607.235168457031,1654561600.20866,1654561600.21239,1654561606.84447,1654561606.84623,1654561608.94526,1654561614.83078,1654561614.83262,1654561615.39928,1654561615.39766,1654562043.34058,1
127,4,2,3,10,8,3,c3_HowFace,2,open mouth?,79,F_648.jpg,1654561436.10542,1654561436.1073,161.343247404099,6.62467241287231,167.979055633545,170.079840173721,0.3,176.849031200409,0.600223541259766,177.451063861847,3,right,0.589707851409912,177.449254741669,604.475168457031,607.235168457031,1654561600.20866,1654561600.21239,1654561606.84447,1654561606.84623,1654561608.94526,1654561615.71445,1654561615.71613,1654561616.31648,1654561616.31467,1654562043.34058,0
127,4,2,3,11,1,4,c4_HowHand,1,pressing button?,88,H_019.jpg,1654561436.10542,1654561436.1073,177.515945186615,8.341956615448,185.869060506821,187.969844808579,2.10078430175781,188.119901170731,0.80029821395874,188.921818008423,1,left,0.781857967376709,188.920199384689,604.475168457031,607.235168457031,1654561616.38136,1654561616.38229,1654561624.73448,1654561624.7364,1654561626.83526,1654561626.98532,1654561626.98695,1654561627.78723,1654561627.78561,1654562043.34058,1
127,4,2,3,11,2,4,c4_HowHand,2,pressing button?,87,H_024.jpg,1654561436.10542,1654561436.1073,177.515945186615,8.341956615448,185.869060506821,187.969844808579,0.3,189.236983766556,0.833644151687622,190.080424776077,3,right,0.824143886566162,190.070627918243,604.475168457031,607.235168457031,1654561616.38136,1654561616.38229,1654561624.73448,1654561624.7364,1654561626.83526,1654561628.1024,1654561628.10413,1654561628.94584,1654561628.93604,1654562043.34058,0
127,4,2,3,11,3,4,c4_HowHand,2,pressing button?,85,H_130.jpg,1654561436.10542,1654561436.1073,177.515945186615,8.341956615448,185.869060506821,187.969844808579,0.3,190.387412538528,0.716933965682983,191.105975856781,3,right,0.694723129272461,191.104346504211,604.475168457031,607.235168457031,1654561616.38136,1654561616.38229,1654561624.73448,1654561624.7364,1654561626.83526,1654561629.25283,1654561629.2547,1654561629.97139,1654561629.96976,1654562043.34058,0
127,4,2,3,11,4,4,c4_HowHand,1,pressing button?,83,H_502.jpg,1654561436.10542,1654561436.1073,177.515945186615,8.341956615448,185.869060506821,187.969844808579,0.3,191.421131601334,0.600223779678345,192.022912969589,1,left,0.577046871185303,192.021355381012,604.475168457031,607.235168457031,1654561616.38136,1654561616.38229,1654561624.73448,1654561624.7364,1654561626.83526,1654561630.28655,1654561630.28808,1654561630.88833,1654561630.88677,1654562043.34058,1
127,4,2,3,11,5,4,c4_HowHand,2,pressing button?,81,H_261.jpg,1654561436.10542,1654561436.1073,177.515945186615,8.341956615448,185.869060506821,187.969844808579,0.3,192.338141431808,0.733605146408081,193.079968919754,3,right,0.718780040740967,193.071746578217,604.475168457031,607.235168457031,1654561616.38136,1654561616.38229,1654561624.73448,1654561624.7364,1654561626.83526,1654561631.20356,1654561631.20525,1654561631.94538,1654561631.93716,1654562043.34058,0
127,4,2,3,11,6,4,c4_HowHand,1,pressing button?,86,H_332.jpg,1654561436.10542,1654561436.1073,177.515945186615,8.341956615448,185.869060506821,187.969844808579,0.3,193.388531675339,0.633569717407227,194.029981842041,1,left,0.624896049499512,194.022101392746,604.475168457031,607.235168457031,1654561616.38136,1654561616.38229,1654561624.73448,1654561624.7364,1654561626.83526,1654561632.25395,1654561632.25631,1654561632.8954,1654561632.88752,1654562043.34058,1
127,4,2,3,11,7,4,c4_HowHand,1,pressing button?,82,H_126.jpg,1654561436.10542,1654561436.1073,177.515945186615,8.341956615448,185.869060506821,187.969844808579,0.3,194.33888625145,0.633569478988647,194.97351597786,1,left,0.613077878952026,194.972455730438,604.475168457031,607.235168457031,1654561616.38136,1654561616.38229,1654561624.73448,1654561624.7364,1654561626.83526,1654561633.2043,1654561633.20608,1654561633.83893,1654561633.83787,1654562043.34058,1
127,4,2,3,11,8,4,c4_HowHand,1,pressing button?,84,H_483.jpg,1654561436.10542,1654561436.1073,177.515945186615,8.341956615448,185.869060506821,187.969844808579,0.3,195.289241065979,1.15042805671692,196.441927900314,1,left,1.13017702102661,196.439669122696,604.475168457031,607.235168457031,1654561616.38136,1654561616.38229,1654561624.73448,1654561624.7364,1654561626.83526,1654561634.15466,1654561634.15647,1654561635.30734,1654561635.30508,1654562043.34058,1
127,4,2,3,12,1,2,c2_WhyHand,1,competing?,9,H_261.jpg,1654561436.10542,1654561436.1073,196.523034563065,7.12487125396729,203.659028520584,205.759811868668,2.1007833480835,205.909867515564,0.516860008239746,206.429889907837,1,left,0.504863977432251,206.426727523804,604.475168457031,607.235168457031,1654561635.38845,1654561635.39613,1654561642.52444,1654561642.52949,1654561644.62523,1654561644.77528,1654561644.77955,1654561645.29531,1654561645.29214,1654562043.34058,1
127,4,2,3,12,2,2,c2_WhyHand,2,competing?,12,H_483.jpg,1654561436.10542,1654561436.1073,196.523034563065,7.12487125396729,203.659028520584,205.759811868668,0.3,206.743512382507,0.633570909500122,207.380823841095,3,right,0.613120079040527,207.377083292007,604.475168457031,607.235168457031,1654561635.38845,1654561635.39613,1654561642.52444,1654561642.52949,1654561644.62523,1654561645.60893,1654561645.61279,1654561646.24624,1654561646.2425,1654562043.34058,0
127,4,2,3,12,3,2,c2_WhyHand,1,competing?,14,H_132.jpg,1654561436.10542,1654561436.1073,196.523034563065,7.12487125396729,203.659028520584,205.759811868668,0.3,207.693866243362,0.683588266372681,208.380091896057,1,left,0.672089099884033,208.377454509735,604.475168457031,607.235168457031,1654561635.38845,1654561635.39613,1654561642.52444,1654561642.52949,1654561644.62523,1654561646.55928,1654561646.56275,1654561647.24551,1654561647.24287,1654562043.34058,1
127,4,2,3,12,4,2,c2_WhyHand,2,competing?,10,H_126.jpg,1654561436.10542,1654561436.1073,196.523034563065,7.12487125396729,203.659028520584,205.759811868668,0.3,208.694239606857,0.83364462852478,209.530746927261,3,right,0.817419052124023,209.527884235382,604.475168457031,607.235168457031,1654561635.38845,1654561635.39613,1654561642.52444,1654561642.52949,1654561644.62523,1654561647.55965,1654561647.56272,1654561648.39616,1654561648.3933,1654562043.34058,0
127,4,2,3,12,5,2,c2_WhyHand,1,competing?,16,H_136.jpg,1654561436.10542,1654561436.1073,196.523034563065,7.12487125396729,203.659028520584,205.759811868668,0.3,209.844668617249,0.917009115219116,210.763634910584,1,left,0.90522313117981,210.761677732468,604.475168457031,607.235168457031,1654561635.38845,1654561635.39613,1654561642.52444,1654561642.52949,1654561644.62523,1654561648.71008,1654561648.71257,1654561649.62905,1654561649.62709,1654562043.34058,1
127,4,2,3,12,6,2,c2_WhyHand,2,competing?,11,H_502.jpg,1654561436.10542,1654561436.1073,196.523034563065,7.12487125396729,203.659028520584,205.759811868668,0.3,211.078462114334,0.766952514648438,211.846969833374,3,right,0.756907939910889,211.845414628983,604.475168457031,607.235168457031,1654561635.38845,1654561635.39613,1654561642.52444,1654561642.52949,1654561644.62523,1654561649.94388,1654561649.94617,1654561650.71238,1654561650.71083,1654562043.34058,0
127,4,2,3,12,7,2,c2_WhyHand,1,competing?,13,H_003.jpg,1654561436.10542,1654561436.1073,196.523034563065,7.12487125396729,203.659028520584,205.759811868668,0.3,212.162199249268,0.700261354446411,212.864116897583,1,left,0.679625988006592,212.862460603714,604.475168457031,607.235168457031,1654561635.38845,1654561635.39613,1654561642.52444,1654561642.52949,1654561644.62523,1654561651.02761,1654561651.02958,1654561651.72953,1654561651.72788,1654562043.34058,1
127,4,2,3,12,8,2,c2_WhyHand,1,competing?,15,H_170.jpg,1654561436.10542,1654561436.1073,196.523034563065,7.12487125396729,203.659028520584,205.759811868668,0.3,213.179245462418,0.583551168441772,213.764477005005,1,left,0.565937995910645,213.762796630859,604.475168457031,607.235168457031,1654561635.38845,1654561635.39613,1654561642.52444,1654561642.52949,1654561644.62523,1654561652.04466,1654561652.04662,1654561652.62989,1654561652.62821,1654562043.34058,1
127,4,2,3,13,1,1,c1_WhyFace,1,self-doubt?,29,F_544.jpg,1654561436.10542,1654561436.1073,213.829488506317,7.88840627670288,221.732435455322,223.833219280243,2.10078382492065,223.983275165558,0.750279664993286,224.734621992111,1,left,0.730531930923462,224.733554830551,604.475168457031,607.235168457031,1654561652.6949,1654561652.69579,1654561660.59785,1654561660.59976,1654561662.69863,1654561662.84869,1654561662.85079,1654561663.60004,1654561663.59897,1654562043.34058,1
127,4,2,3,13,2,1,c1_WhyFace,2,self-doubt?,27,F_086.jpg,1654561436.10542,1654561436.1073,213.829488506317,7.88840627670288,221.732435455322,223.833219280243,0.3,225.050342073441,1.71730518341064,226.771764984131,3,right,1.7001699924469,226.767647256851,604.475168457031,607.235168457031,1654561652.6949,1654561652.69579,1654561660.59785,1654561660.59976,1654561662.69863,1654561663.91576,1654561663.91748,1654561665.63718,1654561665.63306,1654562043.34058,0
127,4,2,3,13,3,1,c1_WhyFace,1,self-doubt?,25,F_798.jpg,1654561436.10542,1654561436.1073,213.829488506317,7.88840627670288,221.732435455322,223.833219280243,0.3,227.084431638718,0.816971302032471,227.902972927094,1,left,0.799820184707642,227.90140294075,604.475168457031,607.235168457031,1654561652.6949,1654561652.69579,1654561660.59785,1654561660.59976,1654561662.69863,1654561665.94985,1654561665.95182,1654561666.76839,1654561666.76682,1654562043.34058,1
127,4,2,3,13,4,1,c1_WhyFace,1,self-doubt?,26,F_111.jpg,1654561436.10542,1654561436.1073,213.829488506317,7.88840627670288,221.732435455322,223.833219280243,0.3,228.218187561035,0.650241136550903,228.870327939987,1,left,0.635673046112061,228.868428697586,604.475168457031,607.235168457031,1654561652.6949,1654561652.69579,1654561660.59785,1654561660.59976,1654561662.69863,1654561667.0836,1654561667.08552,1654561667.73574,1654561667.73384,1654562043.34058,1
127,4,2,3,13,5,1,c1_WhyFace,2,self-doubt?,31,F_774.jpg,1654561436.10542,1654561436.1073,213.829488506317,7.88840627670288,221.732435455322,223.833219280243,0.3,229.185214271545,0.750280618667603,229.947259893417,3,right,0.736908912658691,229.935494890213,604.475168457031,607.235168457031,1654561652.6949,1654561652.69579,1654561660.59785,1654561660.59976,1654561662.69863,1654561668.05063,1654561668.05221,1654561668.81267,1654561668.80091,1654562043.34058,0
127,4,2,3,13,6,1,c1_WhyFace,1,self-doubt?,28,F_754.jpg,1654561436.10542,1654561436.1073,213.829488506317,7.88840627670288,221.732435455322,223.833219280243,0.3,230.252279272079,0.600223302841187,230.863381853104,1,left,0.59208607673645,230.852502574921,604.475168457031,607.235168457031,1654561652.6949,1654561652.69579,1654561660.59785,1654561660.59976,1654561662.69863,1654561669.11769,1654561669.1195,1654561669.7288,1654561669.71792,1654562043.34058,1
127,4,2,3,13,7,1,c1_WhyFace,2,self-doubt?,32,F_128.jpg,1654561436.10542,1654561436.1073,213.829488506317,7.88840627670288,221.732435455322,223.833219280243,0.3,231.169287910461,0.93368124961853,232.104623785019,3,right,0.913388013839722,232.10296916008,604.475168457031,607.235168457031,1654561652.6949,1654561652.69579,1654561660.59785,1654561660.59976,1654561662.69863,1654561670.0347,1654561670.03606,1654561670.97004,1654561670.96838,1654562043.34058,0
127,4,2,3,13,8,1,c1_WhyFace,1,self-doubt?,30,F_584.jpg,1654561436.10542,1654561436.1073,213.829488506317,7.88840627670288,221.732435455322,223.833219280243,0.3,232.419754257202,1.0670645236969,233.48794793129,1,left,1.04775309562683,233.486818780899,604.475168457031,607.235168457031,1654561652.6949,1654561652.69579,1654561660.59785,1654561660.59976,1654561662.69863,1654561671.28517,1654561671.28676,1654561672.35336,1654561672.35223,1654562043.34058,1
127,4,2,3,14,1,3,c3_HowFace,1,looking at camera?,64,F_128.jpg,1654561436.10542,1654561436.1073,233.553510417938,7.2183895111084,240.789541711807,242.890325298309,2.10078358650208,243.040381183624,0.850317478179932,243.8924310112,1,left,0.827123880386353,243.890698661804,604.475168457031,607.235168457031,1654561672.41893,1654561672.42919,1654561679.65496,1654561679.65679,1654561681.75574,1654561681.9058,1654561681.9074,1654561682.75785,1654561682.75611,1654562043.34058,1
127,4,2,3,14,2,3,c3_HowFace,1,looking at camera?,60,F_618.jpg,1654561436.10542,1654561436.1073,233.553510417938,7.2183895111084,240.789541711807,242.890325298309,0.3,244.207483997345,0.50018572807312,244.713710775375,1,left,0.492338895797729,244.707669725418,604.475168457031,607.235168457031,1654561672.41893,1654561672.42919,1654561679.65496,1654561679.65679,1654561681.75574,1654561683.0729,1654561683.07444,1654561683.57913,1654561683.57308,1654562043.34058,1
127,4,2,3,14,3,3,c3_HowFace,1,looking at camera?,62,F_598.jpg,1654561436.10542,1654561436.1073,233.553510417938,7.2183895111084,240.789541711807,242.890325298309,0.3,245.024455060959,0.566878080368042,245.597163906097,1,left,0.549953937530518,245.591333141327,604.475168457031,607.235168457031,1654561672.41893,1654561672.42919,1654561679.65496,1654561679.65679,1654561681.75574,1654561683.88987,1654561683.89165,1654561684.46258,1654561684.45675,1654562043.34058,1
127,4,2,3,14,4,3,c3_HowFace,2,looking at camera?,63,F_743.jpg,1654561436.10542,1654561436.1073,233.553510417938,7.2183895111084,240.789541711807,242.890325298309,0.3,245.908118000031,0.65024209022522,246.563483943939,3,right,0.640331983566284,246.558360090256,604.475168457031,607.235168457031,1654561672.41893,1654561672.42919,1654561679.65496,1654561679.65679,1654561681.75574,1654561684.77353,1654561684.77495,1654561685.4289,1654561685.42378,1654562043.34058,0
127,4,2,3,14,5,3,c3_HowFace,1,looking at camera?,61,F_774.jpg,1654561436.10542,1654561436.1073,233.553510417938,7.2183895111084,240.789541711807,242.890325298309,0.3,246.875144472122,0.733607292175293,247.613375892639,1,left,0.716931104660034,247.608751764297,604.475168457031,607.235168457031,1654561672.41893,1654561672.42919,1654561679.65496,1654561679.65679,1654561681.75574,1654561685.74056,1654561685.7423,1654561686.47879,1654561686.47417,1654562043.34058,1
127,4,2,3,14,6,3,c3_HowFace,2,looking at camera?,57,F_582.jpg,1654561436.10542,1654561436.1073,233.553510417938,7.2183895111084,240.789541711807,242.890325298309,0.3,247.925536623001,0.750280141830444,248.680584897995,3,right,0.735805988311768,248.675816764832,604.475168457031,607.235168457031,1654561672.41893,1654561672.42919,1654561679.65496,1654561679.65679,1654561681.75574,1654561686.79095,1654561686.79267,1654561687.546,1654561687.54123,1654562043.34058,0
127,4,2,3,14,7,3,c3_HowFace,2,looking at camera?,58,F_754.jpg,1654561436.10542,1654561436.1073,233.553510417938,7.2183895111084,240.789541711807,242.890325298309,0.3,248.992601146698,0.800298452377319,249.796687831879,3,right,0.783281087875366,249.792899599075,604.475168457031,607.235168457031,1654561672.41893,1654561672.42919,1654561679.65496,1654561679.65679,1654561681.75574,1654561687.85802,1654561687.86277,1654561688.6621,1654561688.65831,1654562043.34058,0
127,4,2,3,14,8,3,c3_HowFace,1,looking at camera?,59,F_129.jpg,1654561436.10542,1654561436.1073,233.553510417938,7.2183895111084,240.789541711807,242.890325298309,0.3,250.109684457779,0.866990327835083,250.980635871887,1,left,0.846656799316406,250.976674785614,604.475168457031,607.235168457031,1654561672.41893,1654561672.42919,1654561679.65496,1654561679.65679,1654561681.75574,1654561688.9751,1654561688.97907,1654561689.84605,1654561689.84209,1654562043.34058,1
127,4,2,3,15,1,4,c4_HowHand,1,both hands?,123,H_167.jpg,1654561436.10542,1654561436.1073,251.043365945816,8.51859402656555,259.57988237381,261.680666437149,2.10078406333923,261.830722322464,0.9170081615448,262.749148836136,1,left,0.902369022369385,262.747730484009,604.475168457031,607.235168457031,1654561689.90878,1654561689.91202,1654561698.4453,1654561698.44693,1654561700.54608,1654561700.69614,1654561700.6983,1654561701.61456,1654561701.61315,1654562043.34058,1
127,4,2,3,15,2,4,c4_HowHand,2,both hands?,121,H_091.jpg,1654561436.10542,1654561436.1073,251.043365945816,8.51859402656555,259.57988237381,261.680666437149,0.3,263.064516057968,0.950353622436523,264.01588891983,3,right,0.935387134552002,264.014869680405,604.475168457031,607.235168457031,1654561689.90878,1654561689.91202,1654561698.4453,1654561698.44693,1654561700.54608,1654561701.92993,1654561701.93172,1654561702.8813,1654561702.88028,1654562043.34058,0
127,4,2,3,15,3,4,c4_HowHand,2,both hands?,125,H_627.jpg,1654561436.10542,1654561436.1073,251.043365945816,8.51859402656555,259.57988237381,261.680666437149,0.3,264.33165430069,1.23379445075989,265.580072870255,3,right,1.22494602203369,265.56544875145,604.475168457031,607.235168457031,1654561689.90878,1654561689.91202,1654561698.4453,1654561698.44693,1654561700.54608,1654561703.19707,1654561703.19861,1654561704.44549,1654561704.43086,1654562043.34058,0
127,4,2,3,15,4,4,c4_HowHand,1,both hands?,128,H_027.jpg,1654561436.10542,1654561436.1073,251.043365945816,8.51859402656555,259.57988237381,261.680666437149,0.3,265.882232656479,0.816972017288208,266.700192918777,1,left,0.799584150314331,266.699204673767,604.475168457031,607.235168457031,1654561689.90878,1654561689.91202,1654561698.4453,1654561698.44693,1654561700.54608,1654561704.74765,1654561704.74942,1654561705.56561,1654561705.56462,1654562043.34058,1
127,4,2,3,15,5,4,c4_HowHand,1,both hands?,122,H_111.jpg,1654561436.10542,1654561436.1073,251.043365945816,8.51859402656555,259.57988237381,261.680666437149,0.3,267.015989532471,0.68358850479126,267.700592985153,1,left,0.672112226486206,267.699578037262,604.475168457031,607.235168457031,1654561689.90878,1654561689.91202,1654561698.4453,1654561698.44693,1654561700.54608,1654561705.8814,1654561705.8831,1654561706.56601,1654561706.56499,1654562043.34058,1
127,4,2,3,15,6,4,c4_HowHand,2,both hands?,126,H_159.jpg,1654561436.10542,1654561436.1073,251.043365945816,8.51859402656555,259.57988237381,261.680666437149,0.3,268.016362895966,0.700259685516357,268.730053892136,3,right,0.691601991653442,268.716622581482,604.475168457031,607.235168457031,1654561689.90878,1654561689.91202,1654561698.4453,1654561698.44693,1654561700.54608,1654561706.88178,1654561706.88348,1654561707.59547,1654561707.58204,1654562043.34058,0
127,4,2,3,15,7,4,c4_HowHand,1,both hands?,124,H_581.jpg,1654561436.10542,1654561436.1073,251.043365945816,8.51859402656555,259.57988237381,261.680666437149,0.3,269.033408632278,0.866990089416504,269.902006855011,1,left,0.844860076904297,269.900398721695,604.475168457031,607.235168457031,1654561689.90878,1654561689.91202,1654561698.4453,1654561698.44693,1654561700.54608,1654561707.89882,1654561707.90041,1654561708.76742,1654561708.76581,1654562043.34058,1
127,4,2,3,15,8,4,c4_HowHand,1,both hands?,127,H_349.jpg,1654561436.10542,1654561436.1073,251.043365945816,8.51859402656555,259.57988237381,261.680666437149,0.3,270.217182626724,0.616896629333496,270.835677852631,1,left,0.594922065734863,270.834079256058,604.475168457031,607.235168457031,1654561689.90878,1654561689.91202,1654561698.4453,1654561698.44693,1654561700.54608,1654561709.0826,1654561709.08464,1654561709.70109,1654561709.69949,1654562043.34058,1
127,4,2,3,16,1,2,c2_WhyHand,1,self-protection?,89,H_443.jpg,1654561436.10542,1654561436.1073,270.917443742752,7.43444013595581,278.370224466324,280.471006622314,2.1007821559906,280.621062984467,1.71730923652649,282.353935947418,3,right,1.71270818710327,282.338372220993,604.475168457031,607.235168457031,1654561709.78286,1654561709.78457,1654561717.23564,1654561717.23829,1654561719.33642,1654561719.48648,1654561719.48888,1654561721.21935,1654561721.20379,1654562043.34058,0
127,4,2,3,16,2,2,c2_WhyHand,2,self-protection?,90,H_006.jpg,1654561436.10542,1654561436.1073,270.917443742752,7.43444013595581,278.370224466324,280.471006622314,0.3,282.655155172348,1.40052199363708,284.063984861374,3,right,1.3859429359436,284.055677165985,604.475168457031,607.235168457031,1654561709.78286,1654561709.78457,1654561717.23564,1654561717.23829,1654561719.33642,1654561721.52057,1654561721.52223,1654561722.9294,1654561722.92109,1654562043.34058,0
127,4,2,3,16,3,2,c2_WhyHand,1,self-protection?,91,H_581.jpg,1654561436.10542,1654561436.1073,270.917443742752,7.43444013595581,278.370224466324,280.471006622314,0.3,284.372462501526,1.4171941280365,285.797276010513,3,right,1.40903806686401,285.789656629562,604.475168457031,607.235168457031,1654561709.78286,1654561709.78457,1654561717.23564,1654561717.23829,1654561719.33642,1654561723.23788,1654561723.23916,1654561724.66269,1654561724.65507,1654562043.34058,0
127,4,2,3,16,4,2,c2_WhyHand,2,self-protection?,92,H_532.jpg,1654561436.10542,1654561436.1073,270.917443742752,7.43444013595581,278.370224466324,280.471006622314,0.3,286.106443157196,1.06706380844116,287.180059900284,3,right,1.05968499183655,287.173506965637,604.475168457031,607.235168457031,1654561709.78286,1654561709.78457,1654561717.23564,1654561717.23829,1654561719.33642,1654561724.97186,1654561724.97329,1654561726.04548,1654561726.03892,1654562043.34058,0
127,4,2,3,16,5,2,c2_WhyHand,1,self-protection?,96,H_027.jpg,1654561436.10542,1654561436.1073,270.917443742752,7.43444013595581,278.370224466324,280.471006622314,0.3,287.490291585922,0.80029821395874,288.296554794312,1,left,0.792703866958618,288.290589799881,604.475168457031,607.235168457031,1654561709.78286,1654561709.78457,1654561717.23564,1654561717.23829,1654561719.33642,1654561726.35571,1654561726.35735,1654561727.16197,1654561727.156,1654562043.34058,1
127,4,2,3,16,6,2,c2_WhyHand,1,self-protection?,93,H_038.jpg,1654561436.10542,1654561436.1073,270.917443742752,7.43444013595581,278.370224466324,280.471006622314,0.3,288.607374658585,1.05039095878601,289.659531822205,1,left,1.02725100517273,289.657765617371,604.475168457031,607.235168457031,1654561709.78286,1654561709.78457,1654561717.23564,1654561717.23829,1654561719.33642,1654561727.47279,1654561727.47438,1654561728.52495,1654561728.52318,1654562043.34058,1
127,4,2,3,16,7,2,c2_WhyHand,2,self-protection?,95,H_332.jpg,1654561436.10542,1654561436.1073,270.917443742752,7.43444013595581,278.370224466324,280.471006622314,0.3,289.974550476074,0.917009115219116,290.89728187561,3,right,0.902830839157104,290.891559591293,604.475168457031,607.235168457031,1654561709.78286,1654561709.78457,1654561717.23564,1654561717.23829,1654561719.33642,1654561728.83997,1654561728.8411,1654561729.7627,1654561729.75697,1654562043.34058,0
127,4,2,3,16,8,2,c2_WhyHand,1,self-protection?,94,H_189.jpg,1654561436.10542,1654561436.1073,270.917443742752,7.43444013595581,278.370224466324,280.471006622314,0.3,291.208345165253,0.766951322555542,291.979870786667,1,left,0.760306835174561,291.975296487808,604.475168457031,607.235168457031,1654561709.78286,1654561709.78457,1654561717.23564,1654561717.23829,1654561719.33642,1654561730.07376,1654561730.07544,1654561730.84529,1654561730.84071,1654562043.34058,1
127,4,2,3,17,1,3,c3_HowFace,1,smiling?,118,F_759.jpg,1654561436.10542,1654561436.1073,292.041988601685,7.78996729850769,299.844898691177,301.945682039261,2.1007833480835,302.095737686157,0.466841220855713,302.564095964432,1,left,0.450387954711914,302.562578907013,604.475168457031,607.235168457031,1654561730.9074,1654561730.91249,1654561738.71031,1654561738.71279,1654561740.8111,1654561740.96115,1654561740.96274,1654561741.42951,1654561741.42799,1654562043.34058,1
127,4,2,3,17,2,3,c3_HowFace,2,smiling?,114,F_412.jpg,1654561436.10542,1654561436.1073,292.041988601685,7.78996729850769,299.844898691177,301.945682039261,0.3,302.879363765717,0.550204992294312,303.431196918488,3,right,0.531787157058716,303.429568758011,604.475168457031,607.235168457031,1654561730.9074,1654561730.91249,1654561738.71031,1654561738.71279,1654561740.8111,1654561741.74478,1654561741.7464,1654561742.29661,1654561742.29498,1654562043.34058,0
127,4,2,3,17,3,3,c3_HowFace,1,smiling?,117,F_593.jpg,1654561436.10542,1654561436.1073,292.041988601685,7.78996729850769,299.844898691177,301.945682039261,0.3,303.746353855133,0.833643674850464,304.581776847839,1,left,0.811089038848877,304.579997529984,604.475168457031,607.235168457031,1654561730.9074,1654561730.91249,1654561738.71031,1654561738.71279,1654561740.8111,1654561742.61177,1654561742.61321,1654561743.44719,1654561743.44541,1654562043.34058,1
127,4,2,3,17,4,3,c3_HowFace,2,smiling?,113,F_712.jpg,1654561436.10542,1654561436.1073,292.041988601685,7.78996729850769,299.844898691177,301.945682039261,0.3,304.896782388687,0.850317001342773,305.748092880249,3,right,0.839048862457275,305.74709939003,604.475168457031,607.235168457031,1654561730.9074,1654561730.91249,1654561738.71031,1654561738.71279,1654561740.8111,1654561743.7622,1654561743.76412,1654561744.61351,1654561744.61251,1654562043.34058,0
127,4,2,3,17,5,3,c3_HowFace,1,smiling?,115,F_695.jpg,1654561436.10542,1654561436.1073,292.041988601685,7.78996729850769,299.844898691177,301.945682039261,0.3,306.063884725571,0.566877603530884,306.632467975616,1,left,0.54949688911438,306.630762329102,604.475168457031,607.235168457031,1654561730.9074,1654561730.91249,1654561738.71031,1654561738.71279,1654561740.8111,1654561744.9293,1654561744.93072,1654561745.49788,1654561745.49618,1654562043.34058,1
127,4,2,3,17,6,3,c3_HowFace,1,smiling?,119,F_139.jpg,1654561436.10542,1654561436.1073,292.041988601685,7.78996729850769,299.844898691177,301.945682039261,0.3,306.947547664642,0.533531427383423,307.482703914642,1,left,0.510816097259521,307.481079092026,604.475168457031,607.235168457031,1654561730.9074,1654561730.91249,1654561738.71031,1654561738.71279,1654561740.8111,1654561745.81296,1654561745.81438,1654561746.34812,1654561746.34649,1654562043.34058,1
127,4,2,3,17,7,3,c3_HowFace,1,smiling?,116,F_083.jpg,1654561436.10542,1654561436.1073,292.041988601685,7.78996729850769,299.844898691177,301.945682039261,0.3,307.797864189148,0.483513116836548,308.296604862213,1,left,0.476095914840698,308.281377305985,604.475168457031,607.235168457031,1654561730.9074,1654561730.91249,1654561738.71031,1654561738.71279,1654561740.8111,1654561746.66328,1654561746.66512,1654561747.16202,1654561747.14679,1654562043.34058,1
127,4,2,3,17,8,3,c3_HowFace,2,smiling?,120,F_758.jpg,1654561436.10542,1654561436.1073,292.041988601685,7.78996729850769,299.844898691177,301.945682039261,0.3,308.598162641525,0.933681964874268,309.532848825455,3,right,0.912492990493774,309.5318446064,604.475168457031,607.235168457031,1654561730.9074,1654561730.91249,1654561738.71031,1654561738.71279,1654561740.8111,1654561747.46358,1654561747.46521,1654561748.39826,1654561748.39726,1654562043.34058,0
127,4,2,3,18,1,1,c1_WhyFace,1,admiring?,1,F_593.jpg,1654561436.10542,1654561436.1073,309.598535766602,8.02333402633667,317.634866704941,319.735649576187,2.10078287124634,319.885705461502,0.80029821395874,320.696677913666,1,left,0.793781042098999,320.686003675461,604.475168457031,607.235168457031,1654561748.46395,1654561748.46502,1654561756.50028,1654561756.50193,1654561758.60106,1654561758.75112,1654561758.75281,1654561759.56209,1654561759.55142,1654562043.34058,1
127,4,2,3,18,2,1,c1_WhyFace,2,admiring?,2,F_129.jpg,1654561436.10542,1654561436.1073,309.598535766602,8.02333402633667,317.634866704941,319.735649576187,0.3,321.00278924942,0.917008876800537,321.93063782692,1,left,0.904057025909424,321.919798126221,604.475168457031,607.235168457031,1654561748.46395,1654561748.46502,1654561756.50028,1654561756.50193,1654561758.60106,1654561759.8682,1654561759.86973,1654561760.79605,1654561760.78521,1654562043.34058,0
127,4,2,3,18,3,1,c1_WhyFace,1,admiring?,5,F_759.jpg,1654561436.10542,1654561436.1073,309.598535766602,8.02333402633667,317.634866704941,319.735649576187,0.3,322.236582508087,0.766952276229858,323.004681816101,1,left,0.752444982528687,323.003534784317,604.475168457031,607.235168457031,1654561748.46395,1654561748.46502,1654561756.50028,1654561756.50193,1654561758.60106,1654561761.102,1654561761.10351,1654561761.8701,1654561761.86895,1654562043.34058,1
127,4,2,3,18,4,1,c1_WhyFace,2,admiring?,6,F_692.jpg,1654561436.10542,1654561436.1073,309.598535766602,8.02333402633667,317.634866704941,319.735649576187,0.3,323.320319166183,1.03371953964233,324.364089002609,1,left,1.02200293540955,324.354038705826,604.475168457031,607.235168457031,1654561748.46395,1654561748.46502,1654561756.50028,1654561756.50193,1654561758.60106,1654561762.18573,1654561762.18736,1654561763.2295,1654561763.21945,1654562043.34058,0
127,4,2,3,18,5,1,c1_WhyFace,1,admiring?,4,F_779.jpg,1654561436.10542,1654561436.1073,309.598535766602,8.02333402633667,317.634866704941,319.735649576187,0.3,324.670823802948,0.833643674850464,325.513404836655,1,left,0.825296878814697,325.504467477798,604.475168457031,607.235168457031,1654561748.46395,1654561748.46502,1654561756.50028,1654561756.50193,1654561758.60106,1654561763.53624,1654561763.53796,1654561764.37882,1654561764.36988,1654562043.34058,1
127,4,2,3,18,6,1,c1_WhyFace,1,admiring?,8,F_590.jpg,1654561436.10542,1654561436.1073,309.598535766602,8.02333402633667,317.634866704941,319.735649576187,0.3,325.821252574921,0.917007684707642,326.739935865402,1,left,0.896335124969482,326.738260259628,604.475168457031,607.235168457031,1654561748.46395,1654561748.46502,1654561756.50028,1654561756.50193,1654561758.60106,1654561764.68667,1654561764.68881,1654561765.60535,1654561765.60368,1654562043.34058,1
127,4,2,3,18,7,1,c1_WhyFace,1,admiring?,7,F_648.jpg,1654561436.10542,1654561436.1073,309.598535766602,8.02333402633667,317.634866704941,319.735649576187,0.3,327.055045595169,0.917008399963379,327.980689992905,3,right,0.901617050170898,327.972053995132,604.475168457031,607.235168457031,1654561748.46395,1654561748.46502,1654561756.50028,1654561756.50193,1654561758.60106,1654561765.92046,1654561765.9219,1654561766.84611,1654561766.83747,1654562043.34058,0
127,4,2,3,18,8,1,c1_WhyFace,2,admiring?,3,F_110.jpg,1654561436.10542,1654561436.1073,309.598535766602,8.02333402633667,317.634866704941,319.735649576187,0.3,328.28883813858,0.933682680130005,329.229926815033,3,right,0.921063899993896,329.22252081871,604.475168457031,607.235168457031,1654561748.46395,1654561748.46502,1654561756.50028,1654561756.50193,1654561758.60106,1654561767.15425,1654561767.15623,1654561768.09534,1654561768.08794,1654562043.34058,0
127,4,2,3,19,1,2,c2_WhyHand,1,competing?,9,H_261.jpg,1654561436.10542,1654561436.1073,329.305884590149,6.20606827735901,335.524871101379,337.6256549263,2.10078382492065,337.775711288452,0.633569240570068,338.413649787903,1,left,0.617343902587891,338.409280529022,604.475168457031,607.235168457031,1654561768.1713,1654561768.17321,1654561774.39029,1654561774.39597,1654561776.49107,1654561776.64113,1654561776.64609,1654561777.27906,1654561777.2747,1654562043.34058,1
127,4,2,3,19,2,2,c2_WhyHand,1,competing?,15,H_170.jpg,1654561436.10542,1654561436.1073,329.305884590149,6.20606827735901,335.524871101379,337.6256549263,0.3,338.726065149307,0.533531904220581,339.263252010345,1,left,0.52062201499939,339.259597053528,604.475168457031,607.235168457031,1654561768.1713,1654561768.17321,1654561774.39029,1654561774.39597,1654561776.49107,1654561777.59148,1654561777.59566,1654561778.12867,1654561778.12501,1654562043.34058,1
127,4,2,3,19,3,2,c2_WhyHand,2,competing?,12,H_483.jpg,1654561436.10542,1654561436.1073,329.305884590149,6.20606827735901,335.524871101379,337.6256549263,0.3,339.576382389069,0.78362512588501,340.3638758564,3,right,0.760284900665283,340.360007514954,604.475168457031,607.235168457031,1654561768.1713,1654561768.17321,1654561774.39029,1654561774.39597,1654561776.49107,1654561778.4418,1654561778.44592,1654561779.22929,1654561779.22542,1654562043.34058,0
127,4,2,3,19,4,2,c2_WhyHand,1,competing?,14,H_132.jpg,1654561436.10542,1654561436.1073,329.305884590149,6.20606827735901,335.524871101379,337.6256549263,0.3,340.676792612076,0.566877365112305,341.247100820541,1,left,0.547738075256348,341.243669977188,604.475168457031,607.235168457031,1654561768.1713,1654561768.17321,1654561774.39029,1654561774.39597,1654561776.49107,1654561779.54221,1654561779.54618,1654561780.11252,1654561780.10909,1654562043.34058,1
127,4,2,3,19,5,2,c2_WhyHand,1,competing?,16,H_136.jpg,1654561436.10542,1654561436.1073,329.305884590149,6.20606827735901,335.524871101379,337.6256549263,0.3,341.560455551147,0.63356876373291,342.196633806229,1,left,0.617134094238281,342.19402431488,604.475168457031,607.235168457031,1654561768.1713,1654561768.17321,1654561774.39029,1654561774.39597,1654561776.49107,1654561780.42587,1654561780.42934,1654561781.06205,1654561781.05944,1654562043.34058,1
127,4,2,3,19,6,2,c2_WhyHand,1,competing?,13,H_003.jpg,1654561436.10542,1654561436.1073,329.305884590149,6.20606827735901,335.524871101379,337.6256549263,0.3,342.510809650421,0.616895914077759,343.130684843063,1,left,0.596250057220459,343.127705564499,604.475168457031,607.235168457031,1654561768.1713,1654561768.17321,1654561774.39029,1654561774.39597,1654561776.49107,1654561781.37622,1654561781.3791,1654561781.9961,1654561781.99312,1654562043.34058,1
127,4,2,3,19,7,2,c2_WhyHand,2,competing?,10,H_126.jpg,1654561436.10542,1654561436.1073,329.305884590149,6.20606827735901,335.524871101379,337.6256549263,0.3,343.444490661621,0.866990566253662,344.313289871216,3,right,0.847005128860474,344.311481227875,604.475168457031,607.235168457031,1654561768.1713,1654561768.17321,1654561774.39029,1654561774.39597,1654561776.49107,1654561782.30991,1654561782.31271,1654561783.1787,1654561783.1769,1654562043.34058,0
127,4,2,3,19,8,2,c2_WhyHand,2,competing?,11,H_502.jpg,1654561436.10542,1654561436.1073,329.305884590149,6.20606827735901,335.524871101379,337.6256549263,0.3,344.628265132904,1.08373880386353,345.713970890045,3,right,1.0606529712677,345.712003936768,604.475168457031,607.235168457031,1654561768.1713,1654561768.17321,1654561774.39029,1654561774.39597,1654561776.49107,1654561783.49368,1654561783.49631,1654561784.57939,1654561784.57742,1654562043.34058,0
127,4,2,3,20,1,4,c4_HowHand,1,reaching?,111,H_003.jpg,1654561436.10542,1654561436.1073,345.795367946625,11.1965289115906,356.999546041489,359.100329627991,2.10078358650208,359.250385751724,1.00037264823914,360.252450933456,1,left,0.987339973449707,360.250758399963,604.475168457031,607.235168457031,1654561784.66078,1654561784.66255,1654561795.86496,1654561795.86682,1654561797.96574,1654561798.1158,1654561798.11762,1654561799.11787,1654561799.11617,1654562043.34058,1
127,4,2,3,20,2,4,c4_HowHand,1,reaching?,110,H_364.jpg,1654561436.10542,1654561436.1073,345.795367946625,11.1965289115906,356.999546041489,359.100329627991,0.3,360.567543735504,0.800297737121582,361.368852844238,1,left,0.781691074371338,361.367841472626,604.475168457031,607.235168457031,1654561784.66078,1654561784.66255,1654561795.86496,1654561795.86682,1654561797.96574,1654561799.43296,1654561799.43483,1654561800.23427,1654561800.23326,1654562043.34058,1
127,4,2,3,20,3,4,c4_HowHand,2,reaching?,108,H_532.jpg,1654561436.10542,1654561436.1073,345.795367946625,11.1965289115906,356.999546041489,359.100329627991,0.3,361.684626569748,0.883663654327393,362.580619802475,3,right,0.87259316444397,362.568290224075,604.475168457031,607.235168457031,1654561784.66078,1654561784.66255,1654561795.86496,1654561795.86682,1654561797.96574,1654561800.55004,1654561800.55247,1654561801.44603,1654561801.43371,1654562043.34058,0
127,4,2,3,20,4,4,c4_HowHand,1,reaching?,106,H_006.jpg,1654561436.10542,1654561436.1073,345.795367946625,11.1965289115906,356.999546041489,359.100329627991,0.3,362.885073413849,0.950355291366577,363.836530914307,1,left,0.933904886245728,363.835428705215,604.475168457031,607.235168457031,1654561784.66078,1654561784.66255,1654561795.86496,1654561795.86682,1654561797.96574,1654561801.75049,1654561801.7523,1654561802.70195,1654561802.70084,1654562043.34058,1
127,4,2,3,20,5,4,c4_HowHand,2,reaching?,105,H_438.jpg,1654561436.10542,1654561436.1073,345.795367946625,11.1965289115906,356.999546041489,359.100329627991,0.3,364.152214040756,1.18377447128296,365.347249975204,3,right,1.17197489738464,365.335988512039,604.475168457031,607.235168457031,1654561784.66078,1654561784.66255,1654561795.86496,1654561795.86682,1654561797.96574,1654561803.01763,1654561803.01925,1654561804.21267,1654561804.2014,1654562043.34058,0
127,4,2,3,20,6,4,c4_HowHand,1,reaching?,107,H_007.jpg,1654561436.10542,1654561436.1073,345.795367946625,11.1965289115906,356.999546041489,359.100329627991,0.3,365.652773132324,0.967027187347412,366.630749931335,1,left,0.955873012542725,366.619800319672,604.475168457031,607.235168457031,1654561784.66078,1654561784.66255,1654561795.86496,1654561795.86682,1654561797.96574,1654561804.51819,1654561804.51952,1654561805.49617,1654561805.48522,1654562043.34058,1
127,4,2,3,20,7,4,c4_HowHand,1,reaching?,109,H_474.jpg,1654561436.10542,1654561436.1073,345.795367946625,11.1965289115906,356.999546041489,359.100329627991,0.3,366.936585655212,0.900335311889648,367.847409954071,1,left,0.888814926147461,367.836920967102,604.475168457031,607.235168457031,1654561784.66078,1654561784.66255,1654561795.86496,1654561795.86682,1654561797.96574,1654561805.802,1654561805.80381,1654561806.71283,1654561806.70234,1654562043.34058,1
127,4,2,3,20,8,4,c4_HowHand,2,reaching?,112,H_132.jpg,1654561436.10542,1654561436.1073,345.795367946625,11.1965289115906,356.999546041489,359.100329627991,0.3,368.153705825806,0.866990327835083,369.029927005768,3,right,0.855007171630859,369.020696153641,604.475168457031,607.235168457031,1654561784.66078,1654561784.66255,1654561795.86496,1654561795.86682,1654561797.96574,1654561807.01912,1654561807.02096,1654561807.89534,1654561807.88611,1654562043.34058,0
127,4,2,3,21,1,3,c3_HowFace,1,open mouth?,73,F_403.jpg,1654561436.10542,1654561436.1073,369.104060640335,5.72782325744629,374.839532842636,376.940316905975,2.10078406333923,377.090371837616,0.633570432662964,377.725388994217,1,left,0.606848001480103,377.723942270279,604.475168457031,607.235168457031,1654561807.96948,1654561807.9711,1654561813.70495,1654561813.71281,1654561815.80573,1654561815.95579,1654561815.9628,1654561816.5908,1654561816.58936,1654562043.34058,1
127,4,2,3,21,2,3,c3_HowFace,2,open mouth?,79,F_648.jpg,1654561436.10542,1654561436.1073,369.104060640335,5.72782325744629,374.839532842636,376.940316905975,0.3,378.040726652145,0.533531904220581,378.576171865463,3,right,0.513562917709351,378.574258556366,604.475168457031,607.235168457031,1654561807.96948,1654561807.9711,1654561813.70495,1654561813.71281,1654561815.80573,1654561816.90614,1654561816.90778,1654561817.44159,1654561817.43967,1654562043.34058,0
127,4,2,3,21,3,3,c3_HowFace,1,open mouth?,74,F_776.jpg,1654561436.10542,1654561436.1073,369.104060640335,5.72782325744629,374.839532842636,376.940316905975,0.3,378.891042938232,0.483513832092285,379.380092849731,1,left,0.470931053161621,379.374556770325,604.475168457031,607.235168457031,1654561807.96948,1654561807.9711,1654561813.70495,1654561813.71281,1654561815.80573,1654561817.75646,1654561817.75812,1654561818.24551,1654561818.23997,1654562043.34058,1
127,4,2,3,21,4,3,c3_HowFace,2,open mouth?,77,F_584.jpg,1654561436.10542,1654561436.1073,369.104060640335,5.72782325744629,374.839532842636,376.940316905975,0.3,379.691340913773,0.500186920166016,380.196661939621,3,right,0.491534948348999,380.191527833939,604.475168457031,607.235168457031,1654561807.96948,1654561807.9711,1654561813.70495,1654561813.71281,1654561815.80573,1654561818.55676,1654561818.55832,1654561819.06208,1654561819.05694,1654562043.34058,0
127,4,2,3,21,5,3,c3_HowFace,1,open mouth?,80,F_844.jpg,1654561436.10542,1654561436.1073,369.104060640335,5.72782325744629,374.839532842636,376.940316905975,0.3,380.508313884735,0.483512878417969,380.996644964218,1,left,0.476747989654541,380.991826763153,604.475168457031,607.235168457031,1654561807.96948,1654561807.9711,1654561813.70495,1654561813.71281,1654561815.80573,1654561819.37373,1654561819.37552,1654561819.86206,1654561819.85724,1654562043.34058,1
127,4,2,3,21,6,3,c3_HowFace,1,open mouth?,78,F_692.jpg,1654561436.10542,1654561436.1073,369.104060640335,5.72782325744629,374.839532842636,376.940316905975,0.3,381.308611860275,0.466840982437134,381.780393829346,1,left,0.449706077575684,381.775452842712,604.475168457031,607.235168457031,1654561807.96948,1654561807.9711,1654561813.70495,1654561813.71281,1654561815.80573,1654561820.17403,1654561820.1794,1654561820.64581,1654561820.64087,1654562043.34058,1
127,4,2,3,21,7,3,c3_HowFace,1,open mouth?,75,F_086.jpg,1654561436.10542,1654561436.1073,369.104060640335,5.72782325744629,374.839532842636,376.940316905975,0.3,382.092236509323,0.500187158584595,382.59706281662,1,left,0.490158796310425,382.592423667908,604.475168457031,607.235168457031,1654561807.96948,1654561807.9711,1654561813.70495,1654561813.71281,1654561815.80573,1654561820.95765,1654561820.95925,1654561821.46248,1654561821.45784,1654562043.34058,1
127,4,2,3,21,8,3,c3_HowFace,2,open mouth?,76,F_544.jpg,1654561436.10542,1654561436.1073,369.104060640335,5.72782325744629,374.839532842636,376.940316905975,0.3,382.909209480286,0.666913747787476,383.580290784836,3,right,0.649456024169922,383.576123228073,604.475168457031,607.235168457031,1654561807.96948,1654561807.9711,1654561813.70495,1654561813.71281,1654561815.80573,1654561821.77462,1654561821.77927,1654561822.44571,1654561822.44154,1654562043.34058,0
127,4,2,3,22,1,1,c1_WhyFace,1,argument?,42,F_403.jpg,1654561436.10542,1654561436.1073,383.65948890686,9.84839987754822,393.51316236496,395.613946666718,2.10078430175781,395.764001598358,0.500187397003174,396.265177001953,1,left,0.486081123352051,396.264188995361,604.475168457031,607.235168457031,1654561822.5249,1654561822.52949,1654561832.37858,1654561832.38035,1654561834.47936,1654561834.62942,1654561834.6311,1654561835.13059,1654561835.1296,1654562043.34058,1
127,4,2,3,22,2,1,c1_WhyFace,2,argument?,46,F_844.jpg,1654561436.10542,1654561436.1073,383.65948890686,9.84839987754822,393.51316236496,395.613946666718,0.3,396.580973615646,0.733606338500977,397.315989961624,3,right,0.724130153656006,397.314579954147,604.475168457031,607.235168457031,1654561822.5249,1654561822.52949,1654561832.37858,1654561832.38035,1654561834.47936,1654561835.44639,1654561835.44793,1654561836.18141,1654561836.18,1654562043.34058,0
127,4,2,3,22,3,1,c1_WhyFace,1,argument?,41,F_712.jpg,1654561436.10542,1654561436.1073,383.65948890686,9.84839987754822,393.51316236496,395.613946666718,0.3,397.631365289688,0.583551406860352,398.216792812347,1,left,0.570835113525391,398.214916696548,604.475168457031,607.235168457031,1654561822.5249,1654561822.52949,1654561832.37858,1654561832.38035,1654561834.47936,1654561836.49678,1654561836.49868,1654561837.08221,1654561837.08033,1654562043.34058,1
127,4,2,3,22,4,1,c1_WhyFace,1,argument?,48,F_758.jpg,1654561436.10542,1654561436.1073,383.65948890686,9.84839987754822,393.51316236496,395.613946666718,0.3,398.531700601578,0.816972255706787,399.349692811966,1,left,0.803249835968018,399.348672857285,604.475168457031,607.235168457031,1654561822.5249,1654561822.52949,1654561832.37858,1654561832.38035,1654561834.47936,1654561837.39712,1654561837.39839,1654561838.21511,1654561838.21409,1654562043.34058,1
127,4,2,3,22,5,1,c1_WhyFace,2,argument?,45,F_433.jpg,1654561436.10542,1654561436.1073,383.65948890686,9.84839987754822,393.51316236496,395.613946666718,0.3,399.665457954407,0.950353622436523,400.616734972,3,right,0.940533876419067,400.615811576843,604.475168457031,607.235168457031,1654561822.5249,1654561822.52949,1654561832.37858,1654561832.38035,1654561834.47936,1654561838.53087,1654561838.53216,1654561839.48215,1654561839.48123,1654562043.34058,0
127,4,2,3,22,6,1,c1_WhyFace,1,argument?,43,F_716.jpg,1654561436.10542,1654561436.1073,383.65948890686,9.84839987754822,393.51316236496,395.613946666718,0.3,400.932596435547,0.683588027954102,401.617713918686,1,left,0.66936993598938,401.616184463501,604.475168457031,607.235168457031,1654561822.5249,1654561822.52949,1654561832.37858,1654561832.38035,1654561834.47936,1654561839.79801,1654561839.79984,1654561840.48313,1654561840.4816,1654562043.34058,1
127,4,2,3,22,7,1,c1_WhyFace,2,argument?,44,F_139.jpg,1654561436.10542,1654561436.1073,383.65948890686,9.84839987754822,393.51316236496,395.613946666718,0.3,401.932970275879,1.0003719329834,402.934366931915,3,right,0.988170146942139,402.933342208862,604.475168457031,607.235168457031,1654561822.5249,1654561822.52949,1654561832.37858,1654561832.38035,1654561834.47936,1654561840.79839,1654561840.80017,1654561841.79978,1654561841.79876,1654562043.34058,0
127,4,2,3,22,8,1,c1_WhyFace,1,argument?,47,F_743.jpg,1654561436.10542,1654561436.1073,383.65948890686,9.84839987754822,393.51316236496,395.613946666718,0.3,403.250127782822,0.600224018096924,403.851406803131,1,left,0.58158016204834,403.850351800919,604.475168457031,607.235168457031,1654561822.5249,1654561822.52949,1654561832.37858,1654561832.38035,1654561834.47936,1654561842.11554,1654561842.11746,1654561842.71682,1654561842.71577,1654562043.34058,1
127,4,2,3,23,1,2,c2_WhyHand,1,helping?,39,H_024.jpg,1654561436.10542,1654561436.1073,403.933715810776,7.79414796829224,411.736624231339,413.837408294678,2.10078406333923,413.987464418411,0.983700037002563,414.972571840286,3,right,0.953926086425781,414.971164455414,604.475168457031,607.235168457031,1654561842.79913,1654561842.81203,1654561850.60204,1654561850.6131,1654561852.70282,1654561852.85288,1654561852.86246,1654561853.83799,1654561853.83658,1654562043.34058,0
127,4,2,3,23,2,2,c2_WhyHand,1,helping?,36,H_349.jpg,1654561436.10542,1654561436.1073,403.933715810776,7.79414796829224,411.736624231339,413.837408294678,0.3,415.287949790955,0.550204992294312,415.846818914413,1,left,0.533936023712158,415.838154783249,604.475168457031,607.235168457031,1654561842.79913,1654561842.81203,1654561850.60204,1654561850.6131,1654561852.70282,1654561854.15336,1654561854.15511,1654561854.71223,1654561854.70357,1654562043.34058,1
127,4,2,3,23,3,2,c2_WhyHand,1,helping?,38,H_077.jpg,1654561436.10542,1654561436.1073,403.933715810776,7.79414796829224,411.736624231339,413.837408294678,0.3,416.154939641953,0.68358850479126,416.846644868851,1,left,0.670094966888428,416.838528146744,604.475168457031,607.235168457031,1654561842.79913,1654561842.81203,1654561850.60204,1654561850.6131,1654561852.70282,1654561855.02035,1654561855.02212,1654561855.71206,1654561855.70394,1654562043.34058,1
127,4,2,3,23,4,2,c2_WhyHand,1,helping?,37,H_474.jpg,1654561436.10542,1654561436.1073,403.933715810776,7.79414796829224,411.736624231339,413.837408294678,0.3,417.15531252861,0.700260877609253,417.857137908936,1,left,0.682780027389526,417.855573406219,604.475168457031,607.235168457031,1654561842.79913,1654561842.81203,1654561850.60204,1654561850.6131,1654561852.70282,1654561856.02073,1654561856.02242,1654561856.72255,1654561856.72099,1654562043.34058,1
127,4,2,3,23,5,2,c2_WhyHand,2,helping?,33,H_091.jpg,1654561436.10542,1654561436.1073,403.933715810776,7.79414796829224,411.736624231339,413.837408294678,0.3,418.172358980179,0.800297498703003,418.980289926529,3,right,0.789815902709961,418.972656478882,604.475168457031,607.235168457031,1654561842.79913,1654561842.81203,1654561850.60204,1654561850.6131,1654561852.70282,1654561857.03777,1654561857.0395,1654561857.84571,1654561857.83807,1654562043.34058,0
127,4,2,3,23,6,2,c2_WhyHand,2,helping?,35,H_159.jpg,1654561436.10542,1654561436.1073,403.933715810776,7.79414796829224,411.736624231339,413.837408294678,0.3,419.289443244934,0.666914463043213,419.957924833298,3,right,0.648237943649292,419.956357707977,604.475168457031,607.235168457031,1654561842.79913,1654561842.81203,1654561850.60204,1654561850.6131,1654561852.70282,1654561858.15486,1654561858.15711,1654561858.82334,1654561858.82177,1654562043.34058,0
127,4,2,3,23,7,2,c2_WhyHand,1,helping?,34,H_111.jpg,1654561436.10542,1654561436.1073,403.933715810776,7.79414796829224,411.736624231339,413.837408294678,0.3,420.273142805099,0.65024209022522,420.925072898865,1,left,0.631444931030273,420.923384895325,604.475168457031,607.235168457031,1654561842.79913,1654561842.81203,1654561850.60204,1654561850.6131,1654561852.70282,1654561859.13856,1654561859.14021,1654561859.79049,1654561859.7888,1654562043.34058,1
127,4,2,3,23,8,2,c2_WhyHand,2,helping?,40,H_012.jpg,1654561436.10542,1654561436.1073,403.933715810776,7.79414796829224,411.736624231339,413.837408294678,0.3,421.24016951561,0.783626317977905,422.030638923645,3,right,0.775911092758179,422.023795833588,604.475168457031,607.235168457031,1654561842.79913,1654561842.81203,1654561850.60204,1654561850.6131,1654561852.70282,1654561860.10558,1654561860.10728,1654561860.89605,1654561860.88921,1654562043.34058,0
127,4,2,3,24,1,4,c4_HowHand,1,both hands?,122,H_111.jpg,1654561436.10542,1654561436.1073,422.107159128189,7.69072985649109,429.810031881332,431.910815944672,2.10078406333923,432.060871591568,0.633569478988647,432.696727981567,1,left,0.610758066177368,432.694441070557,604.475168457031,607.235168457031,1654561860.97257,1654561860.97938,1654561868.67545,1654561868.67928,1654561870.77623,1654561870.92629,1654561870.92921,1654561871.56214,1654561871.55986,1654562043.34058,1
127,4,2,3,24,2,4,c4_HowHand,1,both hands?,128,H_027.jpg,1654561436.10542,1654561436.1073,422.107159128189,7.69072985649109,429.810031881332,431.910815944672,0.3,433.01122592926,0.633569717407227,433.646563997269,1,left,0.625364065170288,433.644795646667,604.475168457031,607.235168457031,1654561860.97257,1654561860.97938,1654561868.67545,1654561868.67928,1654561870.77623,1654561871.87664,1654561871.87931,1654561872.51198,1654561872.51021,1654562043.34058,1
127,4,2,3,24,3,4,c4_HowHand,2,both hands?,121,H_091.jpg,1654561436.10542,1654561436.1073,422.107159128189,7.69072985649109,429.810031881332,431.910815944672,0.3,433.961580266953,0.700260877609253,434.663295974731,3,right,0.685640096664429,434.661841144562,604.475168457031,607.235168457031,1654561860.97257,1654561860.97938,1654561868.67545,1654561868.67928,1654561870.77623,1654561872.827,1654561872.82929,1654561873.52871,1654561873.52726,1654562043.34058,0
127,4,2,3,24,4,4,c4_HowHand,1,both hands?,123,H_167.jpg,1654561436.10542,1654561436.1073,422.107159128189,7.69072985649109,429.810031881332,431.910815944672,0.3,434.978626718521,0.666914939880371,435.646710863113,1,left,0.648030042648315,435.645541658401,604.475168457031,607.235168457031,1654561860.97257,1654561860.97938,1654561868.67545,1654561868.67928,1654561870.77623,1654561873.84404,1654561873.84579,1654561874.51213,1654561874.51096,1654562043.34058,1
127,4,2,3,24,5,4,c4_HowHand,1,both hands?,124,H_581.jpg,1654561436.10542,1654561436.1073,422.107159128189,7.69072985649109,429.810031881332,431.910815944672,0.3,435.962326993942,0.800297975540161,436.764278879166,1,left,0.780555009841919,436.762624969482,604.475168457031,607.235168457031,1654561860.97257,1654561860.97938,1654561868.67545,1654561868.67928,1654561870.77623,1654561874.82774,1654561874.82959,1654561875.62969,1654561875.62804,1654562043.34058,1
127,4,2,3,24,6,4,c4_HowHand,2,both hands?,126,H_159.jpg,1654561436.10542,1654561436.1073,422.107159128189,7.69072985649109,429.810031881332,431.910815944672,0.3,437.079409828186,0.733606815338135,437.814576854706,3,right,0.713195085525513,437.813016643524,604.475168457031,607.235168457031,1654561860.97257,1654561860.97938,1654561868.67545,1654561868.67928,1654561870.77623,1654561875.94482,1654561875.94669,1654561876.67999,1654561876.67843,1654562043.34058,0
127,4,2,3,24,7,4,c4_HowHand,1,both hands?,127,H_349.jpg,1654561436.10542,1654561436.1073,422.107159128189,7.69072985649109,429.810031881332,431.910815944672,0.3,438.129801740646,0.500185966491699,438.631043901443,1,left,0.489048004150391,438.629987707138,604.475168457031,607.235168457031,1654561860.97257,1654561860.97938,1654561868.67545,1654561868.67928,1654561870.77623,1654561876.99522,1654561876.99684,1654561877.49646,1654561877.4954,1654562043.34058,1
127,4,2,3,24,8,4,c4_HowHand,2,both hands?,125,H_627.jpg,1654561436.10542,1654561436.1073,422.107159128189,7.69072985649109,429.810031881332,431.910815944672,0.3,438.946773042679,0.600229740142822,439.563343992233,3,right,0.593927145004272,439.547002782822,604.475168457031,607.235168457031,1654561860.97257,1654561860.97938,1654561868.67545,1654561868.67928,1654561870.77623,1654561877.81219,1654561877.81378,1654561878.42876,1654561878.41242,1654562043.34058,0
127,4,2,3,25,1,2,c2_WhyHand,1,healthy?,18,H_438.jpg,1654561436.10542,1654561436.1073,439.630361070633,7.68462681770325,447.333233585358,449.417344083786,2.08411049842834,449.584072818756,1.13375663757324,450.730590810776,1,left,1.12301921844482,450.717829456329,604.475168457031,607.235168457031,1654561878.49578,1654561878.51204,1654561886.19865,1654561886.20053,1654561888.28276,1654561888.44949,1654561888.45109,1654561889.59601,1654561889.58324,1654562043.34058,1
127,4,2,3,25,2,2,c2_WhyHand,1,healthy?,23,H_364.jpg,1654561436.10542,1654561436.1073,439.630361070633,7.68462681770325,447.333233585358,449.417344083786,0.3,451.034613361359,0.850317239761353,451.897333850861,1,left,0.840349912643433,451.88493060112,604.475168457031,607.235168457031,1654561878.49578,1654561878.51204,1654561886.19865,1654561886.20053,1654561888.28276,1654561889.90003,1654561889.90173,1654561890.76275,1654561890.75035,1654562043.34058,1
127,4,2,3,25,3,2,c2_WhyHand,1,healthy?,17,H_362.jpg,1654561436.10542,1654561436.1073,439.630361070633,7.68462681770325,447.333233585358,449.417344083786,0.3,452.201715459824,1.21711921691895,453.430313816071,1,left,1.20868492126465,453.418834676743,604.475168457031,607.235168457031,1654561878.49578,1654561878.51204,1654561886.19865,1654561886.20053,1654561888.28276,1654561891.06713,1654561891.06912,1654561892.29573,1654561892.28425,1654562043.34058,1
127,4,2,3,25,4,2,c2_WhyHand,2,healthy?,24,H_019.jpg,1654561436.10542,1654561436.1073,439.630361070633,7.68462681770325,447.333233585358,449.417344083786,0.3,453.735620965958,0.783625841140747,454.520953884125,3,right,0.762761116027832,454.519246807098,604.475168457031,607.235168457031,1654561878.49578,1654561878.51204,1654561886.19865,1654561886.20053,1654561888.28276,1654561892.60104,1654561892.60267,1654561893.38637,1654561893.38466,1654562043.34058,0
127,4,2,3,25,5,2,c2_WhyHand,1,healthy?,19,H_167.jpg,1654561436.10542,1654561436.1073,439.630361070633,7.68462681770325,447.333233585358,449.417344083786,0.3,454.836032142639,0.783622980117798,455.630158891678,1,left,0.774959087371826,455.619655122757,604.475168457031,607.235168457031,1654561878.49578,1654561878.51204,1654561886.19865,1654561886.20053,1654561888.28276,1654561893.70145,1654561893.70313,1654561894.49557,1654561894.48507,1654562043.34058,1
127,4,2,3,25,6,2,c2_WhyHand,2,healthy?,20,H_007.jpg,1654561436.10542,1654561436.1073,439.630361070633,7.68462681770325,447.333233585358,449.417344083786,0.3,455.936441888809,0.900336027145386,456.846616973877,3,right,0.886896133422852,456.836777915955,604.475168457031,607.235168457031,1654561878.49578,1654561878.51204,1654561886.19865,1654561886.20053,1654561888.28276,1654561894.80186,1654561894.80328,1654561895.71203,1654561895.70219,1654562043.34058,0
127,4,2,3,25,7,2,c2_WhyHand,1,healthy?,21,H_627.jpg,1654561436.10542,1654561436.1073,439.630361070633,7.68462681770325,447.333233585358,449.417344083786,0.3,457.15356253624,0.983700037002563,458.138313999176,1,left,0.967055082321167,458.137262573242,604.475168457031,607.235168457031,1654561878.49578,1654561878.51204,1654561886.19865,1654561886.20053,1654561888.28276,1654561896.01898,1654561896.02092,1654561897.00373,1654561897.00268,1654562043.34058,1
127,4,2,3,25,8,2,c2_WhyHand,2,healthy?,22,H_130.jpg,1654561436.10542,1654561436.1073,439.630361070633,7.68462681770325,447.333233585358,449.417344083786,0.3,458.454047670364,0.766952991485596,459.230127801895,3,right,0.754591941833496,459.22100066185,604.475168457031,607.235168457031,1654561878.49578,1654561878.51204,1654561886.19865,1654561886.20053,1654561888.28276,1654561897.31946,1654561897.32116,1654561898.09554,1654561898.08642,1654562043.34058,0
127,4,2,3,26,1,4,c4_HowHand,1,pressing button?,82,H_126.jpg,1654561436.10542,1654561436.1073,459.304363956451,7.06459403038025,466.373667230606,468.474450817108,2.10078358650208,468.624506464005,0.583550930023193,469.209504833221,1,left,0.558716058731079,469.208057394028,604.475168457031,607.235168457031,1654561898.16978,1654561898.17925,1654561905.23908,1654561905.24598,1654561907.33987,1654561907.48992,1654561907.49653,1654561908.07492,1654561908.07347,1654562043.34058,1
127,4,2,3,26,2,4,c4_HowHand,2,pressing button?,85,H_130.jpg,1654561436.10542,1654561436.1073,459.304363956451,7.06459403038025,466.373667230606,468.474450817108,0.3,469.524842967987,0.666914701461792,470.197104921341,3,right,0.653424978256226,470.191757669449,604.475168457031,607.235168457031,1654561898.16978,1654561898.17925,1654561905.23908,1654561905.24598,1654561907.33987,1654561908.39026,1654561908.39219,1654561909.06252,1654561909.05717,1654562043.34058,0
127,4,2,3,26,3,4,c4_HowHand,1,pressing button?,84,H_483.jpg,1654561436.10542,1654561436.1073,459.304363956451,7.06459403038025,466.373667230606,468.474450817108,0.3,470.50854300499,0.650241374969482,471.163771858215,1,left,0.640177965164185,471.158784379959,604.475168457031,607.235168457031,1654561898.16978,1654561898.17925,1654561905.23908,1654561905.24598,1654561907.33987,1654561909.37396,1654561909.37553,1654561910.02919,1654561910.0242,1654562043.34058,1
127,4,2,3,26,4,4,c4_HowHand,2,pressing button?,87,H_024.jpg,1654561436.10542,1654561436.1073,459.304363956451,7.06459403038025,466.373667230606,468.474450817108,0.3,471.475569477081,0.750279903411865,472.230702867508,3,right,0.73221492767334,472.225849380493,604.475168457031,607.235168457031,1654561898.16978,1654561898.17925,1654561905.23908,1654561905.24598,1654561907.33987,1654561910.34098,1654561910.34327,1654561911.09612,1654561911.09126,1654562043.34058,0
127,4,2,3,26,5,4,c4_HowHand,1,pressing button?,86,H_332.jpg,1654561436.10542,1654561436.1073,459.304363956451,7.06459403038025,466.373667230606,468.474450817108,0.3,472.542634954453,0.483514070510864,473.03052901268,1,left,0.469111204147339,473.026149024963,604.475168457031,607.235168457031,1654561898.16978,1654561898.17925,1654561905.23908,1654561905.24598,1654561907.33987,1654561911.40805,1654561911.41283,1654561911.89594,1654561911.89156,1654562043.34058,1
127,4,2,3,26,6,4,c4_HowHand,1,pressing button?,88,H_019.jpg,1654561436.10542,1654561436.1073,459.304363956451,7.06459403038025,466.373667230606,468.474450817108,0.3,473.342933645248,0.533532381057739,473.880285968781,1,left,0.515074014663696,473.876466026306,604.475168457031,607.235168457031,1654561898.16978,1654561898.17925,1654561905.23908,1654561905.24598,1654561907.33987,1654561912.20835,1654561912.2128,1654561912.7457,1654561912.74188,1654562043.34058,1
127,4,2,3,26,7,4,c4_HowHand,2,pressing button?,81,H_261.jpg,1654561436.10542,1654561436.1073,459.304363956451,7.06459403038025,466.373667230606,468.474450817108,0.3,474.193250646591,0.700260877609253,474.897334804535,3,right,0.690498113632202,474.8935115242,604.475168457031,607.235168457031,1654561898.16978,1654561898.17925,1654561905.23908,1654561905.24598,1654561907.33987,1654561913.05867,1654561913.06264,1654561913.76275,1654561913.75893,1654562043.34058,0
127,4,2,3,26,8,4,c4_HowHand,1,pressing button?,83,H_502.jpg,1654561436.10542,1654561436.1073,459.304363956451,7.06459403038025,466.373667230606,468.474450817108,0.3,475.210294713974,0.583551645278931,475.796719779968,1,left,0.569005966186523,475.793846359253,604.475168457031,607.235168457031,1654561898.16978,1654561898.17925,1654561905.23908,1654561905.24598,1654561907.33987,1654561914.07571,1654561914.07921,1654561914.66213,1654561914.65926,1654562043.34058,1
127,4,2,3,27,1,3,c3_HowFace,1,looking at camera?,60,F_618.jpg,1654561436.10542,1654561436.1073,475.877211561203,8.02173042297363,483.913541545868,486.014325847626,2.10078430175781,486.164380779266,0.533531665802002,486.699671974182,1,left,0.515666961669922,486.697912445068,604.475168457031,607.235168457031,1654561914.74263,1654561914.74612,1654561922.77896,1654561922.78063,1654561924.87974,1654561925.0298,1654561925.03141,1654561925.56509,1654561925.56333,1654562043.34058,1
127,4,2,3,27,2,3,c3_HowFace,2,looking at camera?,58,F_754.jpg,1654561436.10542,1654561436.1073,475.877211561203,8.02173042297363,483.913541545868,486.014325847626,0.3,487.014698972702,0.750279188156128,487.766591777802,3,right,0.732023954391479,487.764978160858,604.475168457031,607.235168457031,1654561914.74263,1654561914.74612,1654561922.77896,1654561922.78063,1654561924.87974,1654561925.88011,1654561925.88164,1654561926.63201,1654561926.63039,1654562043.34058,0
127,4,2,3,27,3,3,c3_HowFace,1,looking at camera?,59,F_129.jpg,1654561436.10542,1654561436.1073,475.877211561203,8.02173042297363,483.913541545868,486.014325847626,0.3,488.081762542725,0.466841459274292,488.549970855713,1,left,0.456873893737793,488.548604001999,604.475168457031,607.235168457031,1654561914.74263,1654561914.74612,1654561922.77896,1654561922.78063,1654561924.87974,1654561926.94718,1654561926.94851,1654561927.41539,1654561927.41402,1654562043.34058,1
127,4,2,3,27,4,3,c3_HowFace,1,looking at camera?,62,F_598.jpg,1654561436.10542,1654561436.1073,475.877211561203,8.02173042297363,483.913541545868,486.014325847626,0.3,488.865388383865,0.51685905456543,489.383301963806,1,left,0.500664949417114,489.382247438431,604.475168457031,607.235168457031,1654561914.74263,1654561914.74612,1654561922.77896,1654561922.78063,1654561924.87974,1654561927.7308,1654561927.73243,1654561928.24872,1654561928.24766,1654562043.34058,1
127,4,2,3,27,5,3,c3_HowFace,1,looking at camera?,64,F_128.jpg,1654561436.10542,1654561436.1073,475.877211561203,8.02173042297363,483.913541545868,486.014325847626,0.3,489.699032535553,0.566877841949463,490.267601957321,1,left,0.546990156173706,490.265910377502,604.475168457031,607.235168457031,1654561914.74263,1654561914.74612,1654561922.77896,1654561922.78063,1654561924.87974,1654561928.56445,1654561928.56612,1654561929.13302,1654561929.13133,1654562043.34058,1
127,4,2,3,27,6,3,c3_HowFace,2,looking at camera?,57,F_582.jpg,1654561436.10542,1654561436.1073,475.877211561203,8.02173042297363,483.913541545868,486.014325847626,0.3,490.582695951462,1.00037288665771,491.584586849213,3,right,0.986382007598877,491.58306883812,604.475168457031,607.235168457031,1654561914.74263,1654561914.74612,1654561922.77896,1654561922.78063,1654561924.87974,1654561929.44811,1654561929.44975,1654561930.45,1654561930.44848,1654562043.34058,0
127,4,2,3,27,7,3,c3_HowFace,1,looking at camera?,61,F_774.jpg,1654561436.10542,1654561436.1073,475.877211561203,8.02173042297363,483.913541545868,486.014325847626,0.3,491.899853935242,0.48351263999939,492.396651973724,1,left,0.472671031951904,492.383366575241,604.475168457031,607.235168457031,1654561914.74263,1654561914.74612,1654561922.77896,1654561922.78063,1654561924.87974,1654561930.76527,1654561930.76689,1654561931.26207,1654561931.24878,1654562043.34058,1
