src_subject_id,session_id,run_id,param_counterbalance_ver,param_block_num,param_trial_num,param_cond_type_num,param_cond_type_string,param_normative_response,param_ques_type_string,param_image_num,param_image_filename,param_trigger_onset,param_start_biopac,event01_fixation,event01_fixation_dur,event01_blockquestion_onset,event01_block_isi_blacksreen,event01_blockquestion_dur,event02_image_onset,event02_image_dur,event03_response_onset,event03_response_key,event03_response_keyname,event03_RT,event04_shortquestion_onset,param_end_instruct_onset,param_experiment_duration,RAW_e1_fixation,RAW_e1_fixation_biopac,RAW_e1_blockquestion_onset,RAW_e1_blockquestion_onset_biopac,RAW_e1_block_isi_blacksreen,RAW_e2_image_onset,RAW_e2_image_onset_biopac,RAW_e3_response_onset,RAW_e4_shortquestion_onset,RAW_param_end_instruct_onset,accuracy
60,4,1,3,1,1,4,c4_HowHand,1,reaching?,107,H_007.jpg,1634234831.32263,1634234831.3323,0.0283222103118894,0.0356795787811279,0.0783414745330808,2.11243342399597,2.03409194946289,2.26248978614807,1.41719460487366,3.68267177581787,1,left,1.38114595413208,3.67968439102173,604.470399847031,607.230399847031,1634234834.11095,1634234834.11711,1634234834.16097,1634234834.16509,1634234836.19506,1634234836.34512,1634234836.34841,1634234837.7653,1634234837.76231,1634235438.55303,1
60,4,1,3,1,2,4,c4_HowHand,2,reaching?,108,H_532.jpg,1634234831.32263,1634234831.3323,0.0283222103118894,0.0356795787811279,0.0783414745330808,2.11243342399597,0.3,3.9964697265625,1.13375616073608,5.1321799659729,3,right,1.11574721336365,5.13022588729858,604.470399847031,607.230399847031,1634234834.11095,1634234834.11711,1634234834.16097,1634234834.16509,1634234836.19506,1634234838.0791,1634234838.08178,1634234839.21481,1634234839.21285,1634235438.55303,0
60,4,1,3,1,3,4,c4_HowHand,1,reaching?,109,H_474.jpg,1634234831.32263,1634234831.3323,0.0283222103118894,0.0356795787811279,0.0783414745330808,2.11243342399597,0.3,5.44701026916504,0.650242328643799,6.09855388641357,1,left,0.64271879196167,6.09725259780884,604.470399847031,607.230399847031,1634234834.11095,1634234834.11711,1634234834.16097,1634234834.16509,1634234836.19506,1634234839.52964,1634234839.53108,1634234840.18118,1634234840.17988,1634235438.55303,1
60,4,1,3,1,4,4,c4_HowHand,2,reaching?,105,H_438.jpg,1634234831.32263,1634234831.3323,0.0283222103118894,0.0356795787811279,0.0783414745330808,2.11243342399597,0.3,6.41403793334961,0.983700037002563,7.39968179702759,3,right,0.961060047149658,7.39773797035217,604.470399847031,607.230399847031,1634234834.11095,1634234834.11711,1634234834.16097,1634234834.16509,1634234836.19506,1634234840.49666,1634234840.4986,1634234841.48231,1634234841.48036,1634235438.55303,0
60,4,1,3,1,5,4,c4_HowHand,1,reaching?,110,H_364.jpg,1634234831.32263,1634234831.3323,0.0283222103118894,0.0356795787811279,0.0783414745330808,2.11243342399597,0.3,7.71452259063721,0.683587551116943,8.40250085830688,1,left,0.659511804580688,8.39811014175415,604.470399847031,607.230399847031,1634234834.11095,1634234834.11711,1634234834.16097,1634234834.16509,1634234836.19506,1634234841.79715,1634234841.79906,1634234842.48513,1634234842.48074,1634235438.55303,1
60,4,1,3,1,6,4,c4_HowHand,1,reaching?,106,H_006.jpg,1634234831.32263,1634234831.3323,0.0283222103118894,0.0356795787811279,0.0783414745330808,2.11243342399597,0.3,8.71489595413208,0.766952514648438,9.48345898628235,1,left,0.749855041503906,9.48184846878052,604.470399847031,607.230399847031,1634234834.11095,1634234834.11711,1634234834.16097,1634234834.16509,1634234836.19506,1634234842.79752,1634234842.79939,1634234843.56609,1634234843.56447,1634235438.55303,1
60,4,1,3,1,7,4,c4_HowHand,1,reaching?,111,H_003.jpg,1634234831.32263,1634234831.3323,0.0283222103118894,0.0356795787811279,0.0783414745330808,2.11243342399597,0.3,9.79863237380981,0.716934204101562,10.5172169113159,1,left,0.697320938110352,10.5155665779114,604.470399847031,607.230399847031,1634234834.11095,1634234834.11711,1634234834.16097,1634234834.16509,1634234836.19506,1634234843.88126,1634234843.88307,1634234844.59984,1634234844.59819,1634235438.55303,1
60,4,1,3,1,8,4,c4_HowHand,2,reaching?,112,H_132.jpg,1634234831.32263,1634234831.3323,0.0283222103118894,0.0356795787811279,0.0783414745330808,2.11243342399597,0.3,10.8323516750336,0.85031795501709,11.6839527988434,3,right,0.838654041290283,11.6826696300507,604.470399847031,607.230399847031,1634234834.11095,1634234834.11711,1634234834.16097,1634234834.16509,1634234836.19506,1634234844.91498,1634234844.9166,1634234845.76658,1634234845.7653,1634235438.55303,0
60,4,1,3,2,1,2,c2_WhyHand,1,healthy?,21,H_627.jpg,1634234831.32263,1634234831.3323,11.9160895252228,5.61518836021423,17.5348513031006,19.6356348896027,2.10078358650208,19.7856898212433,1.18377566337585,20.971920003891,1,left,1.14822697639465,20.9694654846191,604.470399847031,607.230399847031,1634234845.99872,1634234846.00004,1634234851.61748,1634234851.6316,1634234853.71826,1634234853.86832,1634234853.88172,1634234855.05455,1634234855.05209,1634235438.55303,1
60,4,1,3,2,2,2,c2_WhyHand,1,healthy?,18,H_438.jpg,1634234831.32263,1634234831.3323,11.9160895252228,5.61518836021423,17.5348513031006,19.6356348896027,0.3,21.286249628067,0.833645105361938,22.1314589881897,1,left,0.821274042129517,22.119894733429,604.470399847031,607.230399847031,1634234845.99872,1634234846.00004,1634234851.61748,1634234851.6316,1634234853.71826,1634234855.36888,1634234855.3707,1634234856.21409,1634234856.20252,1634235438.55303,1
60,4,1,3,2,3,2,c2_WhyHand,1,healthy?,23,H_364.jpg,1634234831.32263,1634234831.3323,11.9160895252228,5.61518836021423,17.5348513031006,19.6356348896027,0.3,22.4366800689697,0.716933488845825,23.1646549606323,1,left,0.706977128982544,23.1536135578156,604.470399847031,607.230399847031,1634234845.99872,1634234846.00004,1634234851.61748,1634234851.6316,1634234853.71826,1634234856.51931,1634234856.52086,1634234857.24728,1634234857.23624,1634235438.55303,1
60,4,1,3,2,4,2,c2_WhyHand,2,healthy?,22,H_130.jpg,1634234831.32263,1634234831.3323,11.9160895252228,5.61518836021423,17.5348513031006,19.6356348896027,0.3,23.4703988933563,0.900335550308228,24.381863822937,3,right,0.888666152954102,24.3707344436645,604.470399847031,607.230399847031,1634234845.99872,1634234846.00004,1634234851.61748,1634234851.6316,1634234853.71826,1634234857.55303,1634234857.55487,1634234858.46449,1634234858.45336,1634235438.55303,0
60,4,1,3,2,5,2,c2_WhyHand,1,healthy?,17,H_362.jpg,1634234831.32263,1634234831.3323,11.9160895252228,5.61518836021423,17.5348513031006,19.6356348896027,0.3,24.6875183486938,0.716934204101562,25.4054968261719,1,left,0.700074195861816,25.4044525527954,604.470399847031,607.230399847031,1634234845.99872,1634234846.00004,1634234851.61748,1634234851.6316,1634234853.71826,1634234858.77014,1634234858.77186,1634234859.48812,1634234859.48708,1634235438.55303,1
60,4,1,3,2,6,2,c2_WhyHand,2,healthy?,20,H_007.jpg,1634234831.32263,1634234831.3323,11.9160895252228,5.61518836021423,17.5348513031006,19.6356348896027,0.3,25.7212383651733,0.850316286087036,26.5819868946075,3,right,0.842771053314209,26.5715546512604,604.470399847031,607.230399847031,1634234845.99872,1634234846.00004,1634234851.61748,1634234851.6316,1634234853.71826,1634234859.80386,1634234859.80563,1634234860.66461,1634234860.65418,1634235438.55303,0
60,4,1,3,2,7,2,c2_WhyHand,1,healthy?,19,H_167.jpg,1634234831.32263,1634234831.3323,11.9160895252228,5.61518836021423,17.5348513031006,19.6356348896027,0.3,26.8883397483826,0.63356876373291,27.5233678722382,1,left,0.614203929901123,27.5219085121155,604.470399847031,607.230399847031,1634234845.99872,1634234846.00004,1634234851.61748,1634234851.6316,1634234853.71826,1634234860.97097,1634234860.97276,1634234861.60599,1634234861.60453,1634235438.55303,1
60,4,1,3,2,8,2,c2_WhyHand,2,healthy?,24,H_019.jpg,1634234831.32263,1634234831.3323,11.9160895252228,5.61518836021423,17.5348513031006,19.6356348896027,0.3,27.8386938476562,0.716933488845825,28.5573098564148,3,right,0.698274850845337,28.5556273365021,604.470399847031,607.230399847031,1634234845.99872,1634234846.00004,1634234851.61748,1634234851.6316,1634234853.71826,1634234861.92132,1634234861.9235,1634234862.63994,1634234862.63825,1634235438.55303,0
60,4,1,3,3,1,1,c1_WhyFace,1,admiring?,4,F_779.jpg,1634234831.32263,1634234831.3323,28.6556649112701,7.98339486122131,36.6586494350433,38.7427596950531,2.08411026000977,38.8928170108795,0.733606100082397,39.627423992157,1,left,0.707711935043335,39.6264231109619,604.470399847031,607.230399847031,1634234862.73829,1634234862.74797,1634234870.74128,1634234870.74362,1634234872.82539,1634234872.97544,1634234872.98169,1634234873.71005,1634234873.70905,1634235438.55303,1
60,4,1,3,3,2,1,c1_WhyFace,1,admiring?,1,F_593.jpg,1634234831.32263,1634234831.3323,28.6556649112701,7.98339486122131,36.6586494350433,38.7427596950531,0.3,39.9432074928284,0.616897344589233,40.5655529403687,1,left,0.599520921707153,40.5601048374176,604.470399847031,607.230399847031,1634234862.73829,1634234862.74797,1634234870.74128,1634234870.74362,1634234872.82539,1634234874.02583,1634234874.02759,1634234874.64818,1634234874.64273,1634235438.55303,1
60,4,1,3,3,3,1,c1_WhyFace,2,admiring?,3,F_110.jpg,1634234831.32263,1634234831.3323,28.6556649112701,7.98339486122131,36.6586494350433,38.7427596950531,0.3,40.8768892192841,0.68358850479126,41.561585893631,3,right,0.663118839263916,41.5604777240753,604.470399847031,607.230399847031,1634234862.73829,1634234862.74797,1634234870.74128,1634234870.74362,1634234872.82539,1634234874.95952,1634234874.96108,1634234875.64421,1634234875.6431,1634235438.55303,0
60,4,1,3,3,4,1,c1_WhyFace,1,admiring?,8,F_590.jpg,1634234831.32263,1634234831.3323,28.6556649112701,7.98339486122131,36.6586494350433,38.7427596950531,0.3,41.8772632980347,0.516858100891113,42.3986818695068,1,left,0.498861074447632,42.3941213989258,604.470399847031,607.230399847031,1634234862.73829,1634234862.74797,1634234870.74128,1634234870.74362,1634234872.82539,1634234875.95989,1634234875.96462,1634234876.48131,1634234876.47675,1634235438.55303,1
60,4,1,3,3,5,1,c1_WhyFace,2,admiring?,6,F_692.jpg,1634234831.32263,1634234831.3323,28.6556649112701,7.98339486122131,36.6586494350433,38.7427596950531,0.3,42.7109074497223,0.700260400772095,43.4152328872681,1,left,0.68284010887146,43.4111678504944,604.470399847031,607.230399847031,1634234862.73829,1634234862.74797,1634234870.74128,1634234870.74362,1634234872.82539,1634234876.79353,1634234876.79806,1634234877.49786,1634234877.49379,1634235438.55303,0
60,4,1,3,3,6,1,c1_WhyFace,1,admiring?,5,F_759.jpg,1634234831.32263,1634234831.3323,28.6556649112701,7.98339486122131,36.6586494350433,38.7427596950531,0.3,43.7279524707794,0.600224494934082,44.3313939476013,1,left,0.582803010940552,44.3281769657135,604.470399847031,607.230399847031,1634234862.73829,1634234862.74797,1634234870.74128,1634234870.74362,1634234872.82539,1634234877.81058,1634234877.81452,1634234878.41402,1634234878.4108,1634235438.55303,1
60,4,1,3,3,7,1,c1_WhyFace,1,admiring?,7,F_648.jpg,1634234831.32263,1634234831.3323,28.6556649112701,7.98339486122131,36.6586494350433,38.7427596950531,0.3,44.64496134758,0.633569478988647,45.2815358543396,1,left,0.613522052764893,45.2785308265686,604.470399847031,607.230399847031,1634234862.73829,1634234862.74797,1634234870.74128,1634234870.74362,1634234872.82539,1634234878.72759,1634234878.73098,1634234879.36416,1634234879.36116,1634235438.55303,1
60,4,1,3,3,8,1,c1_WhyFace,2,admiring?,2,F_129.jpg,1634234831.32263,1634234831.3323,28.6556649112701,7.98339486122131,36.6586494350433,38.7427596950531,0.3,45.5953154468536,0.533532381057739,46.1317379379272,1,left,0.525176048278809,46.1288478279114,604.470399847031,607.230399847031,1634234862.73829,1634234862.74797,1634234870.74128,1634234870.74362,1634234872.82539,1634234879.67794,1634234879.68137,1634234880.21436,1634234880.21147,1634235438.55303,0
60,4,1,3,4,1,3,c3_HowFace,1,smiling?,119,F_139.jpg,1634234831.32263,1634234831.3323,46.2455575370789,9.357506275177,55.6157200241089,57.7165028953552,2.10078287124634,57.8665585422516,0.550205230712891,58.4180858039856,1,left,0.530431985855103,58.4167637729645,604.470399847031,607.230399847031,1634234880.32818,1634234880.33146,1634234889.69835,1634234889.70045,1634234891.79913,1634234891.94918,1634234891.95167,1634234892.50071,1634234892.49939,1634235438.55303,1
60,4,1,3,4,2,3,c3_HowFace,2,smiling?,113,F_712.jpg,1634234831.32263,1634234831.3323,46.2455575370789,9.357506275177,55.6157200241089,57.7165028953552,0.3,58.7335488700867,0.81697154045105,59.5516137981415,3,right,0.794784069061279,59.5505204105377,604.470399847031,607.230399847031,1634234880.32818,1634234880.33146,1634234889.69835,1634234889.70045,1634234891.79913,1634234892.81617,1634234892.81798,1634234893.63424,1634234893.63315,1634235438.55303,0
60,4,1,3,4,3,3,c3_HowFace,1,smiling?,115,F_695.jpg,1634234831.32263,1634234831.3323,46.2455575370789,9.357506275177,55.6157200241089,57.7165028953552,0.3,59.867304315567,0.600224256515503,60.469238986969,1,left,0.580893993377686,60.4675285720825,604.470399847031,607.230399847031,1634234880.32818,1634234880.33146,1634234889.69835,1634234889.70045,1634234891.79913,1634234893.94993,1634234893.95158,1634234894.55187,1634234894.55015,1634235438.55303,1
60,4,1,3,4,4,3,c3_HowFace,2,smiling?,120,F_758.jpg,1634234831.32263,1634234831.3323,46.2455575370789,9.357506275177,55.6157200241089,57.7165028953552,0.3,60.7843131923676,0.666915655136108,61.4526109600067,3,right,0.652307033538818,61.4512288475037,604.470399847031,607.230399847031,1634234880.32818,1634234880.33146,1634234889.69835,1634234889.70045,1634234891.79913,1634234894.86694,1634234894.86864,1634234895.53524,1634234895.53385,1634235438.55303,0
60,4,1,3,4,5,3,c3_HowFace,1,smiling?,116,F_083.jpg,1634234831.32263,1634234831.3323,46.2455575370789,9.357506275177,55.6157200241089,57.7165028953552,0.3,61.7680137062073,0.550204753875732,62.3192698860168,1,left,0.529378890991211,62.318218460083,604.470399847031,607.230399847031,1634234880.32818,1634234880.33146,1634234889.69835,1634234889.70045,1634234891.79913,1634234895.85064,1634234895.85233,1634234896.4019,1634234896.40084,1634235438.55303,1
60,4,1,3,4,6,3,c3_HowFace,1,smiling?,118,F_759.jpg,1634234831.32263,1634234831.3323,46.2455575370789,9.357506275177,55.6157200241089,57.7165028953552,0.3,62.6350033187866,0.633570671081543,63.2696859741211,1,left,0.621618986129761,63.2685739898682,604.470399847031,607.230399847031,1634234880.32818,1634234880.33146,1634234889.69835,1634234889.70045,1634234891.79913,1634234896.71763,1634234896.71934,1634234897.35231,1634234897.3512,1634235438.55303,1
60,4,1,3,4,7,3,c3_HowFace,2,smiling?,114,F_412.jpg,1634234831.32263,1634234831.3323,46.2455575370789,9.357506275177,55.6157200241089,57.7165028953552,0.3,63.5853576564789,0.616897344589233,64.2032978439331,3,right,0.603844881057739,64.2022550010681,604.470399847031,607.230399847031,1634234880.32818,1634234880.33146,1634234889.69835,1634234889.70045,1634234891.79913,1634234897.66798,1634234897.66962,1634234898.28592,1634234898.28488,1634235438.55303,0
60,4,1,3,4,8,3,c3_HowFace,1,smiling?,117,F_593.jpg,1634234831.32263,1634234831.3323,46.2455575370789,9.357506275177,55.6157200241089,57.7165028953552,0.3,64.5190400981903,0.533531188964844,65.0535759830475,1,left,0.521646976470947,65.0525712871551,604.470399847031,607.230399847031,1634234880.32818,1634234880.33146,1634234889.69835,1634234889.70045,1634234891.79913,1634234898.60167,1634234898.60316,1634234899.1362,1634234899.1352,1634235438.55303,1
60,4,1,3,5,1,4,c4_HowHand,1,lifting?,56,H_136.jpg,1634234831.32263,1634234831.3323,65.1192636394501,8.01456832885742,73.1389205360413,75.2397043609619,2.10078382492065,75.3897597694397,0.850315809249878,76.2417869472504,1,left,0.82305908203125,76.2400755786896,604.470399847031,607.230399847031,1634234899.20189,1634234899.21562,1634234907.22155,1634234907.23214,1634234909.32233,1634234909.47239,1634234909.48161,1634234910.32441,1634234910.3227,1634235438.55303,1
60,4,1,3,5,2,4,c4_HowHand,2,lifting?,51,H_038.jpg,1634234831.32263,1634234831.3323,65.1192636394501,8.01456832885742,73.1389205360413,75.2397043609619,0.3,76.5568613910675,1.1837751865387,77.7423329257965,3,right,1.16158103942871,77.7406365776062,604.470399847031,607.230399847031,1634234899.20189,1634234899.21562,1634234907.22155,1634234907.23214,1634234909.32233,1634234910.63949,1634234910.64133,1634234911.82496,1634234911.82326,1634235438.55303,0
60,4,1,3,5,3,4,c4_HowHand,1,lifting?,52,H_189.jpg,1634234831.32263,1634234831.3323,65.1192636394501,8.01456832885742,73.1389205360413,75.2397043609619,0.3,78.0574216747284,0.700260639190674,78.7650658988953,1,left,0.692621946334839,78.7576823139191,604.470399847031,607.230399847031,1634234899.20189,1634234899.21562,1634234907.22155,1634234907.23214,1634234909.32233,1634234912.14005,1634234912.14182,1634234912.84769,1634234912.84031,1634235438.55303,1
60,4,1,3,5,4,4,c4_HowHand,2,lifting?,53,H_077.jpg,1634234831.32263,1634234831.3323,65.1192636394501,8.01456832885742,73.1389205360413,75.2397043609619,0.3,79.0744671726227,0.66691517829895,79.7424399757385,3,right,0.645242929458618,79.7413823509216,604.470399847031,607.230399847031,1634234899.20189,1634234899.21562,1634234907.22155,1634234907.23214,1634234909.32233,1634234913.15709,1634234913.15866,1634234913.82507,1634234913.82401,1634235438.55303,0
60,4,1,3,5,5,4,c4_HowHand,1,lifting?,50,H_443.jpg,1634234831.32263,1634234831.3323,65.1192636394501,8.01456832885742,73.1389205360413,75.2397043609619,0.3,80.0581681632996,0.750279188156128,80.8151669406891,1,left,0.740734100341797,80.8084473514557,604.470399847031,607.230399847031,1634234899.20189,1634234899.21562,1634234907.22155,1634234907.23214,1634234909.32233,1634234914.14079,1634234914.14256,1634234914.89779,1634234914.89107,1634235438.55303,1
60,4,1,3,5,6,4,c4_HowHand,2,lifting?,55,H_012.jpg,1634234831.32263,1634234831.3323,65.1192636394501,8.01456832885742,73.1389205360413,75.2397043609619,0.3,81.1252326869965,0.833643913269043,81.9647958183289,3,right,0.81925106048584,81.9588766002655,604.470399847031,607.230399847031,1634234899.20189,1634234899.21562,1634234907.22155,1634234907.23214,1634234909.32233,1634234915.20786,1634234915.20969,1634234916.04742,1634234916.0415,1634235438.55303,0
60,4,1,3,5,7,4,c4_HowHand,1,lifting?,49,H_362.jpg,1634234831.32263,1634234831.3323,65.1192636394501,8.01456832885742,73.1389205360413,75.2397043609619,0.3,82.2756616973877,0.583550930023193,82.8602108860016,1,left,0.561240911483765,82.8592126274109,604.470399847031,607.230399847031,1634234899.20189,1634234899.21562,1634234907.22155,1634234907.23214,1634234909.32233,1634234916.35829,1634234916.36005,1634234916.94284,1634234916.94184,1634235438.55303,1
60,4,1,3,5,8,4,c4_HowHand,1,lifting?,54,H_170.jpg,1634234831.32263,1634234831.3323,65.1192636394501,8.01456832885742,73.1389205360413,75.2397043609619,0.3,83.1759965324402,0.650243282318115,83.8321368598938,1,left,0.638638973236084,83.8262398147583,604.470399847031,607.230399847031,1634234899.20189,1634234899.21562,1634234907.22155,1634234907.23214,1634234909.32233,1634234917.25862,1634234917.26034,1634234917.91476,1634234917.90887,1634235438.55303,1
60,4,1,3,6,1,2,c2_WhyHand,1,helping?,38,H_077.jpg,1634234831.32263,1634234831.3323,83.9262773895264,11.6886196136475,95.6306409740448,97.7314252758026,2.10078430175781,97.8814802074432,0.967028379440308,98.8499619865417,1,left,0.949403047561646,98.8485085868835,604.470399847031,607.230399847031,1634234918.0089,1634234918.01064,1634234929.71327,1634234929.71503,1634234931.81405,1634234931.96411,1634234931.96592,1634234932.93259,1634234932.93113,1634235438.55303,1
60,4,1,3,6,2,2,c2_WhyHand,1,helping?,36,H_349.jpg,1634234831.32263,1634234831.3323,83.9262773895264,11.6886196136475,95.6306409740448,97.7314252758026,0.3,99.1652936840057,0.600223064422607,99.7813129329681,1,left,0.59329891204834,99.7655167484283,604.470399847031,607.230399847031,1634234918.0089,1634234918.01064,1634234929.71327,1634234929.71503,1634234931.81405,1634234933.24792,1634234933.24934,1634234933.86394,1634234933.84814,1634235438.55303,1
60,4,1,3,6,3,2,c2_WhyHand,1,helping?,37,H_474.jpg,1634234831.32263,1634234831.3323,83.9262773895264,11.6886196136475,95.6306409740448,97.7314252758026,0.3,100.082301607132,0.716933727264404,100.814656963348,1,left,0.708094120025635,100.799235334396,604.470399847031,607.230399847031,1634234918.0089,1634234918.01064,1634234929.71327,1634234929.71503,1634234931.81405,1634234934.16493,1634234934.16649,1634234934.89728,1634234934.88186,1634235438.55303,1
60,4,1,3,6,4,2,c2_WhyHand,1,helping?,39,H_024.jpg,1634234831.32263,1634234831.3323,83.9262773895264,11.6886196136475,95.6306409740448,97.7314252758026,0.3,101.116020908356,0.666914463043213,101.784158935547,3,right,0.643898963928223,101.782935371399,604.470399847031,607.230399847031,1634234918.0089,1634234918.01064,1634234929.71327,1634234929.71503,1634234931.81405,1634234935.19865,1634234935.20013,1634234935.86679,1634234935.86556,1634235438.55303,0
60,4,1,3,6,5,2,c2_WhyHand,2,helping?,40,H_012.jpg,1634234831.32263,1634234831.3323,83.9262773895264,11.6886196136475,95.6306409740448,97.7314252758026,0.3,102.099720468521,0.533532619476318,102.634632816315,1,left,0.522540807723999,102.633253087997,604.470399847031,607.230399847031,1634234918.0089,1634234918.01064,1634234929.71327,1634234929.71503,1634234931.81405,1634234936.18235,1634234936.18393,1634234936.71726,1634234936.71588,1634235438.55303,0
60,4,1,3,6,6,2,c2_WhyHand,2,helping?,35,H_159.jpg,1634234831.32263,1634234831.3323,83.9262773895264,11.6886196136475,95.6306409740448,97.7314252758026,0.3,102.950037231445,0.600224494934082,103.564796915054,1,left,0.591558218002319,103.550261726379,604.470399847031,607.230399847031,1634234918.0089,1634234918.01064,1634234929.71327,1634234929.71503,1634234931.81405,1634234937.03266,1634234937.03436,1634234937.64742,1634234937.63289,1634235438.55303,0
60,4,1,3,6,7,2,c2_WhyHand,1,helping?,34,H_111.jpg,1634234831.32263,1634234831.3323,83.9262773895264,11.6886196136475,95.6306409740448,97.7314252758026,0.3,103.86704706192,1.06706428527832,104.935219993591,1,left,1.05280995368958,104.934111347198,604.470399847031,607.230399847031,1634234918.0089,1634234918.01064,1634234929.71327,1634234929.71503,1634234931.81405,1634234937.94967,1634234937.95139,1634234939.01785,1634234939.01674,1634235438.55303,1
60,4,1,3,6,8,2,c2_WhyHand,2,helping?,33,H_091.jpg,1634234831.32263,1634234831.3323,83.9262773895264,11.6886196136475,95.6306409740448,97.7314252758026,0.3,105.250894298553,0.600225210189819,105.865361919403,1,left,0.593109130859375,105.851119508743,604.470399847031,607.230399847031,1634234918.0089,1634234918.01064,1634234929.71327,1634234929.71503,1634234931.81405,1634234939.33352,1634234939.33536,1634234939.94799,1634234939.93375,1634235438.55303,0
60,4,1,3,7,1,1,c1_WhyFace,1,proud?,104,F_598.jpg,1634234831.32263,1634234831.3323,105.934485187531,7.55539274215698,113.50397395134,115.60475777626,2.10078382492065,115.754812707901,0.783625602722168,116.539471855164,1,left,0.761931896209717,116.538438310623,604.470399847031,607.230399847031,1634234940.01711,1634234940.01877,1634234947.5866,1634234947.58837,1634234949.68738,1634234949.83744,1634234949.83952,1634234950.6221,1634234950.62106,1634235438.55303,1
60,4,1,3,7,2,1,c1_WhyFace,2,proud?,102,F_760.jpg,1634234831.32263,1634234831.3323,105.934485187531,7.55539274215698,113.50397395134,115.60475777626,0.3,116.855223884583,0.583550691604614,117.440300931931,3,right,0.563655853271484,117.438774576187,604.470399847031,607.230399847031,1634234940.01711,1634234940.01877,1634234947.5866,1634234947.58837,1634234949.68738,1634234950.93785,1634234950.93954,1634234951.52293,1634234951.5214,1634235438.55303,0
60,4,1,3,7,3,1,c1_WhyFace,1,proud?,97,F_582.jpg,1634234831.32263,1634234831.3323,105.934485187531,7.55539274215698,113.50397395134,115.60475777626,0.3,117.755559196472,0.68358850479126,118.440609922409,1,left,0.663267850875854,118.439147701263,604.470399847031,607.230399847031,1634234940.01711,1634234940.01877,1634234947.5866,1634234947.58837,1634234949.68738,1634234951.83819,1634234951.8396,1634234952.52324,1634234952.52177,1634235438.55303,1
60,4,1,3,7,4,1,c1_WhyFace,2,proud?,98,F_412.jpg,1634234831.32263,1634234831.3323,105.934485187531,7.55539274215698,113.50397395134,115.60475777626,0.3,118.755932559967,0.533531904220581,119.298193922043,3,right,0.522382020950317,119.289464464188,604.470399847031,607.230399847031,1634234940.01711,1634234940.01877,1634234947.5866,1634234947.58837,1634234949.68738,1634234952.83856,1634234952.84013,1634234953.38082,1634234953.37209,1634235438.55303,0
60,4,1,3,7,5,1,c1_WhyFace,1,proud?,101,F_083.jpg,1634234831.32263,1634234831.3323,105.934485187531,7.55539274215698,113.50397395134,115.60475777626,0.3,119.606249799728,0.516858339309692,120.132093896866,1,left,0.50568699836731,120.123108139038,604.470399847031,607.230399847031,1634234940.01711,1634234940.01877,1634234947.5866,1634234947.58837,1634234949.68738,1634234953.68888,1634234953.69072,1634234954.21472,1634234954.20573,1634235438.55303,1
60,4,1,3,7,6,1,c1_WhyFace,2,proud?,100,F_776.jpg,1634234831.32263,1634234831.3323,105.934485187531,7.55539274215698,113.50397395134,115.60475777626,0.3,120.439893951416,0.66691517829895,121.108463993073,1,left,0.65126895904541,121.106809129715,604.470399847031,607.230399847031,1634234940.01711,1634234940.01877,1634234947.5866,1634234947.58837,1634234949.68738,1634234954.52252,1634234954.5236,1634234955.19109,1634234955.18944,1634235438.55303,0
60,4,1,3,7,7,1,c1_WhyFace,1,proud?,103,F_618.jpg,1634234831.32263,1634234831.3323,105.934485187531,7.55539274215698,113.50397395134,115.60475777626,0.3,121.423593511581,0.616897106170654,122.042147865295,1,left,0.598387002944946,122.040490617752,604.470399847031,607.230399847031,1634234940.01711,1634234940.01877,1634234947.5866,1634234947.58837,1634234949.68738,1634234955.50622,1634234955.50789,1634234956.12477,1634234956.12312,1634235438.55303,1
60,4,1,3,7,8,1,c1_WhyFace,1,proud?,99,F_695.jpg,1634234831.32263,1634234831.3323,105.934485187531,7.55539274215698,113.50397395134,115.60475777626,0.3,122.357275714874,0.7669517993927,123.131393899918,1,left,0.757058143615723,123.124227514267,604.470399847031,607.230399847031,1634234940.01711,1634234940.01877,1634234947.5866,1634234947.58837,1634234949.68738,1634234956.4399,1634234956.44155,1634234957.21402,1634234957.20685,1634235438.55303,1
60,4,1,3,8,1,3,c3_HowFace,1,looking to side?,72,F_590.jpg,1634234831.32263,1634234831.3323,123.19092010498,7.82903981208801,131.027175416946,133.127958049774,2.10078263282776,133.278014411926,0.66691517829895,133.948604812622,1,left,0.649127960205078,133.944929590225,604.470399847031,607.230399847031,1634234957.27355,1634234957.28113,1634234965.1098,1634234965.11512,1634234967.21058,1634234967.36064,1634234967.36452,1634234968.03123,1634234968.02756,1634235438.55303,1
60,4,1,3,8,2,3,c3_HowFace,1,looking to side?,71,F_433.jpg,1634234831.32263,1634234831.3323,123.19092010498,7.82903981208801,131.027175416946,133.127958049774,0.3,134.261714925766,0.666916131973267,134.931430807114,1,left,0.643339157104492,134.928631057739,604.470399847031,607.230399847031,1634234957.27355,1634234957.28113,1634234965.1098,1634234965.11512,1634234967.21058,1634234968.34434,1634234968.34797,1634234969.01406,1634234969.01126,1634235438.55303,1
60,4,1,3,8,3,3,c3_HowFace,1,looking to side?,67,F_716.jpg,1634234831.32263,1634234831.3323,123.19092010498,7.82903981208801,131.027175416946,133.127958049774,0.3,135.24541472435,0.550205945968628,135.797879924774,1,left,0.539551973342896,135.795620670319,604.470399847031,607.230399847031,1634234957.27355,1634234957.28113,1634234965.1098,1634234965.11512,1634234967.21058,1634234969.32804,1634234969.33122,1634234969.88051,1634234969.87825,1634235438.55303,1
60,4,1,3,8,4,3,c3_HowFace,2,looking to side?,70,F_779.jpg,1634234831.32263,1634234831.3323,123.19092010498,7.82903981208801,131.027175416946,133.127958049774,0.3,136.112404575348,0.533533573150635,136.647897949219,1,left,0.523550033569336,136.645938148499,604.470399847031,607.230399847031,1634234957.27355,1634234957.28113,1634234965.1098,1634234965.11512,1634234967.21058,1634234970.19503,1634234970.19802,1634234970.73052,1634234970.72856,1634235438.55303,0
60,4,1,3,8,5,3,c3_HowFace,1,looking to side?,68,F_760.jpg,1634234831.32263,1634234831.3323,123.19092010498,7.82903981208801,131.027175416946,133.127958049774,0.3,136.962721576691,0.983701229095459,137.948119869232,1,left,0.960587024688721,137.946422805786,604.470399847031,607.230399847031,1634234957.27355,1634234957.28113,1634234965.1098,1634234965.11512,1634234967.21058,1634234971.04535,1634234971.04787,1634234972.03075,1634234972.02905,1634235438.55303,1
60,4,1,3,8,6,3,c3_HowFace,2,looking to side?,66,F_111.jpg,1634234831.32263,1634234831.3323,123.19092010498,7.82903981208801,131.027175416946,133.127958049774,0.3,138.263206949234,0.683587551116943,138.947937002182,3,right,0.675749063491821,138.946794500351,604.470399847031,607.230399847031,1634234957.27355,1634234957.28113,1634234965.1098,1634234965.11512,1634234967.21058,1634234972.34583,1634234972.34785,1634234973.03056,1634234973.02942,1634235438.55303,0
60,4,1,3,8,7,3,c3_HowFace,1,looking to side?,69,F_110.jpg,1634234831.32263,1634234831.3323,123.19092010498,7.82903981208801,131.027175416946,133.127958049774,0.3,139.263579835892,0.516859531402588,139.782090892792,1,left,0.498447895050049,139.780439367294,604.470399847031,607.230399847031,1634234957.27355,1634234957.28113,1634234965.1098,1634234965.11512,1634234967.21058,1634234973.34621,1634234973.34741,1634234973.86472,1634234973.86307,1634235438.55303,1
60,4,1,3,8,8,3,c3_HowFace,2,looking to side?,65,F_798.jpg,1634234831.32263,1634234831.3323,123.19092010498,7.82903981208801,131.027175416946,133.127958049774,0.3,140.097224464417,0.80029821395874,140.899142971039,3,right,0.789113998413086,140.897522678375,604.470399847031,607.230399847031,1634234957.27355,1634234957.28113,1634234965.1098,1634234965.11512,1634234967.21058,1634234974.17985,1634234974.18156,1634234974.98177,1634234974.98015,1634235438.55303,0
60,4,1,3,9,1,1,c1_WhyFace,1,argument?,43,F_716.jpg,1634234831.32263,1634234831.3323,140.964214792252,9.16371703147888,150.134301176071,152.235084047318,2.10078287124634,152.385140886307,0.833643913269043,153.220083942413,3,right,0.80947208404541,153.218784799576,604.470399847031,607.230399847031,1634234975.04684,1634234975.04846,1634234984.21693,1634234984.23163,1634234986.31771,1634234986.46777,1634234986.48137,1634234987.30271,1634234987.30141,1634235438.55303,0
60,4,1,3,9,2,1,c1_WhyFace,2,argument?,44,F_139.jpg,1634234831.32263,1634234831.3323,140.964214792252,9.16371703147888,150.134301176071,152.235084047318,0.3,153.535568466187,0.88366436958313,154.420342912674,3,right,0.868657112121582,154.41923283577,604.470399847031,607.230399847031,1634234975.04684,1634234975.04846,1634234984.21693,1634234984.23163,1634234986.31771,1634234987.61819,1634234987.61985,1634234988.50297,1634234988.50186,1634235438.55303,0
60,4,1,3,9,3,1,c1_WhyFace,1,argument?,41,F_712.jpg,1634234831.32263,1634234831.3323,140.964214792252,9.16371703147888,150.134301176071,152.235084047318,0.3,154.736016740799,0.700260162353516,155.448130836487,1,left,0.692958116531372,155.436276903152,604.470399847031,607.230399847031,1634234975.04684,1634234975.04846,1634234984.21693,1634234984.23163,1634234986.31771,1634234988.81864,1634234988.82035,1634234989.53076,1634234989.5189,1634235438.55303,1
60,4,1,3,9,4,1,c1_WhyFace,2,argument?,45,F_433.jpg,1634234831.32263,1634234831.3323,140.964214792252,9.16371703147888,150.134301176071,152.235084047318,0.3,155.753063192368,1.01704525947571,156.781346788406,1,left,1.00856804847717,156.770108451843,604.470399847031,607.230399847031,1634234975.04684,1634234975.04846,1634234984.21693,1634234984.23163,1634234986.31771,1634234989.83569,1634234989.83734,1634234990.86397,1634234990.85273,1634235438.55303,0
60,4,1,3,9,5,1,c1_WhyFace,1,argument?,42,F_403.jpg,1634234831.32263,1634234831.3323,140.964214792252,9.16371703147888,150.134301176071,152.235084047318,0.3,157.086893548965,0.700261354446411,157.798980941772,1,left,0.692360877990723,157.787154903412,604.470399847031,607.230399847031,1634234975.04684,1634234975.04846,1634234984.21693,1634234984.23163,1634234986.31771,1634234991.16952,1634234991.17147,1634234991.88161,1634234991.86978,1634235438.55303,1
60,4,1,3,9,6,1,c1_WhyFace,2,argument?,46,F_844.jpg,1634234831.32263,1634234831.3323,140.964214792252,9.16371703147888,150.134301176071,152.235084047318,0.3,158.103939523697,0.933681011199951,159.038690795898,1,left,0.917325973510742,159.037620534897,604.470399847031,607.230399847031,1634234975.04684,1634234975.04846,1634234984.21693,1634234984.23163,1634234986.31771,1634234992.18657,1634234992.18808,1634234993.12132,1634234993.12025,1634235438.55303,0
60,4,1,3,9,7,1,c1_WhyFace,1,argument?,47,F_743.jpg,1634234831.32263,1634234831.3323,140.964214792252,9.16371703147888,150.134301176071,152.235084047318,0.3,159.3544053936,0.600223779678345,159.956520786285,1,left,0.581013917922974,159.954629173279,604.470399847031,607.230399847031,1634234975.04684,1634234975.04846,1634234984.21693,1634234984.23163,1634234986.31771,1634234993.43703,1634234993.43974,1634234994.03915,1634234994.03726,1634235438.55303,1
60,4,1,3,9,8,1,c1_WhyFace,1,argument?,48,F_758.jpg,1634234831.32263,1634234831.3323,140.964214792252,9.16371703147888,150.134301176071,152.235084047318,0.3,160.271414747238,0.933681011199951,161.206267824173,1,left,0.913918972015381,161.205095758438,604.470399847031,607.230399847031,1634234975.04684,1634234975.04846,1634234984.21693,1634234984.23163,1634234986.31771,1634234994.35404,1634234994.35601,1634234995.28889,1634234995.28772,1634235438.55303,1
60,4,1,3,10,1,3,c3_HowFace,1,open mouth?,80,F_844.jpg,1634234831.32263,1634234831.3323,161.271787872314,6.69614410400391,167.97428606987,170.075070848465,2.10078477859497,170.225126495361,0.816971302032471,171.048123826981,1,left,0.803575992584229,171.042097797394,604.470399847031,607.230399847031,1634234995.35441,1634234995.36451,1634235002.05691,1634235002.06491,1634235004.1577,1634235004.30775,1634235004.31504,1634235005.13075,1634235005.12472,1634235438.55303,1
60,4,1,3,10,2,3,c3_HowFace,1,open mouth?,74,F_776.jpg,1634234831.32263,1634234831.3323,161.271787872314,6.69614410400391,167.97428606987,170.075070848465,0.3,171.358882894516,0.716933727264404,172.081332912445,1,left,0.705519914627075,172.07581662178,604.470399847031,607.230399847031,1634234995.35441,1634234995.36451,1634235002.05691,1634235002.06491,1634235004.1577,1634235005.44151,1634235005.44336,1634235006.16396,1634235006.15844,1634235438.55303,1
60,4,1,3,10,3,3,c3_HowFace,2,open mouth?,76,F_544.jpg,1634234831.32263,1634234831.3323,161.271787872314,6.69614410400391,167.97428606987,170.075070848465,0.3,172.39260219574,0.633568286895752,173.03141497612,3,right,0.623743057250977,173.026170482636,604.470399847031,607.230399847031,1634234995.35441,1634234995.36451,1634235002.05691,1634235002.06491,1634235004.1577,1634235006.47523,1634235006.4768,1634235007.11404,1634235007.1088,1634235438.55303,0
60,4,1,3,10,4,3,c3_HowFace,1,open mouth?,78,F_692.jpg,1634234831.32263,1634234831.3323,161.271787872314,6.69614410400391,167.97428606987,170.075070848465,0.3,173.342955341339,0.533532619476318,173.881324996948,1,left,0.5187668800354,173.876487960815,604.470399847031,607.230399847031,1634234995.35441,1634234995.36451,1634235002.05691,1634235002.06491,1634235004.1577,1634235007.42558,1634235007.42724,1634235007.96395,1634235007.95911,1634235438.55303,1
60,4,1,3,10,5,3,c3_HowFace,2,open mouth?,77,F_584.jpg,1634234831.32263,1634234831.3323,161.271787872314,6.69614410400391,167.97428606987,170.075070848465,0.3,174.193272819519,1.10040950775146,175.298479785919,3,right,1.09259605407715,175.293682327271,604.470399847031,607.230399847031,1634234995.35441,1634234995.36451,1634235002.05691,1634235002.06491,1634235004.1577,1634235008.2759,1634235008.2778,1634235009.38111,1634235009.37631,1634235438.55303,0
60,4,1,3,10,6,3,c3_HowFace,1,open mouth?,73,F_403.jpg,1634234831.32263,1634234831.3323,161.271787872314,6.69614410400391,167.97428606987,170.075070848465,0.3,175.610467662811,0.600224256515503,176.215168943405,1,left,0.588077068328857,176.210691919327,604.470399847031,607.230399847031,1634234995.35441,1634234995.36451,1634235002.05691,1634235002.06491,1634235004.1577,1634235009.69309,1634235009.69807,1634235010.2978,1634235010.29332,1634235438.55303,1
60,4,1,3,10,7,3,c3_HowFace,1,open mouth?,75,F_086.jpg,1634234831.32263,1634234831.3323,161.271787872314,6.69614410400391,167.97428606987,170.075070848465,0.3,176.52747677803,0.600224256515503,177.13199590683,1,left,0.581450939178467,177.127701034546,604.470399847031,607.230399847031,1634234995.35441,1634234995.36451,1634235002.05691,1634235002.06491,1634235004.1577,1634235010.6101,1634235010.61484,1634235011.21462,1634235011.21033,1634235438.55303,1
60,4,1,3,10,8,3,c3_HowFace,2,open mouth?,79,F_648.jpg,1634234831.32263,1634234831.3323,161.271787872314,6.69614410400391,167.97428606987,170.075070848465,0.3,177.444485654831,0.600224018096924,178.048458805084,3,right,0.586667060852051,178.044709672928,604.470399847031,607.230399847031,1634234995.35441,1634234995.36451,1634235002.05691,1634235002.06491,1634235004.1577,1634235011.52711,1634235011.53143,1634235012.13108,1634235012.12734,1634235438.55303,0
60,4,1,3,11,1,4,c4_HowHand,1,pressing button?,88,H_019.jpg,1634234831.32263,1634234831.3323,178.11140083313,7.74648094177246,185.86429189682,187.965075960159,2.10078406333923,188.115131368637,0.80029821395874,188.931479921341,1,left,0.791935920715332,188.915429582596,604.470399847031,607.230399847031,1634235012.19403,1634235012.19728,1634235019.94692,1634235019.94859,1634235022.0477,1634235022.19776,1634235022.19957,1634235023.01411,1634235022.99806,1634235438.55303,1
60,4,1,3,11,2,4,c4_HowHand,2,pressing button?,87,H_024.jpg,1634234831.32263,1634234831.3323,178.11140083313,7.74648094177246,185.86429189682,187.965075960159,0.3,189.232214918137,0.716934204101562,189.950207939148,3,right,0.693785905838013,189.949149122238,604.470399847031,607.230399847031,1634235012.19403,1634235012.19728,1634235019.94692,1634235019.94859,1634235022.0477,1634235023.31484,1634235023.31649,1634235024.03283,1634235024.03178,1634235438.55303,0
60,4,1,3,11,3,4,c4_HowHand,2,pressing button?,85,H_130.jpg,1634234831.32263,1634234831.3323,178.11140083313,7.74648094177246,185.86429189682,187.965075960159,0.3,190.265933504105,0.65024209022522,190.917686929703,3,right,0.637935876846313,190.91617559433,604.470399847031,607.230399847031,1634235012.19403,1634235012.19728,1634235019.94692,1634235019.94859,1634235022.0477,1634235024.34856,1634235024.35012,1634235025.00031,1634235024.9988,1634235438.55303,0
60,4,1,3,11,4,4,c4_HowHand,1,pressing button?,83,H_502.jpg,1634234831.32263,1634234831.3323,178.11140083313,7.74648094177246,185.86429189682,187.965075960159,0.3,191.232960214615,0.700260877609253,191.934489955902,1,left,0.685521125793457,191.933221092224,604.470399847031,607.230399847031,1634235012.19403,1634235012.19728,1634235019.94692,1634235019.94859,1634235022.0477,1634235025.31559,1634235025.31758,1634235026.01712,1634235026.01585,1634235438.55303,1
60,4,1,3,11,5,4,c4_HowHand,2,pressing button?,81,H_261.jpg,1634234831.32263,1634234831.3323,178.11140083313,7.74648094177246,185.86429189682,187.965075960159,0.3,192.250006427765,0.666914224624634,192.917962779999,3,right,0.645869016647339,192.91692065239,604.470399847031,607.230399847031,1634235012.19403,1634235012.19728,1634235019.94692,1634235019.94859,1634235022.0477,1634235026.33263,1634235026.33415,1634235027.00059,1634235026.99955,1634235438.55303,0
60,4,1,3,11,6,4,c4_HowHand,1,pressing button?,86,H_332.jpg,1634234831.32263,1634234831.3323,178.11140083313,7.74648094177246,185.86429189682,187.965075960159,0.3,193.233706226349,0.566878795623779,193.801614990234,1,left,0.547957181930542,193.800585021973,604.470399847031,607.230399847031,1634235012.19403,1634235012.19728,1634235019.94692,1634235019.94859,1634235022.0477,1634235027.31633,1634235027.31793,1634235027.88424,1634235027.88321,1634235438.55303,1
60,4,1,3,11,7,4,c4_HowHand,1,pressing button?,82,H_126.jpg,1634234831.32263,1634234831.3323,178.11140083313,7.74648094177246,185.86429189682,187.965075960159,0.3,194.117369880676,0.516858816146851,194.635251989365,1,left,0.496554136276245,194.634228696823,604.470399847031,607.230399847031,1634235012.19403,1634235012.19728,1634235019.94692,1634235019.94859,1634235022.0477,1634235028.2,1634235028.20136,1634235028.71788,1634235028.71685,1634235438.55303,1
60,4,1,3,11,8,4,c4_HowHand,1,pressing button?,84,H_483.jpg,1634234831.32263,1634234831.3323,178.11140083313,7.74648094177246,185.86429189682,187.965075960159,0.3,194.95101307869,0.650243520736694,195.602377882004,1,left,0.630827903747559,195.601256599426,604.470399847031,607.230399847031,1634235012.19403,1634235012.19728,1634235019.94692,1634235019.94859,1634235022.0477,1634235029.03364,1634235029.03552,1634235029.685,1634235029.68388,1634235438.55303,1
60,4,1,3,12,1,2,c2_WhyHand,1,competing?,9,H_261.jpg,1634234831.32263,1634234831.3323,195.70129322052,7.94684076309204,203.654259672165,205.755042304993,2.10078263282776,205.905099143982,0.600223779678345,206.515366783142,1,left,0.582023859024048,206.50532292366,604.470399847031,607.230399847031,1634235029.78392,1634235029.7856,1634235037.73689,1634235037.74845,1634235039.83767,1634235039.98773,1634235039.99848,1634235040.59799,1634235040.58795,1634235438.55303,1
60,4,1,3,12,2,2,c2_WhyHand,2,competing?,12,H_483.jpg,1634234831.32263,1634234831.3323,195.70129322052,7.94684076309204,203.654259672165,205.755042304993,0.3,206.822107543945,0.65024209022522,207.474264850616,3,right,0.629262924194336,207.472349634171,604.470399847031,607.230399847031,1634235029.78392,1634235029.7856,1634235037.73689,1634235037.74845,1634235039.83767,1634235040.90473,1634235040.90676,1634235041.55689,1634235041.55498,1634235438.55303,0
60,4,1,3,12,3,2,c2_WhyHand,1,competing?,14,H_132.jpg,1634234831.32263,1634234831.3323,195.70129322052,7.94684076309204,203.654259672165,205.755042304993,0.3,207.789134492874,0.566877841949463,208.357652893066,1,left,0.545374870300293,208.356012334824,604.470399847031,607.230399847031,1634235029.78392,1634235029.7856,1634235037.73689,1634235037.74845,1634235039.83767,1634235041.87176,1634235041.87333,1634235042.44028,1634235042.43864,1634235438.55303,1
60,4,1,3,12,4,2,c2_WhyHand,2,competing?,10,H_126.jpg,1634234831.32263,1634234831.3323,195.70129322052,7.94684076309204,203.654259672165,205.755042304993,0.3,208.672797670364,0.733607292175293,209.414718856812,3,right,0.724590063095093,209.40640496254,604.470399847031,607.230399847031,1634235029.78392,1634235029.7856,1634235037.73689,1634235037.74845,1634235039.83767,1634235042.75542,1634235042.75703,1634235043.49734,1634235043.48903,1634235438.55303,0
60,4,1,3,12,5,2,c2_WhyHand,1,competing?,16,H_136.jpg,1634234831.32263,1634234831.3323,195.70129322052,7.94684076309204,203.654259672165,205.755042304993,0.3,209.723189344406,0.700260639190674,210.43139289856,3,right,0.690584897994995,210.423449983597,604.470399847031,607.230399847031,1634235029.78392,1634235029.7856,1634235037.73689,1634235037.74845,1634235039.83767,1634235043.80582,1634235043.80736,1634235044.51402,1634235044.50608,1634235438.55303,0
60,4,1,3,12,6,2,c2_WhyHand,2,competing?,11,H_502.jpg,1634234831.32263,1634234831.3323,195.70129322052,7.94684076309204,203.654259672165,205.755042304993,0.3,210.740235795975,0.016671895980835,210.76476978302,1,left,0.000257968902587891,210.756907691956,604.470399847031,607.230399847031,1634235029.78392,1634235029.7856,1634235037.73689,1634235037.74845,1634235039.83767,1634235044.82286,1634235044.82456,1634235044.8474,1634235044.83953,1634235438.55303,0
60,4,1,3,12,7,2,c2_WhyHand,1,competing?,13,H_003.jpg,1634234831.32263,1634234831.3323,195.70129322052,7.94684076309204,203.654259672165,205.755042304993,0.3,211.073692789078,0.633569478988647,211.715643873215,1,left,0.620950937271118,211.707262268066,604.470399847031,607.230399847031,1634235029.78392,1634235029.7856,1634235037.73689,1634235037.74845,1634235039.83767,1634235045.15632,1634235045.15846,1634235045.79827,1634235045.78989,1634235438.55303,1
60,4,1,3,12,8,2,c2_WhyHand,1,competing?,15,H_170.jpg,1634234831.32263,1634234831.3323,195.70129322052,7.94684076309204,203.654259672165,205.755042304993,0.3,212.024047365189,0.533532381057739,212.559181919098,1,left,0.510519027709961,212.557579746246,604.470399847031,607.230399847031,1634235029.78392,1634235029.7856,1634235037.73689,1634235037.74845,1634235039.83767,1634235046.10667,1634235046.10845,1634235046.64181,1634235046.64021,1634235438.55303,1
60,4,1,3,13,1,1,c1_WhyFace,1,self-doubt?,29,F_544.jpg,1634234831.32263,1634234831.3323,212.624271383286,9.09365558624268,221.727665653229,223.828449478149,2.10078382492065,223.978505125046,1.11708354949951,225.09863494873,1,left,1.09761309623718,225.095588674545,604.470399847031,607.230399847031,1634235046.7069,1634235046.71457,1634235055.81029,1634235055.81494,1634235057.91108,1634235058.06113,1634235058.0648,1634235059.18126,1634235059.17821,1634235438.55303,1
60,4,1,3,13,2,1,c1_WhyFace,2,self-doubt?,27,F_086.jpg,1634234831.32263,1634234831.3323,212.624271383286,9.09365558624268,221.727665653229,223.828449478149,0.3,225.41237329483,1.13375616073608,226.548453798294,3,right,1.11160612106323,226.546129455566,604.470399847031,607.230399847031,1634235046.7069,1634235046.71457,1634235055.81029,1634235055.81494,1634235057.91108,1634235059.495,1634235059.49818,1634235060.63108,1634235060.62876,1634235438.55303,0
60,4,1,3,13,3,1,c1_WhyFace,1,self-doubt?,25,F_798.jpg,1634234831.32263,1634234831.3323,212.624271383286,9.09365558624268,221.727665653229,223.828449478149,0.3,226.862914552689,0.716933727264404,227.582103004456,1,left,0.700232982635498,227.579848279953,604.470399847031,607.230399847031,1634235046.7069,1634235046.71457,1634235055.81029,1634235055.81494,1634235057.91108,1634235060.94554,1634235060.94814,1634235061.66473,1634235061.66247,1634235438.55303,1
60,4,1,3,13,4,1,c1_WhyFace,1,self-doubt?,26,F_111.jpg,1634234831.32263,1634234831.3323,212.624271383286,9.09365558624268,221.727665653229,223.828449478149,0.3,227.896633377075,0.616895437240601,228.515106906891,1,left,0.595638036727905,228.513528814316,604.470399847031,607.230399847031,1634235046.7069,1634235046.71457,1634235055.81029,1634235055.81494,1634235057.91108,1634235061.97926,1634235061.98135,1634235062.59773,1634235062.59615,1634235438.55303,1
60,4,1,3,13,5,1,c1_WhyFace,2,self-doubt?,31,F_774.jpg,1634234831.32263,1634234831.3323,212.624271383286,9.09365558624268,221.727665653229,223.828449478149,0.3,228.830315103531,0.700261354446411,229.532344808579,3,right,0.680823087692261,229.530576457977,604.470399847031,607.230399847031,1634235046.7069,1634235046.71457,1634235055.81029,1634235055.81494,1634235057.91108,1634235062.91294,1634235062.91476,1634235063.61497,1634235063.6132,1634235438.55303,0
60,4,1,3,13,6,1,c1_WhyFace,1,self-doubt?,28,F_754.jpg,1634234831.32263,1634234831.3323,212.624271383286,9.09365558624268,221.727665653229,223.828449478149,0.3,229.847360363007,0.65024209022522,230.499079933167,1,left,0.637385845184326,230.497602453232,604.470399847031,607.230399847031,1634235046.7069,1634235046.71457,1634235055.81029,1634235055.81494,1634235057.91108,1634235063.92999,1634235063.93178,1634235064.58171,1634235064.58023,1634235438.55303,1
60,4,1,3,13,7,1,c1_WhyFace,2,self-doubt?,32,F_128.jpg,1634234831.32263,1634234831.3323,212.624271383286,9.09365558624268,221.727665653229,223.828449478149,0.3,230.814388742447,0.650241613388062,231.465547790527,1,left,0.640841007232666,231.464630355835,604.470399847031,607.230399847031,1634235046.7069,1634235046.71457,1634235055.81029,1634235055.81494,1634235057.91108,1634235064.89701,1634235064.89872,1634235065.54817,1634235065.54726,1634235438.55303,0
60,4,1,3,13,8,1,c1_WhyFace,1,self-doubt?,30,F_584.jpg,1634234831.32263,1634234831.3323,212.624271383286,9.09365558624268,221.727665653229,223.828449478149,0.3,231.781415452957,1.01704597473145,232.800214996338,3,right,0.994034051895142,232.798461427689,604.470399847031,607.230399847031,1634235046.7069,1634235046.71457,1634235055.81029,1634235055.81494,1634235057.91108,1634235065.86404,1634235065.86576,1634235066.88284,1634235066.88109,1634235438.55303,0
60,4,1,3,14,1,3,c3_HowFace,1,looking at camera?,64,F_128.jpg,1634234831.32263,1634234831.3323,232.865152587891,7.90674734115601,240.784772386551,242.885550012589,2.1007776260376,243.035612335205,0.65024209022522,243.687379827499,1,left,0.628067016601562,243.68585442543,604.470399847031,607.230399847031,1634235066.94778,1634235066.94864,1634235074.8674,1634235074.86964,1634235076.96818,1634235077.11824,1634235077.12022,1634235077.77001,1634235077.76848,1634235438.55303,1
60,4,1,3,14,2,3,c3_HowFace,1,looking at camera?,60,F_618.jpg,1634234831.32263,1634234831.3323,232.865152587891,7.90674734115601,240.784772386551,242.885550012589,0.3,244.002638807297,0.550206184387207,244.553851833344,1,left,0.532592058181763,244.552844991684,604.470399847031,607.230399847031,1634235066.94778,1634235066.94864,1634235074.8674,1634235074.86964,1634235076.96818,1634235078.08526,1634235078.08709,1634235078.63648,1634235078.63547,1634235438.55303,1
60,4,1,3,14,3,3,c3_HowFace,1,looking at camera?,62,F_598.jpg,1634234831.32263,1634234831.3323,232.865152587891,7.90674734115601,240.784772386551,242.885550012589,0.3,244.869629611969,0.566878318786621,245.448128929138,1,left,0.55557107925415,245.436507930756,604.470399847031,607.230399847031,1634235066.94778,1634235066.94864,1634235074.8674,1634235074.86964,1634235076.96818,1634235078.95226,1634235078.95338,1634235079.53076,1634235079.51913,1634235438.55303,1
60,4,1,3,14,4,3,c3_HowFace,2,looking at camera?,63,F_743.jpg,1634234831.32263,1634234831.3323,232.865152587891,7.90674734115601,240.784772386551,242.885550012589,0.3,245.753292551041,0.61689567565918,246.381372919083,3,right,0.60863995552063,246.3701882267,604.470399847031,607.230399847031,1634235066.94778,1634235066.94864,1634235074.8674,1634235074.86964,1634235076.96818,1634235079.83592,1634235079.83768,1634235080.464,1634235080.45281,1634235438.55303,0
60,4,1,3,14,5,3,c3_HowFace,1,looking at camera?,61,F_774.jpg,1634234831.32263,1634234831.3323,232.865152587891,7.90674734115601,240.784772386551,242.885550012589,0.3,246.686972846985,0.583552122116089,247.28169178009,1,left,0.570633172988892,247.270524969101,604.470399847031,607.230399847031,1634235066.94778,1634235066.94864,1634235074.8674,1634235074.86964,1634235076.96818,1634235080.7696,1634235080.77127,1634235081.36432,1634235081.35315,1634235438.55303,1
60,4,1,3,14,6,3,c3_HowFace,2,looking at camera?,57,F_582.jpg,1634234831.32263,1634234831.3323,232.865152587891,7.90674734115601,240.784772386551,242.885550012589,0.3,247.587309112549,0.917009592056274,248.515474786758,3,right,0.907766103744507,248.504318704605,604.470399847031,607.230399847031,1634235066.94778,1634235066.94864,1634235074.8674,1634235074.86964,1634235076.96818,1634235081.66994,1634235081.67168,1634235082.5981,1634235082.58694,1634235438.55303,0
60,4,1,3,14,7,3,c3_HowFace,2,looking at camera?,58,F_754.jpg,1634234831.32263,1634234831.3323,232.865152587891,7.90674734115601,240.784772386551,242.885550012589,0.3,248.821102371216,0.833645343780518,249.656611909866,3,right,0.813000202178955,249.654747714996,604.470399847031,607.230399847031,1634235066.94778,1634235066.94864,1634235074.8674,1634235074.86964,1634235076.96818,1634235082.90373,1634235082.90537,1634235083.73924,1634235083.73737,1634235438.55303,0
60,4,1,3,14,8,3,c3_HowFace,1,looking at camera?,59,F_129.jpg,1634234831.32263,1634234831.3323,232.865152587891,7.90674734115601,240.784772386551,242.885550012589,0.3,249.971531143188,0.616897583007812,250.598150959015,1,left,0.606519937515259,250.588428726196,604.470399847031,607.230399847031,1634235066.94778,1634235066.94864,1634235074.8674,1634235074.86964,1634235076.96818,1634235084.05416,1634235084.05581,1634235084.68078,1634235084.67105,1634235438.55303,1
60,4,1,3,15,1,4,c4_HowHand,1,both hands?,123,H_167.jpg,1634234831.32263,1634234831.3323,250.671792974472,8.89010000228882,259.575113763809,261.67589758873,2.10078382492065,261.825952758789,0.750280380249023,262.581340780258,1,left,0.72885799407959,262.576233139038,604.470399847031,607.230399847031,1634235084.75442,1634235084.75537,1634235093.65774,1634235093.66537,1634235095.75852,1634235095.90858,1634235095.91503,1634235096.66397,1634235096.65886,1634235438.55303,1
60,4,1,3,15,2,4,c4_HowHand,2,both hands?,121,H_091.jpg,1634234831.32263,1634234831.3323,250.671792974472,8.89010000228882,259.575113763809,261.67589758873,0.3,262.893017282486,1.0670645236969,263.964718809128,3,right,1.05678296089172,263.960081806183,604.470399847031,607.230399847031,1634235084.75442,1634235084.75537,1634235093.65774,1634235093.66537,1634235095.75852,1634235096.97564,1634235096.97748,1634235098.04734,1634235098.04271,1634235438.55303,0
60,4,1,3,15,3,4,c4_HowHand,2,both hands?,125,H_627.jpg,1634234831.32263,1634234831.3323,250.671792974472,8.89010000228882,259.575113763809,261.67589758873,0.3,264.276866903305,0.950354814529419,265.231936922073,3,right,0.937630891799927,265.227221717834,604.470399847031,607.230399847031,1634235084.75442,1634235084.75537,1634235093.65774,1634235093.66537,1634235095.75852,1634235098.35949,1634235098.36111,1634235099.31456,1634235099.30985,1634235438.55303,0
60,4,1,3,15,4,4,c4_HowHand,1,both hands?,128,H_027.jpg,1634234831.32263,1634234831.3323,250.671792974472,8.89010000228882,259.575113763809,261.67589758873,0.3,265.54400633812,1.0337188243866,266.582064857483,1,left,1.01086592674255,266.577725162506,604.470399847031,607.230399847031,1634235084.75442,1634235084.75537,1634235093.65774,1634235093.66537,1634235095.75852,1634235099.62663,1634235099.63114,1634235100.66469,1634235100.66035,1634235438.55303,1
60,4,1,3,15,5,4,c4_HowHand,1,both hands?,122,H_111.jpg,1634234831.32263,1634234831.3323,250.671792974472,8.89010000228882,259.575113763809,261.67589758873,0.3,266.894509544373,0.633570194244385,267.531320800781,1,left,0.622939825057983,267.528079738617,604.470399847031,607.230399847031,1634235084.75442,1634235084.75537,1634235093.65774,1634235093.66537,1634235095.75852,1634235100.97714,1634235100.98118,1634235101.61395,1634235101.61071,1634235438.55303,1
60,4,1,3,15,6,4,c4_HowHand,2,both hands?,126,H_159.jpg,1634234831.32263,1634234831.3323,250.671792974472,8.89010000228882,259.575113763809,261.67589758873,0.3,267.844863643646,0.783626079559326,268.631452789307,3,right,0.765025854110718,268.628489723206,604.470399847031,607.230399847031,1634235084.75442,1634235084.75537,1634235093.65774,1634235093.66537,1634235095.75852,1634235101.92749,1634235101.9314,1634235102.71408,1634235102.71112,1634235438.55303,0
60,4,1,3,15,7,4,c4_HowHand,1,both hands?,124,H_581.jpg,1634234831.32263,1634234831.3323,250.671792974472,8.89010000228882,259.575113763809,261.67589758873,0.3,268.945274581909,0.683588027954102,269.63150094986,1,left,0.665358066558838,269.628862609863,604.470399847031,607.230399847031,1634235084.75442,1634235084.75537,1634235093.65774,1634235093.66537,1634235095.75852,1634235103.0279,1634235103.03068,1634235103.71413,1634235103.71149,1634235438.55303,1
60,4,1,3,15,8,4,c4_HowHand,1,both hands?,127,H_349.jpg,1634234831.32263,1634234831.3323,250.671792974472,8.89010000228882,259.575113763809,261.67589758873,0.3,269.945647945404,0.600223302841187,270.548020830154,1,left,0.592459917068481,270.545871248245,604.470399847031,607.230399847031,1634235084.75442,1634235084.75537,1634235093.65774,1634235093.66537,1634235095.75852,1634235104.02827,1634235104.0311,1634235104.63065,1634235104.6285,1634235438.55303,1
60,4,1,3,16,1,2,c2_WhyHand,1,self-protection?,89,H_443.jpg,1634234831.32263,1634234831.3323,270.62923573494,7.72267127037048,278.365454902649,280.466237773895,2.10078287124634,280.616294136047,0.616896390914917,281.234200944901,1,left,0.60451602935791,281.233190526962,604.470399847031,607.230399847031,1634235104.71186,1634235104.71403,1634235112.44808,1634235112.44958,1634235114.54886,1634235114.69892,1634235114.70043,1634235115.31683,1634235115.31582,1634235438.55303,1
60,4,1,3,16,2,2,c2_WhyHand,2,self-protection?,90,H_006.jpg,1634234831.32263,1634234831.3323,270.62923573494,7.72267127037048,278.365454902649,280.466237773895,0.3,281.549975624084,0.983698844909668,282.548130979538,3,right,0.976382970809937,282.533674468994,604.470399847031,607.230399847031,1634235104.71186,1634235104.71403,1634235112.44808,1634235112.44958,1634235114.54886,1634235115.6326,1634235115.63353,1634235116.63076,1634235116.6163,1634235438.55303,0
60,4,1,3,16,3,2,c2_WhyHand,1,self-protection?,91,H_581.jpg,1634234831.32263,1634234831.3323,270.62923573494,7.72267127037048,278.365454902649,280.466237773895,0.3,282.850460758209,0.63356876373291,283.485283842087,1,left,0.611936092376709,283.484029521942,604.470399847031,607.230399847031,1634235104.71186,1634235104.71403,1634235112.44808,1634235112.44958,1634235114.54886,1634235116.93309,1634235116.93418,1634235117.56791,1634235117.56666,1634235438.55303,1
60,4,1,3,16,4,2,c2_WhyHand,2,self-protection?,92,H_532.jpg,1634234831.32263,1634234831.3323,270.62923573494,7.72267127037048,278.365454902649,280.466237773895,0.3,283.800814857483,0.950353384017944,284.752740850449,3,right,0.937177896499634,284.751168241501,604.470399847031,607.230399847031,1634235104.71186,1634235104.71403,1634235112.44808,1634235112.44958,1634235114.54886,1634235117.88344,1634235117.88506,1634235118.83537,1634235118.83379,1634235438.55303,0
60,4,1,3,16,5,2,c2_WhyHand,1,self-protection?,96,H_027.jpg,1634234831.32263,1634234831.3323,270.62923573494,7.72267127037048,278.365454902649,280.466237773895,0.3,285.06795381546,0.850316524505615,285.932206859589,1,left,0.843813896179199,285.918270339966,604.470399847031,607.230399847031,1634235104.71186,1634235104.71403,1634235112.44808,1634235112.44958,1634235114.54886,1634235119.15058,1634235119.15209,1634235120.01483,1634235120.0009,1634235438.55303,1
60,4,1,3,16,6,2,c2_WhyHand,1,self-protection?,93,H_038.jpg,1634234831.32263,1634234831.3323,270.62923573494,7.72267127037048,278.365454902649,280.466237773895,0.3,286.235055675507,0.833642721176147,287.07034992218,1,left,0.817215204238892,287.068698396683,604.470399847031,607.230399847031,1634235104.71186,1634235104.71403,1634235112.44808,1634235112.44958,1634235114.54886,1634235120.31768,1634235120.31936,1634235121.15298,1634235121.15132,1634235438.55303,1
60,4,1,3,16,7,2,c2_WhyHand,2,self-protection?,95,H_332.jpg,1634234831.32263,1634234831.3323,270.62923573494,7.72267127037048,278.365454902649,280.466237773895,0.3,287.385484685898,0.783626079559326,288.170817842484,3,right,0.767172813415527,288.169110765457,604.470399847031,607.230399847031,1634235104.71186,1634235104.71403,1634235112.44808,1634235112.44958,1634235114.54886,1634235121.46811,1634235121.47006,1634235122.25344,1634235122.25174,1634235438.55303,0
60,4,1,3,16,8,2,c2_WhyHand,1,self-protection?,94,H_189.jpg,1634234831.32263,1634234831.3323,270.62923573494,7.72267127037048,278.365454902649,280.466237773895,0.3,288.485895624161,0.88366174697876,289.381415834427,3,right,0.874565839767456,289.36955737114,604.470399847031,607.230399847031,1634235104.71186,1634235104.71403,1634235112.44808,1634235112.44958,1634235114.54886,1634235122.56852,1634235122.57045,1634235123.46404,1634235123.45218,1634235438.55303,0
60,4,1,3,17,1,3,c3_HowFace,1,smiling?,118,F_759.jpg,1634234831.32263,1634234831.3323,289.45292257309,10.3790032863617,299.84012960434,301.940912237167,2.10078263282776,302.090968360901,0.750280141830444,302.848152866364,1,left,0.727385997772217,302.841248502731,604.470399847031,607.230399847031,1634235123.53555,1634235123.53697,1634235133.92276,1634235133.93156,1634235136.02354,1634235136.17359,1634235136.18146,1634235136.93078,1634235136.92387,1634235438.55303,1
60,4,1,3,17,2,3,c3_HowFace,2,smiling?,114,F_412.jpg,1634234831.32263,1634234831.3323,289.45292257309,10.3790032863617,299.84012960434,301.940912237167,0.3,303.158034076691,0.600222587585449,303.764671792984,3,right,0.594386100769043,303.758256664276,604.470399847031,607.230399847031,1634235123.53555,1634235123.53697,1634235133.92276,1634235133.93156,1634235136.02354,1634235137.24066,1634235137.24172,1634235137.8473,1634235137.84088,1634235438.55303,0
60,4,1,3,17,3,3,c3_HowFace,1,smiling?,117,F_593.jpg,1634234831.32263,1634234831.3323,289.45292257309,10.3790032863617,299.84012960434,301.940912237167,0.3,304.075040569305,0.500188589096069,304.581981887817,1,left,0.486278057098389,304.575229158401,604.470399847031,607.230399847031,1634235123.53555,1634235123.53697,1634235133.92276,1634235133.93156,1634235136.02354,1634235138.15767,1634235138.15969,1634235138.66461,1634235138.65786,1634235438.55303,1
60,4,1,3,17,4,3,c3_HowFace,2,smiling?,113,F_712.jpg,1634234831.32263,1634234831.3323,289.45292257309,10.3790032863617,299.84012960434,301.940912237167,0.3,304.892013540268,0.800297737121582,305.698664894104,3,right,0.786881923675537,305.69231127739,604.470399847031,607.230399847031,1634235123.53555,1634235123.53697,1634235133.92276,1634235133.93156,1634235136.02354,1634235138.97464,1634235138.97638,1634235139.78129,1634235139.77494,1634235438.55303,0
60,4,1,3,17,5,3,c3_HowFace,1,smiling?,115,F_695.jpg,1634234831.32263,1634234831.3323,289.45292257309,10.3790032863617,299.84012960434,301.940912237167,0.3,306.00909661293,0.51685905456543,306.531829824448,1,left,0.504801988601685,306.525955667496,604.470399847031,607.230399847031,1634235123.53555,1634235123.53697,1634235133.92276,1634235133.93156,1634235136.02354,1634235140.09172,1634235140.09371,1634235140.61446,1634235140.60858,1634235438.55303,1
60,4,1,3,17,6,3,c3_HowFace,1,smiling?,119,F_139.jpg,1634234831.32263,1634234831.3323,289.45292257309,10.3790032863617,299.84012960434,301.940912237167,0.3,306.842740287781,0.716934204101562,307.561305990219,1,left,0.694522142410278,307.559674491882,604.470399847031,607.230399847031,1634235123.53555,1634235123.53697,1634235133.92276,1634235133.93156,1634235136.02354,1634235140.92537,1634235140.92699,1634235141.64393,1634235141.6423,1634235438.55303,1
60,4,1,3,17,7,3,c3_HowFace,1,smiling?,116,F_083.jpg,1634234831.32263,1634234831.3323,289.45292257309,10.3790032863617,299.84012960434,301.940912237167,0.3,307.876459827423,0.483511924743652,308.365089883804,1,left,0.46947193145752,308.359971752167,604.470399847031,607.230399847031,1634235123.53555,1634235123.53697,1634235133.92276,1634235133.93156,1634235136.02354,1634235141.95909,1634235141.96066,1634235142.44772,1634235142.4426,1634235438.55303,1
60,4,1,3,17,8,3,c3_HowFace,2,smiling?,120,F_758.jpg,1634234831.32263,1634234831.3323,289.45292257309,10.3790032863617,299.84012960434,301.940912237167,0.3,308.676757802963,0.600224018096924,309.281949987412,3,right,0.582383155822754,309.27698182106,604.470399847031,607.230399847031,1634235123.53555,1634235123.53697,1634235133.92276,1634235133.93156,1634235136.02354,1634235142.75938,1634235142.76113,1634235143.36458,1634235143.35961,1634235438.55303,0
60,4,1,3,18,1,1,c1_WhyFace,1,admiring?,1,F_593.jpg,1634234831.32263,1634234831.3323,309.360346546173,8.26167130470276,317.630097141266,319.730880489349,2.1007833480835,319.880936374664,0.650241851806641,320.532708873749,1,left,0.641777992248535,320.531178226471,604.470399847031,607.230399847031,1634235143.44297,1634235143.44475,1634235151.71272,1634235151.71471,1634235153.81351,1634235153.96356,1634235153.96537,1634235154.61533,1634235154.6138,1634235438.55303,1
60,4,1,3,18,2,1,c1_WhyFace,2,admiring?,2,F_129.jpg,1634234831.32263,1634234831.3323,309.360346546173,8.26167130470276,317.630097141266,319.730880489349,0.3,320.847964277267,0.900335550308228,321.749694814682,1,left,0.887072086334229,321.748299827576,604.470399847031,607.230399847031,1634235143.44297,1634235143.44475,1634235151.71272,1634235151.71471,1634235153.81351,1634235154.93059,1634235154.93216,1634235155.83232,1634235155.83093,1634235438.55303,0
60,4,1,3,18,3,1,c1_WhyFace,1,admiring?,5,F_759.jpg,1634234831.32263,1634234831.3323,309.360346546173,8.26167130470276,317.630097141266,319.730880489349,0.3,322.065084686279,0.616895914077759,322.683005800247,1,left,0.605829000473022,322.681980600357,604.470399847031,607.230399847031,1634235143.44297,1634235143.44475,1634235151.71272,1634235151.71471,1634235153.81351,1634235156.14771,1634235156.14954,1634235156.76563,1634235156.76461,1634235438.55303,1
60,4,1,3,18,4,1,c1_WhyFace,2,admiring?,6,F_692.jpg,1634234831.32263,1634234831.3323,309.360346546173,8.26167130470276,317.630097141266,319.730880489349,0.3,322.998765697479,0.866989850997925,323.867658843994,1,left,0.852142095565796,323.865755548477,604.470399847031,607.230399847031,1634235143.44297,1634235143.44475,1634235151.71272,1634235151.71471,1634235153.81351,1634235157.08139,1634235157.08304,1634235157.95028,1634235157.94838,1634235438.55303,0
60,4,1,3,18,5,1,c1_WhyFace,1,admiring?,4,F_779.jpg,1634234831.32263,1634234831.3323,309.360346546173,8.26167130470276,317.630097141266,319.730880489349,0.3,324.182540645599,1.00037360191345,325.198586931229,1,left,0.992452144622803,325.182914247513,604.470399847031,607.230399847031,1634235143.44297,1634235143.44475,1634235151.71272,1634235151.71471,1634235153.81351,1634235158.26517,1634235158.26661,1634235159.28121,1634235159.26554,1634235438.55303,1
60,4,1,3,18,6,1,c1_WhyFace,1,admiring?,8,F_590.jpg,1634234831.32263,1634234831.3323,309.360346546173,8.26167130470276,317.630097141266,319.730880489349,0.3,325.499698867798,0.650241136550903,326.151620855331,1,left,0.635761022567749,326.149940004349,604.470399847031,607.230399847031,1634235143.44297,1634235143.44475,1634235151.71272,1634235151.71471,1634235153.81351,1634235159.58232,1634235159.58401,1634235160.23425,1634235160.23257,1634235438.55303,1
60,4,1,3,18,7,1,c1_WhyFace,1,admiring?,7,F_648.jpg,1634234831.32263,1634234831.3323,309.360346546173,8.26167130470276,317.630097141266,319.730880489349,0.3,326.466725578308,0.666915893554688,327.135080804825,1,left,0.65316104888916,327.133641471863,604.470399847031,607.230399847031,1634235143.44297,1634235143.44475,1634235151.71272,1634235151.71471,1634235153.81351,1634235160.54935,1634235160.55086,1634235161.21771,1634235161.21627,1634235438.55303,1
60,4,1,3,18,8,1,c1_WhyFace,2,admiring?,3,F_110.jpg,1634234831.32263,1634234831.3323,309.360346546173,8.26167130470276,317.630097141266,319.730880489349,0.3,327.450425376892,0.733607292175293,328.185594787598,3,right,0.711328029632568,328.184032669067,604.470399847031,607.230399847031,1634235143.44297,1634235143.44475,1634235151.71272,1634235151.71471,1634235153.81351,1634235161.53305,1634235161.53461,1634235162.26822,1634235162.26666,1634235438.55303,0
60,4,1,3,19,1,2,c2_WhyHand,1,competing?,9,H_261.jpg,1634234831.32263,1634234831.3323,328.250723590851,7.26118230819702,335.520101299286,337.620884885788,2.10078358650208,337.770942440033,0.583549976348877,338.35600279808,1,left,0.557974815368652,338.354492416382,604.470399847031,607.230399847031,1634235162.33335,1634235162.3481,1634235169.60273,1634235169.61555,1634235171.70351,1634235171.85357,1634235171.8649,1634235172.43863,1634235172.43712,1634235438.55303,1
60,4,1,3,19,2,2,c2_WhyHand,1,competing?,15,H_170.jpg,1634234831.32263,1634234831.3323,328.250723590851,7.26118230819702,335.520101299286,337.620884885788,0.3,338.671276798248,0.566878080368042,339.239242782593,1,left,0.544989824295044,339.238154878616,604.470399847031,607.230399847031,1634235162.33335,1634235162.3481,1634235169.60273,1634235169.61555,1634235171.70351,1634235172.7539,1634235172.75514,1634235173.32187,1634235173.32078,1634235438.55303,1
60,4,1,3,19,3,2,c2_WhyHand,2,competing?,12,H_483.jpg,1634234831.32263,1634234831.3323,328.250723590851,7.26118230819702,335.520101299286,337.620884885788,0.3,339.554940214157,0.700260400772095,340.25669883728,3,right,0.684449911117554,340.255200614929,604.470399847031,607.230399847031,1634235162.33335,1634235162.3481,1634235169.60273,1634235169.61555,1634235171.70351,1634235173.63757,1634235173.63857,1634235174.33932,1634235174.33783,1634235438.55303,0
60,4,1,3,19,4,2,c2_WhyHand,1,competing?,14,H_132.jpg,1634234831.32263,1634234831.3323,328.250723590851,7.26118230819702,335.520101299286,337.620884885788,0.3,340.57198595047,0.550204992294312,341.123930921555,1,left,0.530112981796265,341.122190942764,604.470399847031,607.230399847031,1634235162.33335,1634235162.3481,1634235169.60273,1634235169.61555,1634235171.70351,1634235174.65461,1634235174.65638,1634235175.20656,1634235175.20482,1634235438.55303,1
60,4,1,3,19,5,2,c2_WhyHand,1,competing?,16,H_136.jpg,1634234831.32263,1634234831.3323,328.250723590851,7.26118230819702,335.520101299286,337.620884885788,0.3,341.438975801468,0.583551168441772,342.032068004608,1,left,0.571455955505371,342.02252696991,604.470399847031,607.230399847031,1634235162.33335,1634235162.3481,1634235169.60273,1634235169.61555,1634235171.70351,1634235175.5216,1634235175.52351,1634235176.11469,1634235176.10515,1634235438.55303,1
60,4,1,3,19,6,2,c2_WhyHand,1,competing?,13,H_003.jpg,1634234831.32263,1634234831.3323,328.250723590851,7.26118230819702,335.520101299286,337.620884885788,0.3,342.339311351776,0.616897344589233,342.965126981735,1,left,0.601893901824951,342.956208696365,604.470399847031,607.230399847031,1634235162.33335,1634235162.3481,1634235169.60273,1634235169.61555,1634235171.70351,1634235176.42194,1634235176.42322,1634235177.04775,1634235177.03883,1634235438.55303,1
60,4,1,3,19,7,2,c2_WhyHand,2,competing?,10,H_126.jpg,1634234831.32263,1634234831.3323,328.250723590851,7.26118230819702,335.520101299286,337.620884885788,0.3,343.272992601395,0.700261354446411,343.974831809998,3,right,0.681440114974976,343.973253955841,604.470399847031,607.230399847031,1634235162.33335,1634235162.3481,1634235169.60273,1634235169.61555,1634235171.70351,1634235177.35562,1634235177.35736,1634235178.05746,1634235178.05588,1634235438.55303,0
60,4,1,3,19,8,2,c2_WhyHand,2,competing?,11,H_502.jpg,1634234831.32263,1634234831.3323,328.250723590851,7.26118230819702,335.520101299286,337.620884885788,0.3,344.290038576126,0.716933488845825,345.00847577095,3,right,0.695482969284058,345.006972064972,604.470399847031,607.230399847031,1634235162.33335,1634235162.3481,1634235169.60273,1634235169.61555,1634235171.70351,1634235178.37266,1634235178.3745,1634235179.0911,1634235179.0896,1634235438.55303,0
60,4,1,3,20,1,4,c4_HowHand,1,reaching?,111,H_003.jpg,1634234831.32263,1634234831.3323,345.090336551666,11.9015643596649,357.01144908905,359.095560779572,2.08411169052124,359.245616664886,0.666914701461792,359.915120830536,1,left,0.643489122390747,359.912531366348,604.470399847031,607.230399847031,1634235179.17296,1634235179.17477,1634235191.09408,1634235191.09614,1634235193.17819,1634235193.32824,1634235193.33139,1634235193.99775,1634235193.99516,1634235438.55303,1
60,4,1,3,20,2,4,c4_HowHand,1,reaching?,110,H_364.jpg,1634234831.32263,1634234831.3323,345.090336551666,11.9015643596649,357.01144908905,359.095560779572,0.3,360.229316940308,0.683587789535522,360.914783945084,1,left,0.669564008712769,360.912904729843,604.470399847031,607.230399847031,1634235179.17296,1634235179.17477,1634235191.09408,1634235191.09614,1634235193.17819,1634235194.31194,1634235194.31458,1634235194.99741,1634235194.99553,1634235438.55303,1
60,4,1,3,20,3,4,c4_HowHand,2,reaching?,108,H_532.jpg,1634234831.32263,1634234831.3323,345.090336551666,11.9015643596649,357.01144908905,359.095560779572,0.3,361.229688634872,0.850317716598511,362.081882944107,3,right,0.834012985229492,362.080006351471,604.470399847031,607.230399847031,1634235179.17296,1634235179.17477,1634235191.09408,1634235191.09614,1634235193.17819,1634235195.31231,1634235195.31472,1634235196.16451,1634235196.16263,1634235438.55303,0
60,4,1,3,20,4,4,c4_HowHand,1,reaching?,106,H_006.jpg,1634234831.32263,1634234831.3323,345.090336551666,11.9015643596649,357.01144908905,359.095560779572,0.3,362.39679192543,0.650241374969482,363.048772802353,1,left,0.630885124206543,363.0470333004,604.470399847031,607.230399847031,1634235179.17296,1634235179.17477,1634235191.09408,1634235191.09614,1634235193.17819,1634235196.47942,1634235196.4816,1634235197.1314,1634235197.12966,1634235438.55303,1
60,4,1,3,20,5,4,c4_HowHand,2,reaching?,105,H_438.jpg,1634234831.32263,1634234831.3323,345.090336551666,11.9015643596649,357.01144908905,359.095560779572,0.3,363.363817920685,0.733607530593872,364.098369827271,1,left,0.72324013710022,364.097425451279,604.470399847031,607.230399847031,1634235179.17296,1634235179.17477,1634235191.09408,1634235191.09614,1634235193.17819,1634235197.44644,1634235197.44807,1634235198.181,1634235198.18005,1634235438.55303,0
60,4,1,3,20,6,4,c4_HowHand,1,reaching?,107,H_007.jpg,1634234831.32263,1634234831.3323,345.090336551666,11.9015643596649,357.01144908905,359.095560779572,0.3,364.414210309982,0.750279903411865,365.166290988922,1,left,0.730448007583618,365.164490213394,604.470399847031,607.230399847031,1634235179.17296,1634235179.17477,1634235191.09408,1634235191.09614,1634235193.17819,1634235198.49684,1634235198.4985,1634235199.24892,1634235199.24712,1634235438.55303,1
60,4,1,3,20,7,4,c4_HowHand,1,reaching?,109,H_474.jpg,1634234831.32263,1634234831.3323,345.090336551666,11.9015643596649,357.01144908905,359.095560779572,0.3,365.481274833679,0.833643436431885,366.316160907745,1,left,0.817751884460449,366.314918270111,604.470399847031,607.230399847031,1634235179.17296,1634235179.17477,1634235191.09408,1634235191.09614,1634235193.17819,1634235199.5639,1634235199.56564,1634235200.39879,1634235200.39754,1634235438.55303,1
60,4,1,3,20,8,4,c4_HowHand,2,reaching?,112,H_132.jpg,1634234831.32263,1634234831.3323,345.090336551666,11.9015643596649,357.01144908905,359.095560779572,0.3,366.63170384407,1.08373785018921,367.71646188736,3,right,1.06416893005371,367.71544169426,604.470399847031,607.230399847031,1634235179.17296,1634235179.17477,1634235191.09408,1634235191.09614,1634235193.17819,1634235200.71433,1634235200.7157,1634235201.79909,1634235201.79807,1634235438.55303,0
60,4,1,3,21,1,3,c3_HowFace,1,open mouth?,73,F_403.jpg,1634234831.32263,1634234831.3323,367.798805704117,7.03307127952576,374.851435413361,376.935546388626,2.0841109752655,377.085602750778,0.583550691604614,377.670243968964,1,left,0.550959825515747,377.669153442383,604.470399847031,607.230399847031,1634235201.88143,1634235201.88311,1634235208.93406,1634235208.93584,1634235211.01817,1634235211.16823,1634235211.18167,1634235211.75287,1634235211.75178,1634235438.55303,1
60,4,1,3,21,2,3,c3_HowFace,2,open mouth?,79,F_648.jpg,1634234831.32263,1634234831.3323,367.798805704117,7.03307127952576,374.851435413361,376.935546388626,0.3,377.985938777924,0.53353214263916,378.531812896729,3,right,0.526083946228027,378.519470920563,604.470399847031,607.230399847031,1634235201.88143,1634235201.88311,1634235208.93406,1634235208.93584,1634235211.01817,1634235212.06856,1634235212.07007,1634235212.61444,1634235212.6021,1634235438.55303,0
60,4,1,3,21,3,3,c3_HowFace,1,open mouth?,74,F_776.jpg,1634234831.32263,1634234831.3323,367.798805704117,7.03307127952576,374.851435413361,376.935546388626,0.3,378.836255779266,0.50018572807312,379.348142852783,1,left,0.489876985549927,379.336441507339,604.470399847031,607.230399847031,1634235201.88143,1634235201.88311,1634235208.93406,1634235208.93584,1634235211.01817,1634235212.91888,1634235212.92071,1634235213.43077,1634235213.41907,1634235438.55303,1
60,4,1,3,21,4,3,c3_HowFace,2,open mouth?,77,F_584.jpg,1634234831.32263,1634234831.3323,367.798805704117,7.03307127952576,374.851435413361,376.935546388626,0.3,379.653226604462,0.633570432662964,380.288519849777,3,right,0.614019870758057,380.286797037125,604.470399847031,607.230399847031,1634235201.88143,1634235201.88311,1634235208.93406,1634235208.93584,1634235211.01817,1634235213.73585,1634235213.73754,1634235214.37115,1634235214.36942,1634235438.55303,0
60,4,1,3,21,5,3,c3_HowFace,1,open mouth?,80,F_844.jpg,1634234831.32263,1634234831.3323,367.798805704117,7.03307127952576,374.851435413361,376.935546388626,0.3,380.603581180573,0.583551645278931,381.198143949509,1,left,0.572381973266602,381.187132825851,604.470399847031,607.230399847031,1634235201.88143,1634235201.88311,1634235208.93406,1634235208.93584,1634235211.01817,1634235214.68621,1634235214.6878,1634235215.28077,1634235215.26976,1634235438.55303,1
60,4,1,3,21,6,3,c3_HowFace,1,open mouth?,78,F_692.jpg,1634234831.32263,1634234831.3323,367.798805704117,7.03307127952576,374.851435413361,376.935546388626,0.3,381.503916730881,0.516860008239746,382.0226628685,1,left,0.493019104003906,382.02077673912,604.470399847031,607.230399847031,1634235201.88143,1634235201.88311,1634235208.93406,1634235208.93584,1634235211.01817,1634235215.58654,1634235215.58816,1634235216.10529,1634235216.1034,1634235438.55303,1
60,4,1,3,21,7,3,c3_HowFace,1,open mouth?,75,F_086.jpg,1634234831.32263,1634234831.3323,367.798805704117,7.03307127952576,374.851435413361,376.935546388626,0.3,382.337559928894,0.483514547348022,382.831522932053,1,left,0.469789028167725,382.821074476242,604.470399847031,607.230399847031,1634235201.88143,1634235201.88311,1634235208.93406,1634235208.93584,1634235211.01817,1634235216.42019,1634235216.42176,1634235216.91415,1634235216.9037,1634235438.55303,1
60,4,1,3,21,8,3,c3_HowFace,2,open mouth?,76,F_544.jpg,1634234831.32263,1634234831.3323,367.798805704117,7.03307127952576,374.851435413361,376.935546388626,0.3,383.137859096527,0.550205945968628,383.689146986008,3,right,0.530555963516235,383.688065042496,604.470399847031,607.230399847031,1634235201.88143,1634235201.88311,1634235208.93406,1634235208.93584,1634235211.01817,1634235217.22049,1634235217.22196,1634235217.77177,1634235217.77069,1634235438.55303,0
60,4,1,3,22,1,1,c1_WhyFace,1,argument?,42,F_403.jpg,1634234831.32263,1634234831.3323,383.754756441116,9.75313448905945,393.525066604614,395.625849714279,2.10078310966492,395.775907268524,1.06706213951111,396.84794878006,1,left,1.06011891365051,396.842969408035,604.470399847031,607.230399847031,1634235217.83738,1634235217.84803,1634235227.60769,1634235227.60905,1634235229.70848,1634235229.85853,1634235229.86017,1634235230.93057,1634235230.9256,1634235438.55303,1
60,4,1,3,22,2,1,c1_WhyFace,2,argument?,46,F_844.jpg,1634234831.32263,1634234831.3323,383.754756441116,9.75313448905945,393.525066604614,395.625849714279,0.3,397.159756174088,0.650241374969482,397.815134992599,3,right,0.643484115600586,397.809997549057,604.470399847031,607.230399847031,1634235217.83738,1634235217.84803,1634235227.60769,1634235227.60905,1634235229.70848,1634235231.24238,1634235231.244,1634235231.89776,1634235231.89262,1634235438.55303,0
60,4,1,3,22,3,1,c1_WhyFace,1,argument?,41,F_712.jpg,1634234831.32263,1634234831.3323,383.754756441116,9.75313448905945,393.525066604614,395.625849714279,0.3,398.126782407761,0.850317716598511,398.981524934769,1,left,0.836911916732788,398.977100124359,604.470399847031,607.230399847031,1634235217.83738,1634235217.84803,1634235227.60769,1634235227.60905,1634235229.70848,1634235232.20941,1634235232.21162,1634235233.06415,1634235233.05973,1634235438.55303,1
60,4,1,3,22,4,1,c1_WhyFace,1,argument?,48,F_758.jpg,1634234831.32263,1634234831.3323,383.754756441116,9.75313448905945,393.525066604614,395.625849714279,0.3,399.293884744644,0.633569002151489,399.931351890564,1,left,0.620845079421997,399.927453746796,604.470399847031,607.230399847031,1634235217.83738,1634235217.84803,1634235227.60769,1634235227.60905,1634235229.70848,1634235233.37651,1634235233.38157,1634235234.01398,1634235234.01008,1634235438.55303,1
60,4,1,3,22,5,1,c1_WhyFace,2,argument?,45,F_433.jpg,1634234831.32263,1634234831.3323,383.754756441116,9.75313448905945,393.525066604614,395.625849714279,0.3,400.244238605499,0.866990327835083,401.112846841812,1,left,0.84213399887085,401.111228933334,604.470399847031,607.230399847031,1634235217.83738,1634235217.84803,1634235227.60769,1634235227.60905,1634235229.70848,1634235234.32686,1634235234.3312,1634235235.19547,1634235235.19386,1634235438.55303,0
60,4,1,3,22,6,1,c1_WhyFace,1,argument?,43,F_716.jpg,1634234831.32263,1634234831.3323,383.754756441116,9.75313448905945,393.525066604614,395.625849714279,0.3,401.428013315201,0.583551406860352,402.015323867798,1,left,0.571525096893311,402.011564722061,604.470399847031,607.230399847031,1634235217.83738,1634235217.84803,1634235227.60769,1634235227.60905,1634235229.70848,1634235235.51064,1634235235.51468,1634235236.09795,1634235236.09419,1634235438.55303,1
60,4,1,3,22,7,1,c1_WhyFace,2,argument?,44,F_139.jpg,1634234831.32263,1634234831.3323,383.754756441116,9.75313448905945,393.525066604614,395.625849714279,0.3,402.328349819183,0.650241851806641,402.982078781128,3,right,0.638774156570435,402.97859167099,604.470399847031,607.230399847031,1634235217.83738,1634235217.84803,1634235227.60769,1634235227.60905,1634235229.70848,1634235236.41098,1634235236.41478,1634235237.0647,1634235237.06122,1634235438.55303,0
60,4,1,3,22,8,1,c1_WhyFace,1,argument?,47,F_743.jpg,1634234831.32263,1634234831.3323,383.754756441116,9.75313448905945,393.525066604614,395.625849714279,0.3,403.295376768112,0.716933965682983,404.015389909744,1,left,0.700359106063843,404.012310733795,604.470399847031,607.230399847031,1634235217.83738,1634235217.84803,1634235227.60769,1634235227.60905,1634235229.70848,1634235237.378,1634235237.3814,1634235238.09802,1634235238.09494,1634235438.55303,1
60,4,1,3,23,1,2,c2_WhyHand,1,helping?,39,H_024.jpg,1634234831.32263,1634234831.3323,404.095675935745,7.6324028968811,411.731856336594,413.832639923096,2.10078358650208,413.982695569992,0.716933727264404,414.70135187149,1,left,0.685750961303711,414.699629297256,604.470399847031,607.230399847031,1634235238.1783,1634235238.18063,1634235245.81448,1634235245.83165,1634235247.91527,1634235248.06532,1634235248.08153,1634235248.78398,1634235248.78226,1634235438.55303,1
60,4,1,3,23,2,2,c2_WhyHand,1,helping?,36,H_349.jpg,1634234831.32263,1634234831.3323,404.095675935745,7.6324028968811,411.731856336594,413.832639923096,0.3,415.016413917542,0.666915416717529,415.684869995117,1,left,0.645695924758911,415.683329334259,604.470399847031,607.230399847031,1634235238.1783,1634235238.18063,1634235245.81448,1634235245.83165,1634235247.91527,1634235249.09904,1634235249.10073,1634235249.7675,1634235249.76596,1634235438.55303,1
60,4,1,3,23,3,2,c2_WhyHand,1,helping?,38,H_077.jpg,1634234831.32263,1634234831.3323,404.095675935745,7.6324028968811,411.731856336594,413.832639923096,0.3,416.000114431381,0.533532619476318,416.548470964432,1,left,0.525760889053345,416.533647050858,604.470399847031,607.230399847031,1634235238.1783,1634235238.18063,1634235245.81448,1634235245.83165,1634235247.91527,1634235250.08274,1634235250.08461,1634235250.6311,1634235250.61627,1634235438.55303,1
60,4,1,3,23,4,2,c2_WhyHand,1,helping?,37,H_474.jpg,1634234831.32263,1634234831.3323,404.095675935745,7.6324028968811,411.731856336594,413.832639923096,0.3,416.850431909561,0.600223779678345,417.464706888199,1,left,0.591331005096436,417.45065568924,604.470399847031,607.230399847031,1634235238.1783,1634235238.18063,1634235245.81448,1634235245.83165,1634235247.91527,1634235250.93306,1634235250.93465,1634235251.54733,1634235251.53328,1634235438.55303,1
60,4,1,3,23,5,2,c2_WhyHand,2,helping?,33,H_091.jpg,1634234831.32263,1634234831.3323,404.095675935745,7.6324028968811,411.731856336594,413.832639923096,0.3,417.76744102478,0.933680295944214,418.715566864014,3,right,0.924715995788574,418.701121320724,604.470399847031,607.230399847031,1634235238.1783,1634235238.18063,1634235245.81448,1634235245.83165,1634235247.91527,1634235251.85007,1634235251.85191,1634235252.79819,1634235252.78375,1634235438.55303,0
60,4,1,3,23,6,2,c2_WhyHand,2,helping?,35,H_159.jpg,1634234831.32263,1634234831.3323,404.095675935745,7.6324028968811,411.731856336594,413.832639923096,0.3,419.017906656265,0.917009115219116,419.9487059021,3,right,0.905548810958862,419.934915771484,604.470399847031,607.230399847031,1634235238.1783,1634235238.18063,1634235245.81448,1634235245.83165,1634235247.91527,1634235253.10053,1634235253.10246,1634235254.03133,1634235254.01754,1634235438.55303,0
60,4,1,3,23,7,2,c2_WhyHand,1,helping?,34,H_111.jpg,1634234831.32263,1634234831.3323,404.095675935745,7.6324028968811,411.731856336594,413.832639923096,0.3,420.251699199677,0.583552360534668,420.836995830536,1,left,0.564623117446899,420.835251560211,604.470399847031,607.230399847031,1634235238.1783,1634235238.18063,1634235245.81448,1634235245.83165,1634235247.91527,1634235254.33433,1634235254.33606,1634235254.91962,1634235254.91788,1634235438.55303,1
60,4,1,3,23,8,2,c2_WhyHand,2,helping?,40,H_012.jpg,1634234831.32263,1634234831.3323,404.095675935745,7.6324028968811,411.731856336594,413.832639923096,0.3,421.15203546524,0.533533334732056,421.687329998016,1,left,0.517838001251221,421.685568799973,604.470399847031,607.230399847031,1634235238.1783,1634235238.18063,1634235245.81448,1634235245.83165,1634235247.91527,1634235255.23466,1634235255.23623,1634235255.76996,1634235255.76819,1634235438.55303,0
60,4,1,3,24,1,4,c4_HowHand,1,both hands?,122,H_111.jpg,1634234831.32263,1634234831.3323,421.768931856155,8.0289740562439,429.805262556076,431.90604590416,2.1007833480835,432.056102981567,0.633568525314331,432.690867891312,1,left,0.606274127960205,432.689671506882,604.470399847031,607.230399847031,1634235255.85156,1634235255.85309,1634235263.88789,1634235263.89847,1634235265.98867,1634235266.13873,1634235266.14781,1634235266.77349,1634235266.7723,1634235438.55303,1
60,4,1,3,24,2,4,c4_HowHand,1,both hands?,128,H_027.jpg,1634234831.32263,1634234831.3323,421.768931856155,8.0289740562439,429.805262556076,431.90604590416,0.3,433.006456365585,0.666915655136108,433.681737890244,1,left,0.655347108840942,433.673372020721,604.470399847031,607.230399847031,1634235255.85156,1634235255.85309,1634235263.88789,1634235263.89847,1634235265.98867,1634235267.08908,1634235267.09108,1634235267.76436,1634235267.756,1634235438.55303,1
60,4,1,3,24,3,4,c4_HowHand,2,both hands?,121,H_091.jpg,1634234831.32263,1634234831.3323,421.768931856155,8.0289740562439,429.805262556076,431.90604590416,0.3,433.990156641006,0.616897106170654,434.615403881073,3,right,0.600280046463013,434.607053747177,604.470399847031,607.230399847031,1634235255.85156,1634235255.85309,1634235263.88789,1634235263.89847,1634235265.98867,1634235268.07278,1634235268.07453,1634235268.69803,1634235268.68968,1634235438.55303,0
60,4,1,3,24,4,4,c4_HowHand,1,both hands?,123,H_167.jpg,1634234831.32263,1634234831.3323,421.768931856155,8.0289740562439,429.805262556076,431.90604590416,0.3,434.923838367462,0.70026159286499,435.625328769684,1,left,0.681432008743286,435.624099960327,604.470399847031,607.230399847031,1634235255.85156,1634235255.85309,1634235263.88789,1634235263.89847,1634235265.98867,1634235269.00646,1634235269.00857,1634235269.70795,1634235269.70673,1634235438.55303,1
60,4,1,3,24,5,4,c4_HowHand,1,both hands?,124,H_581.jpg,1634234831.32263,1634234831.3323,421.768931856155,8.0289740562439,429.805262556076,431.90604590416,0.3,435.940884580612,0.766952276229858,436.714757909775,1,left,0.750191211700439,436.707836856842,604.470399847031,607.230399847031,1634235255.85156,1634235255.85309,1634235263.88789,1634235263.89847,1634235265.98867,1634235270.02351,1634235270.02522,1634235270.79738,1634235270.79046,1634235438.55303,1
60,4,1,3,24,6,4,c4_HowHand,2,both hands?,126,H_159.jpg,1634234831.32263,1634234831.3323,421.768931856155,8.0289740562439,429.805262556076,431.90604590416,0.3,437.024621953964,0.650241374969482,437.681357851028,3,right,0.636938095092773,437.674863328934,604.470399847031,607.230399847031,1634235255.85156,1634235255.85309,1634235263.88789,1634235263.89847,1634235265.98867,1634235271.10725,1634235271.10902,1634235271.76398,1634235271.75749,1634235438.55303,0
60,4,1,3,24,7,4,c4_HowHand,1,both hands?,127,H_349.jpg,1634234831.32263,1634234831.3323,421.768931856155,8.0289740562439,429.805262556076,431.90604590416,0.3,437.991650094986,0.500185489654541,438.492896785736,1,left,0.481290102005005,438.491835584641,604.470399847031,607.230399847031,1634235255.85156,1634235255.85309,1634235263.88789,1634235263.89847,1634235265.98867,1634235272.07428,1634235272.07604,1634235272.57552,1634235272.57446,1634235438.55303,1
60,4,1,3,24,8,4,c4_HowHand,2,both hands?,125,H_627.jpg,1634234831.32263,1634234831.3323,421.768931856155,8.0289740562439,429.805262556076,431.90604590416,0.3,438.808620920181,0.700260639190674,439.515589942932,3,right,0.686026096343994,439.508881559372,604.470399847031,607.230399847031,1634235255.85156,1634235255.85309,1634235263.88789,1634235263.89847,1634235265.98867,1634235272.89125,1634235272.89298,1634235273.59822,1634235273.59151,1634235438.55303,0
60,4,1,3,25,1,2,c2_WhyHand,1,healthy?,18,H_438.jpg,1634234831.32263,1634234831.3323,439.592245569229,7.72266221046448,447.328465213776,449.429247131348,2.10078191757202,449.579309215546,0.750274419784546,450.332208862305,1,left,0.733623027801514,450.32958363533,604.470399847031,607.230399847031,1634235273.67487,1634235273.68141,1634235281.41109,1634235281.41494,1634235283.51187,1634235283.66194,1634235283.66479,1634235284.41483,1634235284.41221,1634235438.55303,1
60,4,1,3,25,2,2,c2_WhyHand,1,healthy?,23,H_364.jpg,1634234831.32263,1634234831.3323,439.592245569229,7.72266221046448,447.328465213776,449.429247131348,0.3,450.646368732452,0.800297737121582,451.447956790924,1,left,0.790073156356812,451.446666469574,604.470399847031,607.230399847031,1634235273.67487,1634235273.68141,1634235281.41109,1634235281.41494,1634235283.51187,1634235284.72899,1634235284.73108,1634235285.53058,1634235285.52929,1634235438.55303,1
60,4,1,3,25,3,2,c2_WhyHand,1,healthy?,17,H_362.jpg,1634234831.32263,1634234831.3323,439.592245569229,7.72266221046448,447.328465213776,449.429247131348,0.3,451.763451805115,0.633569717407227,452.398122777939,1,left,0.622637987136841,452.397021522522,604.470399847031,607.230399847031,1634235273.67487,1634235273.68141,1634235281.41109,1634235281.41494,1634235283.51187,1634235285.84608,1634235285.84785,1634235286.48075,1634235286.47965,1634235438.55303,1
60,4,1,3,25,4,2,c2_WhyHand,2,healthy?,24,H_019.jpg,1634234831.32263,1634234831.3323,439.592245569229,7.72266221046448,447.328465213776,449.429247131348,0.3,452.713805427551,0.5668785572052,453.281684865952,3,right,0.545378923416138,453.280683984756,604.470399847031,607.230399847031,1634235273.67487,1634235273.68141,1634235281.41109,1634235281.41494,1634235283.51187,1634235286.79643,1634235286.79797,1634235287.36431,1634235287.36331,1634235438.55303,0
60,4,1,3,25,5,2,c2_WhyHand,1,healthy?,19,H_167.jpg,1634234831.32263,1634234831.3323,439.592245569229,7.72266221046448,447.328465213776,449.429247131348,0.3,453.597468366623,0.45016884803772,454.048540821075,1,left,0.442458868026733,454.047637214661,604.470399847031,607.230399847031,1634235273.67487,1634235273.68141,1634235281.41109,1634235281.41494,1634235283.51187,1634235287.68009,1634235287.68177,1634235288.13117,1634235288.13026,1634235438.55303,1
60,4,1,3,25,6,2,c2_WhyHand,2,healthy?,20,H_007.jpg,1634234831.32263,1634234831.3323,439.592245569229,7.72266221046448,447.328465213776,449.429247131348,0.3,454.364421596527,0.533532381057739,454.898923864365,3,right,0.522768020629883,454.897953977585,604.470399847031,607.230399847031,1634235273.67487,1634235273.68141,1634235281.41109,1634235281.41494,1634235283.51187,1634235288.44705,1634235288.44871,1634235288.98155,1634235288.98058,1634235438.55303,0
60,4,1,3,25,7,2,c2_WhyHand,1,healthy?,21,H_627.jpg,1634234831.32263,1634234831.3323,439.592245569229,7.72266221046448,447.328465213776,449.429247131348,0.3,455.214739789963,0.633567571640015,455.850044956207,1,left,0.613597869873047,455.848307361603,604.470399847031,607.230399847031,1634235273.67487,1634235273.68141,1634235281.41109,1634235281.41494,1634235283.51187,1634235289.29737,1634235289.29878,1634235289.93267,1634235289.93093,1634235438.55303,1
60,4,1,3,25,8,2,c2_WhyHand,2,healthy?,22,H_130.jpg,1634234831.32263,1634234831.3323,439.592245569229,7.72266221046448,447.328465213776,449.429247131348,0.3,456.165093173981,0.600223302841187,456.766835918427,3,right,0.590062856674194,456.765316476822,604.470399847031,607.230399847031,1634235273.67487,1634235273.68141,1634235281.41109,1634235281.41494,1634235283.51187,1634235290.24772,1634235290.24939,1634235290.84946,1634235290.84794,1634235438.55303,0
60,4,1,3,26,1,4,c4_HowHand,1,pressing button?,82,H_126.jpg,1634234831.32263,1634234831.3323,456.848681440353,9.52051949501038,466.385570039749,468.486354579926,2.10078454017639,468.636410942078,0.566877365112305,469.204376926422,1,left,0.544357776641846,469.20328830719,604.470399847031,607.230399847031,1634235290.93131,1634235290.93233,1634235300.4682,1634235300.47007,1634235302.56898,1634235302.71904,1634235302.72086,1634235303.287,1634235303.28591,1634235438.55303,1
60,4,1,3,26,2,4,c4_HowHand,2,pressing button?,85,H_130.jpg,1634234831.32263,1634234831.3323,456.848681440353,9.52051949501038,466.385570039749,468.486354579926,0.3,469.520073404312,0.600223064422607,470.121794929504,3,right,0.585376977920532,470.120296468735,604.470399847031,607.230399847031,1634235290.93131,1634235290.93233,1634235300.4682,1634235300.47007,1634235302.56898,1634235303.6027,1634235303.60436,1634235304.20442,1634235304.20292,1634235438.55303,0
60,4,1,3,26,3,4,c4_HowHand,1,pressing button?,84,H_483.jpg,1634234831.32263,1634234831.3323,456.848681440353,9.52051949501038,466.385570039749,468.486354579926,0.3,470.437083234787,0.533530712127686,470.982062807083,1,left,0.526697874069214,470.970613946915,604.470399847031,607.230399847031,1634235290.93131,1634235290.93233,1634235300.4682,1634235300.47007,1634235302.56898,1634235304.51971,1634235304.52152,1634235305.06469,1634235305.05324,1634235438.55303,1
60,4,1,3,26,4,4,c4_HowHand,2,pressing button?,87,H_024.jpg,1634234831.32263,1634234831.3323,456.848681440353,9.52051949501038,466.385570039749,468.486354579926,0.3,471.2873985672,0.583551406860352,471.881373872757,3,right,0.570335149765015,471.87094997406,604.470399847031,607.230399847031,1634235290.93131,1634235290.93233,1634235300.4682,1634235300.47007,1634235302.56898,1634235305.37002,1634235305.37167,1634235305.964,1634235305.95358,1634235438.55303,0
60,4,1,3,26,5,4,c4_HowHand,1,pressing button?,86,H_332.jpg,1634234831.32263,1634234831.3323,456.848681440353,9.52051949501038,466.385570039749,468.486354579926,0.3,472.187734117508,0.500187158584595,472.689387788773,1,left,0.482771158218384,472.687921276093,604.470399847031,607.230399847031,1634235290.93131,1634235290.93233,1634235300.4682,1634235300.47007,1634235302.56898,1634235306.27036,1634235306.27211,1634235306.77201,1634235306.77055,1634235438.55303,1
60,4,1,3,26,6,4,c4_HowHand,1,pressing button?,88,H_019.jpg,1634234831.32263,1634234831.3323,456.848681440353,9.52051949501038,466.385570039749,468.486354579926,0.3,473.004707565308,0.450167655944824,473.464725961685,1,left,0.435776948928833,473.454875221252,604.470399847031,607.230399847031,1634235290.93131,1634235290.93233,1634235300.4682,1634235300.47007,1634235302.56898,1634235307.08733,1634235307.08884,1634235307.54735,1634235307.5375,1634235438.55303,1
60,4,1,3,26,7,4,c4_HowHand,2,pressing button?,81,H_261.jpg,1634234831.32263,1634234831.3323,456.848681440353,9.52051949501038,466.385570039749,468.486354579926,0.3,473.771658411026,0.533533573150635,474.306244840622,3,right,0.516027212142944,474.305191984177,604.470399847031,607.230399847031,1634235290.93131,1634235290.93233,1634235300.4682,1634235300.47007,1634235302.56898,1634235307.85428,1634235307.85624,1634235308.38887,1634235308.38782,1634235438.55303,0
60,4,1,3,26,8,4,c4_HowHand,1,pressing button?,83,H_502.jpg,1634234831.32263,1634234831.3323,456.848681440353,9.52051949501038,466.385570039749,468.486354579926,0.3,474.621975889206,0.516859292984009,475.139891853333,1,left,0.498452186584473,475.13883518219,604.470399847031,607.230399847031,1634235290.93131,1634235290.93233,1634235300.4682,1634235300.47007,1634235302.56898,1634235308.7046,1634235308.70658,1634235309.22252,1634235309.22146,1634235438.55303,1
60,4,1,3,27,1,3,c3_HowFace,1,looking at camera?,60,F_618.jpg,1634234831.32263,1634234831.3323,475.222199907303,8.67671799659729,483.908772935867,486.009555091858,2.1007821559906,486.159611930847,0.516858339309692,486.681389799118,1,left,0.498600006103516,486.676470270157,604.470399847031,607.230399847031,1634235309.30483,1634235309.31468,1634235317.9914,1634235317.99824,1634235320.09218,1634235320.24224,1634235320.24808,1634235320.76402,1634235320.7591,1634235438.55303,1
60,4,1,3,27,2,3,c3_HowFace,2,looking at camera?,58,F_754.jpg,1634234831.32263,1634234831.3323,475.222199907303,8.67671799659729,483.908772935867,486.009555091858,0.3,486.993257036209,0.516858577728271,487.511234989166,3,right,0.493495225906372,487.510115613937,604.470399847031,607.230399847031,1634235309.30483,1634235309.31468,1634235317.9914,1634235317.99824,1634235320.09218,1634235321.07588,1634235321.07804,1634235321.59386,1634235321.59274,1634235438.55303,0
60,4,1,3,27,3,3,c3_HowFace,1,looking at camera?,59,F_129.jpg,1634234831.32263,1634234831.3323,475.222199907303,8.67671799659729,483.908772935867,486.009555091858,0.3,487.82690071106,0.516858816146851,488.34816693306,1,left,0.502708911895752,488.343759527206,604.470399847031,607.230399847031,1634235309.30483,1634235309.31468,1634235317.9914,1634235317.99824,1634235320.09218,1634235321.90953,1634235321.91475,1634235322.43079,1634235322.42639,1634235438.55303,1
60,4,1,3,27,4,3,c3_HowFace,1,looking at camera?,62,F_598.jpg,1634234831.32263,1634234831.3323,475.222199907303,8.67671799659729,483.908772935867,486.009555091858,0.3,488.660544624329,0.500185966491699,489.165089836121,3,right,0.478272914886475,489.16073059082,604.470399847031,607.230399847031,1634235309.30483,1634235309.31468,1634235317.9914,1634235317.99824,1634235320.09218,1634235322.74317,1634235322.74807,1634235323.24772,1634235323.24336,1634235438.55303,0
60,4,1,3,27,5,3,c3_HowFace,1,looking at camera?,64,F_128.jpg,1634234831.32263,1634234831.3323,475.222199907303,8.67671799659729,483.908772935867,486.009555091858,0.3,489.477515687943,0.0166726112365723,489.498999824524,1,left,0.000303030014038086,489.494188299179,604.470399847031,607.230399847031,1634235309.30483,1634235309.31468,1634235317.9914,1634235317.99824,1634235320.09218,1634235323.56014,1634235323.56424,1634235323.58163,1634235323.57681,1634235438.55303,1
60,4,1,3,27,6,3,c3_HowFace,2,looking at camera?,57,F_582.jpg,1634234831.32263,1634234831.3323,475.222199907303,8.67671799659729,483.908772935867,486.009555091858,0.3,489.810974111557,0.0166723728179932,489.83224486351,1,left,0.000311136245727539,489.827646484375,604.470399847031,607.230399847031,1634235309.30483,1634235309.31468,1634235317.9914,1634235317.99824,1634235320.09218,1634235323.8936,1634235323.89827,1634235323.91487,1634235323.91027,1634235438.55303,0
60,4,1,3,27,7,3,c3_HowFace,1,looking at camera?,61,F_774.jpg,1634234831.32263,1634234831.3323,475.222199907303,8.67671799659729,483.908772935867,486.009555091858,0.3,490.14443110466,0.80029821395874,490.948149909973,1,left,0.789352178573608,490.944729318619,604.470399847031,607.230399847031,1634235309.30483,1634235309.31468,1634235317.9914,1634235317.99824,1634235320.09218,1634235324.22706,1634235324.23167,1634235325.03078,1634235325.02736,1634235438.55303,1
60,4,1,3,27,8,3,c3_HowFace,2,looking at camera?,63,F_743.jpg,1634234831.32263,1634234831.3323,475.222199907303,8.67671799659729,483.908772935867,486.009555091858,0.3,491.26151465416,0.650242328643799,491.914918889999,3,right,0.627868175506592,491.911756982803,604.470399847031,607.230399847031,1634235309.30483,1634235309.31468,1634235317.9914,1634235317.99824,1634235320.09218,1634235325.34414,1634235325.34796,1634235325.99755,1634235325.99438,1634235438.55303,0
