src_subject_id,session_id,run_id,param_counterbalance_ver,param_block_num,param_trial_num,param_cond_type_num,param_cond_type_string,param_normative_response,param_ques_type_string,param_image_num,param_image_filename,param_trigger_onset,param_start_biopac,event01_fixation,event01_fixation_dur,event01_blockquestion_onset,event01_block_isi_blacksreen,event01_blockquestion_dur,event02_image_onset,event02_image_dur,event03_response_onset,event03_response_key,event03_response_keyname,event03_RT,event04_shortquestion_onset,param_end_instruct_onset,param_experiment_duration,RAW_e1_fixation,RAW_e1_fixation_biopac,RAW_e1_blockquestion_onset,RAW_e1_blockquestion_onset_biopac,RAW_e1_block_isi_blacksreen,RAW_e2_image_onset,RAW_e2_image_onset_biopac,RAW_e3_response_onset,RAW_e4_shortquestion_onset,RAW_param_end_instruct_onset,accuracy
5,4,1,1,1,1,4,c4_HowHand,1,reaching?,106,H_006.jpg,1613676960.98478,1613676961.00943,0.0511588954925535,0.0258162021636963,0.084504117965698,2.11860178947449,2.03409767150879,2.26865743637085,0.633571624755859,2.90498899459839,1,left,0.606976985931396,2.90222906112671,604.478013505936,607.238013505936,1613676963.79594,1613676963.80008,1613676963.82928,1613676963.8317,1613676965.86338,1613676966.01344,1613676966.0156,1613676966.64977,1613676966.64701,1613677568.22279,1
5,4,1,1,1,2,4,c4_HowHand,2,reaching?,105,H_438.jpg,1613676960.98478,1613676961.00943,0.0511588954925535,0.0258162021636963,0.084504117965698,2.11860178947449,0.3,3.21901391983032,0.783628225326538,4.00434397697449,1,left,0.770992994308472,4.00264214515686,604.478013505936,607.238013505936,1613676963.79594,1613676963.80008,1613676963.82928,1613676963.8317,1613676965.86338,1613676966.96379,1613676966.96529,1613676967.74912,1613676967.74742,1613677568.22279,0
5,4,1,1,1,3,4,c4_HowHand,1,reaching?,111,H_003.jpg,1613676960.98478,1613676961.00943,0.0511588954925535,0.0258162021636963,0.084504117965698,2.11860178947449,0.3,4.31942676544189,0.600225925445557,4.92102717399597,1,left,0.590075016021729,4.91965269088745,604.478013505936,607.238013505936,1613676963.79594,1613676963.80008,1613676963.82928,1613676963.8317,1613676965.86338,1613676968.0642,1613676968.0654,1613676968.66581,1613676968.66443,1613677568.22279,1
5,4,1,1,1,4,4,c4_HowHand,1,reaching?,109,H_474.jpg,1613676960.98478,1613676961.00943,0.0511588954925535,0.0258162021636963,0.084504117965698,2.11860178947449,0.3,5.2364382648468,0.666916370391846,5.90427707672119,1,left,0.644663095474243,5.90335463523865,604.478013505936,607.238013505936,1613676963.79594,1613676963.80008,1613676963.82928,1613676963.8317,1613676965.86338,1613676968.98122,1613676968.98242,1613676969.64906,1613676969.64813,1613677568.22279,1
5,4,1,1,1,5,4,c4_HowHand,2,reaching?,108,H_532.jpg,1613676960.98478,1613676961.00943,0.0511588954925535,0.0258162021636963,0.084504117965698,2.11860178947449,0.3,6.22014092445374,0.550205945968628,6.77284907341003,2,right,0.524292945861816,6.77034687042236,604.478013505936,607.238013505936,1613676963.79594,1613676963.80008,1613676963.82928,1613676963.8317,1613676965.86338,1613676969.96492,1613676969.96745,1613676970.51763,1613676970.51512,1613677568.22279,1
5,4,1,1,1,6,4,c4_HowHand,1,reaching?,110,H_364.jpg,1613676960.98478,1613676961.00943,0.0511588954925535,0.0258162021636963,0.084504117965698,2.11860178947449,0.3,7.08713268280029,0.566879749298096,7.65512203216553,1,left,0.556605815887451,7.65401243209839,604.478013505936,607.238013505936,1613676963.79594,1613676963.80008,1613676963.82928,1613676963.8317,1613676965.86338,1613676970.83191,1613676970.833,1613676971.3999,1613676971.39879,1613677568.22279,1
5,4,1,1,1,7,4,c4_HowHand,1,reaching?,107,H_007.jpg,1613676960.98478,1613676961.00943,0.0511588954925535,0.0258162021636963,0.084504117965698,2.11860178947449,0.3,7.97079776763916,0.600225210189819,8.57192896842957,1,left,0.591350078582764,8.57102297782898,604.478013505936,607.238013505936,1613676963.79594,1613676963.80008,1613676963.82928,1613676963.8317,1613676965.86338,1613676971.71558,1613676971.71653,1613676972.31671,1613676972.3158,1613677568.22279,1
5,4,1,1,1,8,4,c4_HowHand,2,reaching?,112,H_132.jpg,1613676960.98478,1613676961.00943,0.0511588954925535,0.0258162021636963,0.084504117965698,2.11860178947449,0.3,8.88780783653259,0.533533573150635,9.42246912956238,2,right,0.520231008529663,9.42134140968323,604.478013505936,607.238013505936,1613676963.79594,1613676963.80008,1613676963.82928,1613676963.8317,1613676965.86338,1613676972.63259,1613676972.63375,1613676973.16725,1613676973.16612,1613677568.22279,1
5,4,1,1,2,1,2,c2_WhyHand,1,healthy?,18,H_438.jpg,1613676960.98478,1613676961.00943,9.58807085990906,9.37633609771729,18.9749278926849,21.07571600914,2.10078811645508,21.2257728481293,0.750281095504761,21.9771959686279,1,left,0.729378938674927,21.976053943634,604.478013505936,607.238013505936,1613676973.33285,1613676973.33388,1613676982.71971,1613676982.72107,1613676984.82049,1613676984.97055,1613676984.97192,1613676985.72197,1613676985.72083,1613677568.22279,1
5,4,1,1,2,2,2,c2_WhyHand,2,healthy?,20,H_007.jpg,1613676960.98478,1613676961.00943,9.58807085990906,9.37633609771729,18.9749278926849,21.07571600914,0.3,22.2928399944305,0.550206661224365,22.8439891242981,1,left,0.531887054443359,22.8430466556549,604.478013505936,607.238013505936,1613676973.33285,1613676973.33388,1613676982.71971,1613676982.72107,1613676984.82049,1613676986.03762,1613676986.03882,1613676986.58877,1613676986.58782,1613677568.22279,0
5,4,1,1,2,3,2,c2_WhyHand,1,healthy?,23,H_364.jpg,1613676960.98478,1613676961.00943,9.58807085990906,9.37633609771729,18.9749278926849,21.07571600914,0.3,23.1598319911957,0.666916847229004,23.8372790718079,1,left,0.660106897354126,23.8267488384247,604.478013505936,607.238013505936,1613676973.33285,1613676973.33388,1613676982.71971,1613676982.72107,1613676984.82049,1613676986.90461,1613676986.90529,1613676987.58206,1613676987.57153,1613677568.22279,1
5,4,1,1,2,4,2,c2_WhyHand,2,healthy?,24,H_019.jpg,1613676960.98478,1613676961.00943,9.58807085990906,9.37633609771729,18.9749278926849,21.07571600914,0.3,24.1435336971283,0.633571863174438,24.7875590229034,1,left,0.628609895706177,24.7771055603027,604.478013505936,607.238013505936,1613676973.33285,1613676973.33388,1613676982.71971,1613676982.72107,1613676984.82049,1613676987.88831,1613676987.8892,1613676988.53234,1613676988.52188,1613677568.22279,0
5,4,1,1,2,5,2,c2_WhyHand,1,healthy?,19,H_167.jpg,1613676960.98478,1613676961.00943,9.58807085990906,9.37633609771729,18.9749278926849,21.07571600914,0.3,25.0938906574249,0.666916847229004,25.7621381187439,2,right,0.651144027709961,25.7608075046539,604.478013505936,607.238013505936,1613676973.33285,1613676973.33388,1613676982.71971,1613676982.72107,1613676984.82049,1613676988.83867,1613676988.83973,1613676989.50692,1613676989.50559,1613677568.22279,0
5,4,1,1,2,6,2,c2_WhyHand,2,healthy?,22,H_130.jpg,1613676960.98478,1613676961.00943,9.58807085990906,9.37633609771729,18.9749278926849,21.07571600914,0.3,26.077593793869,0.600225448608398,26.6872830295563,1,left,0.589221000671387,26.6778192424774,604.478013505936,607.238013505936,1613676973.33285,1613676973.33388,1613676982.71971,1613676982.72107,1613676984.82049,1613676989.82237,1613676989.82353,1613676990.43206,1613676990.4226,1613677568.22279,0
5,4,1,1,2,7,2,c2_WhyHand,1,healthy?,21,H_627.jpg,1613676960.98478,1613676961.00943,9.58807085990906,9.37633609771729,18.9749278926849,21.07571600914,0.3,26.9946036243439,0.600226879119873,27.6040410900116,2,right,0.590528011322021,27.5948305034637,604.478013505936,607.238013505936,1613676973.33285,1613676973.33388,1613676982.71971,1613676982.72107,1613676984.82049,1613676990.73938,1613676990.74046,1613676991.34882,1613676991.33961,1613677568.22279,0
5,4,1,1,2,8,2,c2_WhyHand,1,healthy?,17,H_362.jpg,1613676960.98478,1613676961.00943,9.58807085990906,9.37633609771729,18.9749278926849,21.07571600914,0.3,27.9116153621674,0.583552122116089,28.4961051845551,1,left,0.570229053497314,28.4951674842834,604.478013505936,607.238013505936,1613676973.33285,1613676973.33388,1613676982.71971,1613676982.72107,1613676984.82049,1613676991.65639,1613676991.6572,1613676992.24088,1613676992.23995,1613677568.22279,1
5,4,1,1,3,1,1,c1_WhyFace,1,proud?,101,F_083.jpg,1613676960.98478,1613676961.00943,28.5952050590515,12.8511040210724,41.4500296020508,43.5508189105988,2.10078930854797,43.7008745574951,0.500187158584595,44.202033033371,1,left,0.477342844009399,44.2010617160797,604.478013505936,607.238013505936,1613676992.33998,1613676992.3489,1613677005.19481,1613677005.19906,1613677007.2956,1613677007.44565,1613677007.44879,1613677007.94681,1613677007.94584,1613677568.22279,1
5,4,1,1,3,2,1,c1_WhyFace,2,proud?,98,F_412.jpg,1613676960.98478,1613676961.00943,28.5952050590515,12.8511040210724,41.4500296020508,43.5508189105988,0.3,44.5178475284576,0.566879987716675,45.0858850383759,2,right,0.544425010681152,45.0847275161743,604.478013505936,607.238013505936,1613676992.33998,1613676992.3489,1613677005.19481,1613677005.19906,1613677007.2956,1613677008.26263,1613677008.26538,1613677008.83066,1613677008.82951,1613677568.22279,1
5,4,1,1,3,3,1,c1_WhyFace,1,proud?,99,F_695.jpg,1613676960.98478,1613676961.00943,28.5952050590515,12.8511040210724,41.4500296020508,43.5508189105988,0.3,45.4015133285522,0.550206661224365,45.9540331268311,1,left,0.543215990066528,45.9517199897766,604.478013505936,607.238013505936,1613676992.33998,1613676992.3489,1613677005.19481,1613677005.19906,1613677007.2956,1613677009.14629,1613677009.14872,1613677009.69881,1613677009.6965,1613677568.22279,1
5,4,1,1,3,4,1,c1_WhyFace,1,proud?,104,F_598.jpg,1613676960.98478,1613676961.00943,28.5952050590515,12.8511040210724,41.4500296020508,43.5508189105988,0.3,46.2685050868988,0.550206422805786,46.8208010101318,1,left,0.537262201309204,46.8187115097046,604.478013505936,607.238013505936,1613676992.33998,1613676992.3489,1613677005.19481,1613677005.19906,1613677007.2956,1613677010.01328,1613677010.01553,1613677010.56558,1613677010.56349,1613677568.22279,1
5,4,1,1,3,5,1,c1_WhyFace,1,proud?,103,F_618.jpg,1613676960.98478,1613676961.00943,28.5952050590515,12.8511040210724,41.4500296020508,43.5508189105988,0.3,47.1354975605011,0.483514070510864,47.6207551860809,1,left,0.468947172164917,47.619011631012,604.478013505936,607.238013505936,1613676992.33998,1613676992.3489,1613677005.19481,1613677005.19906,1613677007.2956,1613677010.88028,1613677010.88209,1613677011.36553,1613677011.36379,1613677568.22279,1
5,4,1,1,3,6,1,c1_WhyFace,1,proud?,97,F_582.jpg,1613676960.98478,1613676961.00943,28.5952050590515,12.8511040210724,41.4500296020508,43.5508189105988,0.3,47.9357979202271,0.633570909500122,48.570931186676,1,left,0.61627197265625,48.5693688297272,604.478013505936,607.238013505936,1613676992.33998,1613676992.3489,1613677005.19481,1613677005.19906,1613677007.2956,1613677011.68058,1613677011.68184,1613677012.31571,1613677012.31415,1613677568.22279,1
5,4,1,1,3,7,1,c1_WhyFace,2,proud?,102,F_760.jpg,1613676960.98478,1613676961.00943,28.5952050590515,12.8511040210724,41.4500296020508,43.5508189105988,0.3,48.8861536884308,0.550205707550049,49.4375390911102,1,left,0.533622980117798,49.4363593959808,604.478013505936,607.238013505936,1613676992.33998,1613676992.3489,1613677005.19481,1613677005.19906,1613677007.2956,1613677012.63093,1613677012.63222,1613677013.18232,1613677013.18114,1613677568.22279,0
5,4,1,1,3,8,1,c1_WhyFace,2,proud?,100,F_776.jpg,1613676960.98478,1613676961.00943,28.5952050590515,12.8511040210724,41.4500296020508,43.5508189105988,0.3,49.7531456851959,0.633572101593018,50.3877210521698,1,left,0.615691900253296,50.3867177867889,604.478013505936,607.238013505936,1613676992.33998,1613676992.3489,1613677005.19481,1613677005.19906,1613677007.2956,1613677013.49792,1613677013.49884,1613677014.1325,1613677014.1315,1613677568.22279,0
5,4,1,1,4,1,3,c3_HowFace,1,smiling?,115,F_695.jpg,1613676960.98478,1613676961.00943,50.4700822734833,8.85125684738159,59.3400783443451,61.4241931343079,2.08411478996277,61.5909225845337,0.450168132781982,62.0417811775208,1,left,0.434960126876831,62.0410907173157,604.478013505936,607.238013505936,1613677014.21486,1613677014.21585,1613677023.08486,1613677023.08724,1613677025.16897,1613677025.3357,1613677025.33683,1613677025.78656,1613677025.78587,1613677568.22279,1
5,4,1,1,4,2,3,c3_HowFace,2,smiling?,114,F_412.jpg,1613676960.98478,1613676961.00943,50.4700822734833,8.85125684738159,59.3400783443451,61.4241931343079,0.3,62.3578767681122,0.533534288406372,62.8926989936829,2,right,0.515584945678711,62.8914110565186,604.478013505936,607.238013505936,1613677014.21486,1613677014.21585,1613677023.08486,1613677023.08724,1613677025.16897,1613677026.10265,1613677026.10349,1613677026.63748,1613677026.63619,1613677568.22279,1
5,4,1,1,4,3,3,c3_HowFace,1,smiling?,116,F_083.jpg,1613676960.98478,1613676961.00943,50.4700822734833,8.85125684738159,59.3400783443451,61.4241931343079,0.3,63.2081959152222,0.416823625564575,63.6259441280365,1,left,0.40391993522644,63.6250195407867,604.478013505936,607.238013505936,1613677014.21486,1613677014.21585,1613677023.08486,1613677023.08724,1613677025.16897,1613677026.95297,1613677026.95399,1613677027.37072,1613677027.3698,1613677568.22279,1
5,4,1,1,4,4,3,c3_HowFace,1,smiling?,117,F_593.jpg,1613676960.98478,1613676961.00943,50.4700822734833,8.85125684738159,59.3400783443451,61.4241931343079,0.3,63.9418029689789,0.450170040130615,64.4039001369476,1,left,0.445384979248047,64.3919730091095,604.478013505936,607.238013505936,1613677014.21486,1613677014.21585,1613677023.08486,1613677023.08724,1613677025.16897,1613677027.68658,1613677027.68762,1613677028.14868,1613677028.13675,1613677568.22279,1
5,4,1,1,4,5,3,c3_HowFace,2,smiling?,113,F_712.jpg,1613676960.98478,1613676961.00943,50.4700822734833,8.85125684738159,59.3400783443451,61.4241931343079,0.3,64.7087602519989,0.45016884803772,65.1602229976654,2,right,0.429494857788086,65.1589291000366,604.478013505936,607.238013505936,1613677014.21486,1613677014.21585,1613677023.08486,1613677023.08724,1613677025.16897,1613677028.45354,1613677028.45451,1613677028.905,1613677028.90371,1613677568.22279,1
5,4,1,1,4,6,3,c3_HowFace,1,smiling?,119,F_139.jpg,1613676960.98478,1613676961.00943,50.4700822734833,8.85125684738159,59.3400783443451,61.4241931343079,0.3,65.4757137203217,0.366805791854858,65.8437731170654,1,left,0.347556829452515,65.8425195121765,604.478013505936,607.238013505936,1613677014.21486,1613677014.21585,1613677023.08486,1613677023.08724,1613677025.16897,1613677029.22049,1613677029.22154,1613677029.58855,1613677029.5873,1613677568.22279,1
5,4,1,1,4,7,3,c3_HowFace,1,smiling?,118,F_759.jpg,1613676960.98478,1613676961.00943,50.4700822734833,8.85125684738159,59.3400783443451,61.4241931343079,0.3,66.1593036556244,0.433496236801147,66.5941221618652,1,left,0.417821168899536,66.5927998924255,604.478013505936,607.238013505936,1613677014.21486,1613677014.21585,1613677023.08486,1613677023.08724,1613677025.16897,1613677029.90408,1613677029.90513,1613677030.3389,1613677030.33758,1613677568.22279,1
5,4,1,1,4,8,3,c3_HowFace,2,smiling?,120,F_758.jpg,1613676960.98478,1613676961.00943,50.4700822734833,8.85125684738159,59.3400783443451,61.4241931343079,0.3,66.9095861816406,0.500186443328857,67.4108011627197,2,right,0.481072902679443,67.4097726249695,604.478013505936,607.238013505936,1613677014.21486,1613677014.21585,1613677023.08486,1613677023.08724,1613677025.16897,1613677030.65436,1613677030.65543,1613677031.15558,1613677031.15455,1613677568.22279,1
5,4,1,1,5,1,4,c4_HowHand,1,both hands?,123,H_167.jpg,1613676960.98478,1613676961.00943,67.476465215683,10.9536547660828,78.4472496414185,80.5480382347107,2.10078859329224,80.6980934047699,0.700263261795044,81.4042880439758,2,right,0.685631036758423,81.3983566665649,604.478013505936,607.238013505936,1613677031.22124,1613677031.23349,1613677042.19203,1613677042.19463,1613677044.29282,1613677044.44287,1613677044.44436,1613677045.14907,1613677045.14313,1613677568.22279,0
5,4,1,1,5,2,4,c4_HowHand,2,both hands?,126,H_159.jpg,1613676960.98478,1613676961.00943,67.476465215683,10.9536547660828,78.4472496414185,80.5480382347107,0.3,81.7151420021057,0.633571863174438,82.3499071502685,1,left,0.612940788269043,82.3487138652801,604.478013505936,607.238013505936,1613677031.22124,1613677031.23349,1613677042.19203,1613677042.19463,1613677044.29282,1613677045.45992,1613677045.46096,1613677046.09469,1613677046.09349,1613677568.22279,0
5,4,1,1,5,3,4,c4_HowHand,1,both hands?,128,H_027.jpg,1613676960.98478,1613676961.00943,67.476465215683,10.9536547660828,78.4472496414185,80.5480382347107,0.3,82.6654987239838,0.716936349868774,83.3875830078125,1,left,0.700899839401245,83.3824350738525,604.478013505936,607.238013505936,1613677031.22124,1613677031.23349,1613677042.19203,1613677042.19463,1613677044.29282,1613677046.41028,1613677046.41115,1613677047.13236,1613677047.12721,1613677568.22279,1
5,4,1,1,5,4,4,c4_HowHand,1,both hands?,124,H_581.jpg,1613676960.98478,1613676961.00943,67.476465215683,10.9536547660828,78.4472496414185,80.5480382347107,0.3,83.6992196941376,0.650245428085327,84.3541381263733,1,left,0.63386082649231,84.3494651222229,604.478013505936,607.238013505936,1613677031.22124,1613677031.23349,1613677042.19203,1613677042.19463,1613677044.29282,1613677047.444,1613677047.44514,1613677048.09892,1613677048.09424,1613677568.22279,1
5,4,1,1,5,5,4,c4_HowHand,2,both hands?,121,H_091.jpg,1613676960.98478,1613676961.00943,67.476465215683,10.9536547660828,78.4472496414185,80.5480382347107,0.3,84.6662497425079,0.76695442199707,85.4375841522217,2,right,0.759316921234131,85.433204164505,604.478013505936,607.238013505936,1613677031.22124,1613677031.23349,1613677042.19203,1613677042.19463,1613677044.29282,1613677048.41103,1613677048.41205,1613677049.18236,1613677049.17798,1613677568.22279,1
5,4,1,1,5,6,4,c4_HowHand,1,both hands?,122,H_111.jpg,1613676960.98478,1613676961.00943,67.476465215683,10.9536547660828,78.4472496414185,80.5480382347107,0.3,85.7499899768829,0.633570671081543,86.3873941802978,1,left,0.62123703956604,86.3835606479645,604.478013505936,607.238013505936,1613677031.22124,1613677031.23349,1613677042.19203,1613677042.19463,1613677044.29282,1613677049.49477,1613677049.49878,1613677050.13217,1613677050.12834,1613677568.22279,1
5,4,1,1,5,7,4,c4_HowHand,2,both hands?,125,H_627.jpg,1613676960.98478,1613676961.00943,67.476465215683,10.9536547660828,78.4472496414185,80.5480382347107,0.3,86.7003471755981,0.816972255706787,87.5180170440674,2,right,0.793755054473877,87.5173194313049,604.478013505936,607.238013505936,1613677031.22124,1613677031.23349,1613677042.19203,1613677042.19463,1613677044.29282,1613677050.44513,1613677050.44897,1613677051.26279,1613677051.2621,1613677568.22279,1
5,4,1,1,5,8,4,c4_HowHand,1,both hands?,127,H_349.jpg,1613676960.98478,1613676961.00943,67.476465215683,10.9536547660828,78.4472496414185,80.5480382347107,0.3,87.83410572052,0.600224733352661,88.4374110603332,1,left,0.586851835250854,88.4343304538727,604.478013505936,607.238013505936,1613677031.22124,1613677031.23349,1613677042.19203,1613677042.19463,1613677044.29282,1613677051.57888,1613677051.58224,1613677052.18219,1613677052.17911,1613677568.22279,1
5,4,1,1,6,1,2,c2_WhyHand,1,helping?,34,H_111.jpg,1613676960.98478,1613676961.00943,88.5176951789856,7.42844581604004,95.9538197422028,98.0546085739136,2.10078883171082,98.2046654129028,0.816972255706787,99.0225610637665,1,left,0.798868179321289,99.0216376686096,604.478013505936,607.238013505936,1613677052.26247,1613677052.26525,1613677059.6986,1613677059.69973,1613677061.79939,1613677061.94944,1613677061.95114,1613677062.76734,1613677062.76642,1613677568.22279,1
5,4,1,1,6,2,2,c2_WhyHand,1,helping?,38,H_077.jpg,1613676960.98478,1613676961.00943,88.5176951789856,7.42844581604004,95.9538197422028,98.0546085739136,0.3,99.3384239578247,0.850318670272827,100.189694156647,1,left,0.842872858047485,100.188742628098,604.478013505936,607.238013505936,1613677052.26247,1613677052.26525,1613677059.6986,1613677059.69973,1613677061.79939,1613677063.0832,1613677063.08414,1613677063.93447,1613677063.93352,1613677568.22279,1
5,4,1,1,6,3,2,c2_WhyHand,2,helping?,35,H_159.jpg,1613676960.98478,1613676961.00943,88.5176951789856,7.42844581604004,95.9538197422028,98.0546085739136,0.3,100.505527963638,0.600224494934082,101.106321086884,2,right,0.591871023178101,101.105752458572,604.478013505936,607.238013505936,1613677052.26247,1613677052.26525,1613677059.6986,1613677059.69973,1613677061.79939,1613677064.25031,1613677064.25122,1613677064.8511,1613677064.85053,1613677568.22279,1
5,4,1,1,6,4,2,c2_WhyHand,1,helping?,37,H_474.jpg,1613676960.98478,1613676961.00943,88.5176951789856,7.42844581604004,95.9538197422028,98.0546085739136,0.3,101.422538747787,0.650243997573853,102.073901166916,1,left,0.639763116836548,102.072782745361,604.478013505936,607.238013505936,1613677052.26247,1613677052.26525,1613677059.6986,1613677059.69973,1613677061.79939,1613677065.16732,1613677065.1684,1613677065.81868,1613677065.81756,1613677568.22279,1
5,4,1,1,6,5,2,c2_WhyHand,2,helping?,40,H_012.jpg,1613676960.98478,1613676961.00943,88.5176951789856,7.42844581604004,95.9538197422028,98.0546085739136,0.3,102.389568796158,0.900336980819702,103.291131010056,1,left,0.886429071426392,103.289905776978,604.478013505936,607.238013505936,1613677052.26247,1613677052.26525,1613677059.6986,1613677059.69973,1613677061.79939,1613677066.13435,1613677066.1356,1613677067.03591,1613677067.03468,1613677568.22279,0
5,4,1,1,6,6,2,c2_WhyHand,1,helping?,39,H_024.jpg,1613676960.98478,1613676961.00943,88.5176951789856,7.42844581604004,95.9538197422028,98.0546085739136,0.3,103.606691827774,0.800299644470215,104.40801905632,1,left,0.791724920272827,104.406991472244,604.478013505936,607.238013505936,1613677052.26247,1613677052.26525,1613677059.6986,1613677059.69973,1613677061.79939,1613677067.35147,1613677067.35241,1613677068.1528,1613677068.15177,1613677568.22279,1
5,4,1,1,6,7,2,c2_WhyHand,2,helping?,33,H_091.jpg,1613676960.98478,1613676961.00943,88.5176951789856,7.42844581604004,95.9538197422028,98.0546085739136,0.3,104.723778238297,0.633570671081543,105.358303060532,2,right,0.615970134735107,105.357348909378,604.478013505936,607.238013505936,1613677052.26247,1613677052.26525,1613677059.6986,1613677059.69973,1613677061.79939,1613677068.46856,1613677068.47006,1613677069.10308,1613677069.10213,1613677568.22279,1
5,4,1,1,6,8,2,c2_WhyHand,1,helping?,36,H_349.jpg,1613676960.98478,1613676961.00943,88.5176951789856,7.42844581604004,95.9538197422028,98.0546085739136,0.3,105.674134483337,0.683590412139893,106.358826150894,1,left,0.67246413230896,106.357724895477,604.478013505936,607.238013505936,1613677052.26247,1613677052.26525,1613677059.6986,1613677059.69973,1613677061.79939,1613677069.41891,1613677069.42001,1613677070.1036,1613677070.1025,1613677568.22279,1
5,4,1,1,7,1,1,c1_WhyFace,1,self-doubt?,28,F_754.jpg,1613676960.98478,1613676961.00943,106.424415578842,8.5756995677948,115.010972967148,117.111760606766,2.10078763961792,117.261816968918,0.566879034042358,117.837550153732,1,left,0.550291061401367,117.82869600296,604.478013505936,607.238013505936,1613677070.16919,1613677070.17021,1613677078.75575,1613677078.76585,1613677080.85654,1613677081.00659,1613677081.01588,1613677081.58233,1613677081.57347,1613677568.22279,1
5,4,1,1,7,2,1,c1_WhyFace,2,self-doubt?,32,F_128.jpg,1613676960.98478,1613676961.00943,106.424415578842,8.5756995677948,115.010972967148,117.111760606766,0.3,118.145482053757,0.716936111450195,118.863507022858,1,left,0.699006795883179,118.862418165207,604.478013505936,607.238013505936,1613677070.16919,1613677070.17021,1613677078.75575,1613677078.76585,1613677080.85654,1613677081.89026,1613677081.8912,1613677082.60828,1613677082.6072,1613677568.22279,0
5,4,1,1,7,3,1,c1_WhyFace,1,self-doubt?,29,F_544.jpg,1613676960.98478,1613676961.00943,106.424415578842,8.5756995677948,115.010972967148,117.111760606766,0.3,119.179203977585,0.650243759155273,119.830533971786,1,left,0.632083892822266,119.82944773674,604.478013505936,607.238013505936,1613677070.16919,1613677070.17021,1613677078.75575,1613677078.76585,1613677080.85654,1613677082.92398,1613677082.92503,1613677083.57531,1613677083.57423,1613677568.22279,1
5,4,1,1,7,4,1,c1_WhyFace,2,self-doubt?,27,F_086.jpg,1613676960.98478,1613676961.00943,106.424415578842,8.5756995677948,115.010972967148,117.111760606766,0.3,120.146232833862,0.700262784957886,120.854442110062,2,right,0.693912029266357,120.84649561882,604.478013505936,607.238013505936,1613677070.16919,1613677070.17021,1613677078.75575,1613677078.76585,1613677080.85654,1613677083.89101,1613677083.89209,1613677084.59922,1613677084.59127,1613677568.22279,1
5,4,1,1,7,5,1,c1_WhyFace,1,self-doubt?,25,F_798.jpg,1613676960.98478,1613676961.00943,106.424415578842,8.5756995677948,115.010972967148,117.111760606766,0.3,121.163280477524,0.550207614898682,121.720929136276,1,left,0.540079116821289,121.713488092422,604.478013505936,607.238013505936,1613677070.16919,1613677070.17021,1613677078.75575,1613677078.76585,1613677080.85654,1613677084.90806,1613677084.90897,1613677085.46571,1613677085.45827,1613677568.22279,1
5,4,1,1,7,6,1,c1_WhyFace,1,self-doubt?,30,F_584.jpg,1613676960.98478,1613676961.00943,106.424415578842,8.5756995677948,115.010972967148,117.111760606766,0.3,122.030274143219,0.633569717407227,122.671132078171,1,left,0.627594947814941,122.663843860626,604.478013505936,607.238013505936,1613677070.16919,1613677070.17021,1613677078.75575,1613677078.76585,1613677080.85654,1613677085.77505,1613677085.77587,1613677086.41591,1613677086.40862,1613677568.22279,1
5,4,1,1,7,7,1,c1_WhyFace,1,self-doubt?,26,F_111.jpg,1613676960.98478,1613676961.00943,106.424415578842,8.5756995677948,115.010972967148,117.111760606766,0.3,122.980630149841,0.633570432662964,123.615513076782,1,left,0.614711999893188,123.614200582504,604.478013505936,607.238013505936,1613677070.16919,1613677070.17021,1613677078.75575,1613677078.76585,1613677080.85654,1613677086.72541,1613677086.72641,1613677087.36029,1613677087.35898,1613677568.22279,1
5,4,1,1,7,8,1,c1_WhyFace,2,self-doubt?,31,F_774.jpg,1613676960.98478,1613676961.00943,106.424415578842,8.5756995677948,115.010972967148,117.111760606766,0.3,123.930986871719,0.816972732543945,124.748673191071,2,right,0.798051118850708,124.747959604263,604.478013505936,607.238013505936,1613677070.16919,1613677070.17021,1613677078.75575,1613677078.76585,1613677080.85654,1613677087.67576,1613677087.67668,1613677088.49345,1613677088.49274,1613677568.22279,1
5,4,1,1,8,1,3,c3_HowFace,1,looking to side?,71,F_433.jpg,1613676960.98478,1613676961.00943,124.814652194977,7.97550487518311,132.800983181,134.901770820618,2.10078763961792,135.051828374863,0.500186920166016,135.554289093018,1,left,0.486546993255615,135.552015295029,604.478013505936,607.238013505936,1613677088.55943,1613677088.56572,1613677096.54576,1613677096.54927,1613677098.64655,1613677098.79661,1613677098.79967,1613677099.29907,1613677099.29679,1613677568.22279,1
5,4,1,1,8,2,3,c3_HowFace,2,looking to side?,70,F_779.jpg,1613676960.98478,1613676961.00943,124.814652194977,7.97550487518311,132.800983181,134.901770820618,0.3,135.868800868988,0.683590173721313,136.554483165741,1,left,0.670004844665527,136.552391042709,604.478013505936,607.238013505936,1613677088.55943,1613677088.56572,1613677096.54576,1613677096.54927,1613677098.64655,1613677099.61358,1613677099.61533,1613677100.29926,1613677100.29717,1613677568.22279,0
5,4,1,1,8,3,3,c3_HowFace,1,looking to side?,68,F_760.jpg,1613676960.98478,1613676961.00943,124.814652194977,7.97550487518311,132.800983181,134.901770820618,0.3,136.869175662994,0.650243997573853,137.520959129334,1,left,0.634511947631836,137.519419660568,604.478013505936,607.238013505936,1613677088.55943,1613677088.56572,1613677096.54576,1613677096.54927,1613677098.64655,1613677100.61395,1613677100.61555,1613677101.26574,1613677101.2642,1613677568.22279,1
5,4,1,1,8,4,3,c3_HowFace,2,looking to side?,66,F_111.jpg,1613676960.98478,1613676961.00943,124.814652194977,7.97550487518311,132.800983181,134.901770820618,0.3,137.836205472946,0.633571624755859,138.470759143829,2,right,0.622045040130615,138.469777097702,604.478013505936,607.238013505936,1613677088.55943,1613677088.56572,1613677096.54576,1613677096.54927,1613677098.64655,1613677101.58098,1613677101.58227,1613677102.21554,1613677102.21456,1613677568.22279,1
5,4,1,1,8,5,3,c3_HowFace,2,looking to side?,65,F_798.jpg,1613676960.98478,1613676961.00943,124.814652194977,7.97550487518311,132.800983181,134.901770820618,0.3,138.786562433243,0.76695442199707,139.554481019974,2,right,0.76046085357666,139.55351685524,604.478013505936,607.238013505936,1613677088.55943,1613677088.56572,1613677096.54576,1613677096.54927,1613677098.64655,1613677102.53134,1613677102.53255,1613677103.29926,1613677103.29829,1613677568.22279,1
5,4,1,1,8,6,3,c3_HowFace,1,looking to side?,67,F_716.jpg,1613676960.98478,1613676961.00943,124.814652194977,7.97550487518311,132.800983181,134.901770820618,0.3,139.870303144455,0.600224733352661,140.471505155563,1,left,0.589240074157715,140.470527877808,604.478013505936,607.238013505936,1613677088.55943,1613677088.56572,1613677096.54576,1613677096.54927,1613677098.64655,1613677103.61508,1613677103.61619,1613677104.21628,1613677104.21531,1613677568.22279,1
5,4,1,1,8,7,3,c3_HowFace,1,looking to side?,72,F_590.jpg,1613676960.98478,1613676961.00943,124.814652194977,7.97550487518311,132.800983181,134.901770820618,0.3,140.787314167023,0.61689829826355,141.405434122086,1,left,0.603308200836182,141.404212465286,604.478013505936,607.238013505936,1613677088.55943,1613677088.56572,1613677096.54576,1613677096.54927,1613677098.64655,1613677104.53209,1613677104.53302,1613677105.15021,1613677105.14899,1613677568.22279,1
5,4,1,1,8,8,3,c3_HowFace,1,looking to side?,69,F_110.jpg,1613676960.98478,1613676961.00943,124.814652194977,7.97550487518311,132.800983181,134.901770820618,0.3,141.720996847153,0.616897583007812,142.338800182343,2,right,0.602978944778442,142.337894430161,604.478013505936,607.238013505936,1613677088.55943,1613677088.56572,1613677096.54576,1613677096.54927,1613677098.64655,1613677105.46577,1613677105.4664,1613677106.08358,1613677106.08267,1613677568.22279,0
5,4,1,1,9,1,1,c1_WhyFace,1,argument?,43,F_716.jpg,1613676960.98478,1613676961.00943,142.404587259293,7.9155957698822,150.324225893021,152.425014009476,2.10078811645508,152.575070610046,0.600225210189819,153.176442136765,1,left,0.571294069290161,153.175295820236,604.478013505936,607.238013505936,1613677106.14937,1613677106.1499,1613677114.069,1613677114.08297,1613677116.16979,1613677116.31985,1613677116.33284,1613677116.92122,1613677116.92007,1613677568.22279,1
5,4,1,1,9,2,1,c1_WhyFace,2,argument?,44,F_139.jpg,1613676960.98478,1613676961.00943,142.404587259293,7.9155957698822,150.324225893021,152.425014009476,0.3,153.492081871033,0.550206661224365,154.04359005928,2,right,0.530407905578613,154.042288532257,604.478013505936,607.238013505936,1613677106.14937,1613677106.1499,1613677114.069,1613677114.08297,1613677116.16979,1613677117.23686,1613677117.23782,1613677117.78837,1613677117.78707,1613677568.22279,1
5,4,1,1,9,3,1,c1_WhyFace,1,argument?,47,F_743.jpg,1613676960.98478,1613676961.00943,142.404587259293,7.9155957698822,150.324225893021,152.425014009476,0.3,154.359074106216,0.533533573150635,154.893777122498,1,left,0.515568017959595,154.892607679367,604.478013505936,607.238013505936,1613677106.14937,1613677106.1499,1613677114.069,1613677114.08297,1613677116.16979,1613677118.10385,1613677118.10476,1613677118.63856,1613677118.63739,1613677568.22279,1
5,4,1,1,9,4,1,c1_WhyFace,1,argument?,42,F_403.jpg,1613676960.98478,1613676961.00943,142.404587259293,7.9155957698822,150.324225893021,152.425014009476,0.3,155.209393014908,0.583552360534668,155.804610958099,1,left,0.573142051696777,155.792945375443,604.478013505936,607.238013505936,1613677106.14937,1613677106.1499,1613677114.069,1613677114.08297,1613677116.16979,1613677118.95417,1613677118.9552,1613677119.54939,1613677119.53772,1613677568.22279,1
5,4,1,1,9,5,1,c1_WhyFace,1,argument?,48,F_758.jpg,1613676960.98478,1613676961.00943,142.404587259293,7.9155957698822,150.324225893021,152.425014009476,0.3,156.109730949402,0.600224733352661,156.711105098724,1,left,0.588622093200684,156.709955682755,604.478013505936,607.238013505936,1613677106.14937,1613677106.1499,1613677114.069,1613677114.08297,1613677116.16979,1613677119.85451,1613677119.85554,1613677120.45588,1613677120.45473,1613677568.22279,1
5,4,1,1,9,6,1,c1_WhyFace,2,argument?,46,F_844.jpg,1613676960.98478,1613676961.00943,142.404587259293,7.9155957698822,150.324225893021,152.425014009476,0.3,157.026741256714,0.583552122116089,157.620815029144,2,right,0.578596830368042,157.61029337883,604.478013505936,607.238013505936,1613677106.14937,1613677106.1499,1613677114.069,1613677114.08297,1613677116.16979,1613677120.77152,1613677120.7725,1613677121.36559,1613677121.35507,1613677568.22279,1
5,4,1,1,9,7,1,c1_WhyFace,1,argument?,41,F_712.jpg,1613676960.98478,1613676961.00943,142.404587259293,7.9155957698822,150.324225893021,152.425014009476,0.3,157.927079906464,0.633570671081543,158.570585002899,1,left,0.622747898101807,158.560650577545,604.478013505936,607.238013505936,1613677106.14937,1613677106.1499,1613677114.069,1613677114.08297,1613677116.16979,1613677121.67186,1613677121.67259,1613677122.31536,1613677122.30543,1613677568.22279,1
5,4,1,1,9,8,1,c1_WhyFace,2,argument?,45,F_433.jpg,1613676960.98478,1613676961.00943,142.404587259293,7.9155957698822,150.324225893021,152.425014009476,0.3,158.877435913086,0.616899013519287,159.495681037903,2,right,0.597431898117065,159.494334926605,604.478013505936,607.238013505936,1613677106.14937,1613677106.1499,1613677114.069,1613677114.08297,1613677116.16979,1613677122.62221,1613677122.62334,1613677123.24046,1613677123.23911,1613677568.22279,1
5,4,1,1,10,1,3,c3_HowFace,1,open mouth?,80,F_844.jpg,1613676960.98478,1613676961.00943,159.56102560997,9.54910135269165,169.114612092972,171.215399494171,2.10078740119934,171.365456809998,0.450169086456299,171.821061124802,1,left,0.436527013778687,171.815625896454,604.478013505936,607.238013505936,1613677123.3058,1613677123.31598,1613677132.85939,1613677132.86525,1613677134.96018,1613677135.11023,1613677135.11591,1613677135.56584,1613677135.5604,1613677568.22279,1
5,4,1,1,10,2,3,c3_HowFace,1,open mouth?,78,F_692.jpg,1613676960.98478,1613676961.00943,159.56102560997,9.54910135269165,169.114612092972,171.215399494171,0.3,172.132410516739,0.483515501022339,172.621067991257,1,left,0.466554164886475,172.615926017761,604.478013505936,607.238013505936,1613677123.3058,1613677123.31598,1613677132.85939,1613677132.86525,1613677134.96018,1613677135.87719,1613677135.87832,1613677136.36585,1613677136.3607,1613677568.22279,1
5,4,1,1,10,3,3,c3_HowFace,2,open mouth?,77,F_584.jpg,1613676960.98478,1613676961.00943,159.56102560997,9.54910135269165,169.114612092972,171.215399494171,0.3,172.932712068558,0.43349552154541,173.367370119095,2,right,0.413712978363037,173.366207590103,604.478013505936,607.238013505936,1613677123.3058,1613677123.31598,1613677132.85939,1613677132.86525,1613677134.96018,1613677136.67749,1613677136.67847,1613677137.11215,1613677137.11099,1613677568.22279,1
5,4,1,1,10,4,3,c3_HowFace,1,open mouth?,75,F_086.jpg,1613676960.98478,1613676961.00943,159.56102560997,9.54910135269165,169.114612092972,171.215399494171,0.3,173.682992687225,0.450169324874878,174.134140958786,1,left,0.42923378944397,174.1331620121,604.478013505936,607.238013505936,1613677123.3058,1613677123.31598,1613677132.85939,1613677132.86525,1613677134.96018,1613677137.42777,1613677137.42883,1613677137.87892,1613677137.87794,1613677568.22279,1
5,4,1,1,10,5,3,c3_HowFace,1,open mouth?,73,F_403.jpg,1613676960.98478,1613676961.00943,159.56102560997,9.54910135269165,169.114612092972,171.215399494171,0.3,174.44994758606,0.450168132781982,174.904407968521,1,left,0.436234951019287,174.900115718842,604.478013505936,607.238013505936,1613677123.3058,1613677123.31598,1613677132.85939,1613677132.86525,1613677134.96018,1613677138.19473,1613677138.19909,1613677138.64919,1613677138.64489,1613677568.22279,1
5,4,1,1,10,6,3,c3_HowFace,2,open mouth?,76,F_544.jpg,1613676960.98478,1613676961.00943,159.56102560997,9.54910135269165,169.114612092972,171.215399494171,0.3,175.216901769638,0.450170516967773,175.671022167206,2,right,0.430470943450928,175.667072286606,604.478013505936,607.238013505936,1613677123.3058,1613677123.31598,1613677132.85939,1613677132.86525,1613677134.96018,1613677138.96168,1613677138.96574,1613677139.4158,1613677139.41185,1613677568.22279,1
5,4,1,1,10,7,3,c3_HowFace,2,open mouth?,79,F_648.jpg,1613676960.98478,1613676961.00943,159.56102560997,9.54910135269165,169.114612092972,171.215399494171,0.3,175.983856191635,0.750282287597656,176.737771024704,2,right,0.729732990264893,176.734138479233,604.478013505936,607.238013505936,1613677123.3058,1613677123.31598,1613677132.85939,1613677132.86525,1613677134.96018,1613677139.72863,1613677139.73253,1613677140.48255,1613677140.47892,1613677568.22279,1
5,4,1,1,10,8,3,c3_HowFace,1,open mouth?,74,F_776.jpg,1613676960.98478,1613676961.00943,159.56102560997,9.54910135269165,169.114612092972,171.215399494171,0.3,177.050924053192,0.666916370391846,177.720909109116,1,left,0.656825065612793,177.717840423584,604.478013505936,607.238013505936,1613677123.3058,1613677123.31598,1613677132.85939,1613677132.86525,1613677134.96018,1613677140.7957,1613677140.799,1613677141.46569,1613677141.46262,1613677568.22279,1
5,4,1,1,11,1,4,c4_HowHand,1,lifting?,54,H_170.jpg,1613676960.98478,1613676961.00943,177.801205863953,9.37891221046448,187.188061704636,189.288851013184,2.10078930854797,189.438906421661,0.700262784957886,190.140279045105,1,left,0.680477142333984,190.139169206619,604.478013505936,607.238013505936,1613677141.54598,1613677141.54938,1613677150.93284,1613677150.93355,1613677153.03363,1613677153.18368,1613677153.18478,1613677153.88506,1613677153.88395,1613677568.22279,1
5,4,1,1,11,2,4,c4_HowHand,2,lifting?,53,H_077.jpg,1613676960.98478,1613676961.00943,177.801205863953,9.37891221046448,187.188061704636,189.288851013184,0.3,190.455954780579,0.533534049987793,191.004003038406,2,right,0.527379989624023,190.989488830566,604.478013505936,607.238013505936,1613677141.54598,1613677141.54938,1613677150.93284,1613677150.93355,1613677153.03363,1613677154.20073,1613677154.20178,1613677154.74878,1613677154.73427,1613677568.22279,1
5,4,1,1,11,3,4,c4_HowHand,1,lifting?,52,H_189.jpg,1613676960.98478,1613676961.00943,177.801205863953,9.37891221046448,187.188061704636,189.288851013184,0.3,191.30627368927,0.550207853317261,191.857848157883,1,left,0.531459808349609,191.856481542587,604.478013505936,607.238013505936,1613677141.54598,1613677141.54938,1613677150.93284,1613677150.93355,1613677153.03363,1613677155.05105,1613677155.05211,1613677155.60263,1613677155.60126,1613677568.22279,1
5,4,1,1,11,4,4,c4_HowHand,1,lifting?,49,H_362.jpg,1613676960.98478,1613676961.00943,177.801205863953,9.37891221046448,187.188061704636,189.288851013184,0.3,192.173266878128,0.550206422805786,192.724519958496,1,left,0.532029151916504,192.723473300934,604.478013505936,607.238013505936,1613677141.54598,1613677141.54938,1613677150.93284,1613677150.93355,1613677153.03363,1613677155.91804,1613677155.91959,1613677156.4693,1613677156.46825,1613677568.22279,1
5,4,1,1,11,5,4,c4_HowHand,2,lifting?,55,H_012.jpg,1613676960.98478,1613676961.00943,177.801205863953,9.37891221046448,187.188061704636,189.288851013184,0.3,193.040258874893,0.466841220855713,193.520946016312,2,right,0.459726095199585,193.507100095749,604.478013505936,607.238013505936,1613677141.54598,1613677141.54938,1613677150.93284,1613677150.93355,1613677153.03363,1613677156.78504,1613677156.78569,1613677157.26572,1613677157.25188,1613677568.22279,1
5,4,1,1,11,6,4,c4_HowHand,1,lifting?,50,H_443.jpg,1613676960.98478,1613676961.00943,177.801205863953,9.37891221046448,187.188061704636,189.288851013184,0.3,193.823885908127,0.500188589096069,194.324975004196,1,left,0.482010126113892,194.324074497223,604.478013505936,607.238013505936,1613677141.54598,1613677141.54938,1613677150.93284,1613677150.93355,1613677153.03363,1613677157.56866,1613677157.5701,1613677158.06975,1613677158.06885,1613677568.22279,1
5,4,1,1,11,7,4,c4_HowHand,1,lifting?,56,H_136.jpg,1613676960.98478,1613676961.00943,177.801205863953,9.37891221046448,187.188061704636,189.288851013184,0.3,194.640858879089,0.633571624755859,195.287799110413,2,right,0.629012107849121,195.274430503845,604.478013505936,607.238013505936,1613677141.54598,1613677141.54938,1613677150.93284,1613677150.93355,1613677153.03363,1613677158.38564,1613677158.38661,1613677159.03258,1613677159.01921,1613677568.22279,0
5,4,1,1,11,8,4,c4_HowHand,2,lifting?,51,H_038.jpg,1613676960.98478,1613676961.00943,177.801205863953,9.37891221046448,187.188061704636,189.288851013184,0.3,195.591215839386,0.750281810760498,196.342493047714,2,right,0.734733819961548,196.341497650146,604.478013505936,607.238013505936,1613677141.54598,1613677141.54938,1613677150.93284,1613677150.93355,1613677153.03363,1613677159.33599,1613677159.33701,1613677160.08727,1613677160.08628,1613677568.22279,1
5,4,1,1,12,1,2,c2_WhyHand,1,competing?,13,H_003.jpg,1613676960.98478,1613676961.00943,196.424861421585,8.2852897644043,204.727977981567,206.828766813278,2.10078883171082,206.978822698593,0.566879987716675,207.546929111481,1,left,0.547396898269653,207.54570268631,604.478013505936,607.238013505936,1613677160.16964,1613677160.17066,1613677168.47276,1613677168.47372,1613677170.57354,1613677170.7236,1613677170.72481,1613677171.29171,1613677171.29048,1613677568.22279,1
5,4,1,1,12,2,2,c2_WhyHand,2,competing?,12,H_483.jpg,1613676960.98478,1613676961.00943,196.424861421585,8.2852897644043,204.727977981567,206.828766813278,0.3,207.862487783432,0.650245428085327,208.520946016312,2,right,0.643928050994873,208.512733211517,604.478013505936,607.238013505936,1613677160.16964,1613677160.17066,1613677168.47276,1613677168.47372,1613677170.57354,1613677171.60727,1613677171.6083,1613677172.26572,1613677172.25751,1613677568.22279,1
5,4,1,1,12,3,2,c2_WhyHand,1,competing?,14,H_132.jpg,1613676960.98478,1613676961.00943,196.424861421585,8.2852897644043,204.727977981567,206.828766813278,0.3,208.829518070221,0.633570671081543,209.470692148209,1,left,0.622722148895264,209.463088741302,604.478013505936,607.238013505936,1613677160.16964,1613677160.17066,1613677168.47276,1613677168.47372,1613677170.57354,1613677172.5743,1613677172.57551,1613677173.21547,1613677173.20787,1613677568.22279,1
5,4,1,1,12,4,2,c2_WhyHand,1,competing?,15,H_170.jpg,1613676960.98478,1613676961.00943,196.424861421585,8.2852897644043,204.727977981567,206.828766813278,0.3,209.77987288475,0.683590888977051,210.471101036072,1,left,0.670031070709229,210.463463773727,604.478013505936,607.238013505936,1613677160.16964,1613677160.17066,1613677168.47276,1613677168.47372,1613677170.57354,1613677173.52465,1613677173.52597,1613677174.21588,1613677174.20824,1613677568.22279,1
5,4,1,1,12,5,2,c2_WhyHand,2,competing?,11,H_502.jpg,1613676960.98478,1613676961.00943,196.424861421585,8.2852897644043,204.727977981567,206.828766813278,0.3,210.780250301361,0.816972732543945,211.604369153976,1,left,0.805034875869751,211.597223033905,604.478013505936,607.238013505936,1613677160.16964,1613677160.17066,1613677168.47276,1613677168.47372,1613677170.57354,1613677174.52503,1613677174.52632,1613677175.34915,1613677175.342,1613677568.22279,0
5,4,1,1,12,6,2,c2_WhyHand,1,competing?,16,H_136.jpg,1613676960.98478,1613676961.00943,196.424861421585,8.2852897644043,204.727977981567,206.828766813278,0.3,211.914008607864,0.816973686218262,212.738094081879,1,left,0.810435056686401,212.730982294083,604.478013505936,607.238013505936,1613677160.16964,1613677160.17066,1613677168.47276,1613677168.47372,1613677170.57354,1613677175.65879,1613677175.65989,1613677176.48287,1613677176.47576,1613677568.22279,1
5,4,1,1,12,7,2,c2_WhyHand,2,competing?,10,H_126.jpg,1613676960.98478,1613676961.00943,196.424861421585,8.2852897644043,204.727977981567,206.828766813278,0.3,213.047767868042,0.750282049179077,213.80446814537,2,right,0.737716913223267,213.798049917221,604.478013505936,607.238013505936,1613677160.16964,1613677160.17066,1613677168.47276,1613677168.47372,1613677170.57354,1613677176.79255,1613677176.79357,1613677177.54925,1613677177.54283,1613677568.22279,1
5,4,1,1,12,8,2,c2_WhyHand,1,competing?,9,H_261.jpg,1613676960.98478,1613676961.00943,196.424861421585,8.2852897644043,204.727977981567,206.828766813278,0.3,214.114835252762,0.650243759155273,214.766221036911,1,left,0.631924152374268,214.765079011917,604.478013505936,607.238013505936,1613677160.16964,1613677160.17066,1613677168.47276,1613677168.47372,1613677170.57354,1613677177.85961,1613677177.86102,1613677178.511,1613677178.50986,1613677568.22279,1
5,4,1,1,13,1,1,c1_WhyFace,1,admiring?,5,F_759.jpg,1613676960.98478,1613676961.00943,214.848444213867,8.08171796798706,222.934811820984,225.03559969902,2.1007878780365,225.185657014847,0.516861438751221,225.704745044708,1,left,0.496784925460815,225.702518453598,604.478013505936,607.238013505936,1613677178.59322,1613677178.59439,1613677186.67959,1613677186.68258,1613677188.78038,1613677188.93043,1613677188.93269,1613677189.44952,1613677189.4473,1613677568.22279,1
5,4,1,1,13,2,1,c1_WhyFace,1,admiring?,1,F_593.jpg,1613676960.98478,1613676961.00943,214.848444213867,8.08171796798706,222.934811820984,225.03559969902,0.3,226.019303073883,0.650243997573853,226.671176185608,1,left,0.632227897644043,226.669547071457,604.478013505936,607.238013505936,1613677178.59322,1613677178.59439,1613677186.67959,1613677186.68258,1613677188.78038,1613677189.76408,1613677189.76608,1613677190.41595,1613677190.41432,1613677568.22279,1
5,4,1,1,13,3,1,c1_WhyFace,2,admiring?,6,F_692.jpg,1613676960.98478,1613676961.00943,214.848444213867,8.08171796798706,222.934811820984,225.03559969902,0.3,226.986332883835,0.583552122116089,227.571128120422,2,right,0.570704936981201,227.569885005951,604.478013505936,607.238013505936,1613677178.59322,1613677178.59439,1613677186.67959,1613677186.68258,1613677188.78038,1613677190.73111,1613677190.73256,1613677191.31591,1613677191.31466,1613677568.22279,1
5,4,1,1,13,4,1,c1_WhyFace,1,admiring?,8,F_590.jpg,1613676960.98478,1613676961.00943,214.848444213867,8.08171796798706,222.934811820984,225.03559969902,0.3,227.886671295166,0.583551406860352,228.471554031372,1,left,0.564825057983398,228.470222702026,604.478013505936,607.238013505936,1613677178.59322,1613677178.59439,1613677186.67959,1613677186.68258,1613677188.78038,1613677191.63145,1613677191.63265,1613677192.21633,1613677192.215,1613677568.22279,1
5,4,1,1,13,5,1,c1_WhyFace,2,admiring?,2,F_129.jpg,1613676960.98478,1613676961.00943,214.848444213867,8.08171796798706,222.934811820984,225.03559969902,0.3,228.787008514404,0.766954183578491,229.555071105957,2,right,0.753425121307373,229.553962697983,604.478013505936,607.238013505936,1613677178.59322,1613677178.59439,1613677186.67959,1613677186.68258,1613677188.78038,1613677192.53179,1613677192.53304,1613677193.29985,1613677193.29874,1613677568.22279,1
5,4,1,1,13,6,1,c1_WhyFace,1,admiring?,7,F_648.jpg,1613676960.98478,1613676961.00943,214.848444213867,8.08171796798706,222.934811820984,225.03559969902,0.3,229.870748987198,0.633571147918701,230.505475034714,1,left,0.620913028717041,230.504320135117,604.478013505936,607.238013505936,1613677178.59322,1613677178.59439,1613677186.67959,1613677186.68258,1613677188.78038,1613677193.61553,1613677193.61657,1613677194.25025,1613677194.2491,1613677568.22279,1
5,4,1,1,13,7,1,c1_WhyFace,2,admiring?,3,F_110.jpg,1613676960.98478,1613676961.00943,214.848444213867,8.08171796798706,222.934811820984,225.03559969902,0.3,230.821105709076,0.616897821426392,231.454457988739,2,right,0.612815856933594,231.438003530502,604.478013505936,607.238013505936,1613677178.59322,1613677178.59439,1613677186.67959,1613677186.68258,1613677188.78038,1613677194.56588,1613677194.56676,1613677195.19924,1613677195.18278,1613677568.22279,1
5,4,1,1,13,8,1,c1_WhyFace,1,admiring?,4,F_779.jpg,1613676960.98478,1613676961.00943,214.848444213867,8.08171796798706,222.934811820984,225.03559969902,0.3,231.754788627625,0.583553075790405,232.339684000015,1,left,0.56977391242981,232.338341703415,604.478013505936,607.238013505936,1613677178.59322,1613677178.59439,1613677186.67959,1613677186.68258,1613677188.78038,1613677195.49957,1613677195.50026,1613677196.08446,1613677196.08312,1613677568.22279,1
5,4,1,1,14,1,3,c3_HowFace,1,looking at camera?,64,F_128.jpg,1613676960.98478,1613676961.00943,232.405032625198,8.41510939598083,240.82486032486,242.925648202896,2.1007878780365,243.075703849792,0.733609437942505,243.810466995239,1,left,0.703305006027222,243.809313287735,604.478013505936,607.238013505936,1613677196.14981,1613677196.16605,1613677204.56964,1613677204.58298,1613677206.67043,1613677206.82048,1613677206.83297,1613677207.55524,1613677207.55409,1613677568.22279,1
5,4,1,1,14,2,3,c3_HowFace,2,looking at camera?,58,F_754.jpg,1613676960.98478,1613676961.00943,232.405032625198,8.41510939598083,240.82486032486,242.925648202896,0.3,244.126098623276,0.566878795623779,244.69437002182,2,right,0.547768115997314,244.6929774189,604.478013505936,607.238013505936,1613677196.14981,1613677196.16605,1613677204.56964,1613677204.58298,1613677206.67043,1613677207.87088,1613677207.87171,1613677208.43915,1613677208.43776,1613677568.22279,1
5,4,1,1,14,3,3,c3_HowFace,1,looking at camera?,62,F_598.jpg,1613676960.98478,1613676961.00943,232.405032625198,8.41510939598083,240.82486032486,242.925648202896,0.3,245.009764184952,0.633570432662964,245.654577007294,1,left,0.627887964248657,245.643334617615,604.478013505936,607.238013505936,1613677196.14981,1613677196.16605,1613677204.56964,1613677204.58298,1613677206.67043,1613677208.75454,1613677208.75555,1613677209.39935,1613677209.38811,1613677568.22279,1
5,4,1,1,14,4,3,c3_HowFace,1,looking at camera?,59,F_129.jpg,1613676960.98478,1613676961.00943,232.405032625198,8.41510939598083,240.82486032486,242.925648202896,0.3,245.960120429993,0.566879034042358,246.537917127609,1,left,0.555257081985474,246.526999464035,604.478013505936,607.238013505936,1613677196.14981,1613677196.16605,1613677204.56964,1613677204.58298,1613677206.67043,1613677209.7049,1613677209.70598,1613677210.2827,1613677210.27178,1613677568.22279,1
5,4,1,1,14,5,3,c3_HowFace,1,looking at camera?,60,F_618.jpg,1613676960.98478,1613676961.00943,232.405032625198,8.41510939598083,240.82486032486,242.925648202896,0.3,246.843786230087,0.533532857894897,247.378570070267,1,left,0.515062093734741,247.377319087982,604.478013505936,607.238013505936,1613677196.14981,1613677196.16605,1613677204.56964,1613677204.58298,1613677206.67043,1613677210.58856,1613677210.58935,1613677211.12335,1613677211.1221,1613677568.22279,1
5,4,1,1,14,6,3,c3_HowFace,2,looking at camera?,63,F_743.jpg,1613676960.98478,1613676961.00943,232.405032625198,8.41510939598083,240.82486032486,242.925648202896,0.3,247.694104185104,0.483514785766602,248.187920084,2,right,0.478495121002197,248.177618970871,604.478013505936,607.238013505936,1613677196.14981,1613677196.16605,1613677204.56964,1613677204.58298,1613677206.67043,1613677211.43888,1613677211.43973,1613677211.9327,1613677211.9224,1613677568.22279,1
5,4,1,1,14,7,3,c3_HowFace,1,looking at camera?,61,F_774.jpg,1613676960.98478,1613676961.00943,232.405032625198,8.41510939598083,240.82486032486,242.925648202896,0.3,248.494404783249,0.533534288406372,249.029359092712,1,left,0.516316175460815,249.027939071655,604.478013505936,607.238013505936,1613677196.14981,1613677196.16605,1613677204.56964,1613677204.58298,1613677206.67043,1613677212.23918,1613677212.24008,1613677212.77414,1613677212.77272,1613677568.22279,1
5,4,1,1,14,8,3,c3_HowFace,2,looking at camera?,57,F_582.jpg,1613676960.98478,1613676961.00943,232.405032625198,8.41510939598083,240.82486032486,242.925648202896,0.3,249.344723453522,0.950357675552368,250.296014060974,2,right,0.93045711517334,250.295081129074,604.478013505936,607.238013505936,1613677196.14981,1613677196.16605,1613677204.56964,1613677204.58298,1613677206.67043,1613677213.0895,1613677213.09051,1613677214.04079,1613677214.03986,1613677568.22279,1
5,4,1,1,15,1,4,c4_HowHand,1,pressing button?,88,H_019.jpg,1613676960.98478,1613676961.00943,250.378444423676,11.9216935634613,262.316258659363,264.417047967911,2.10078930854797,264.567103614807,0.53353476524353,265.10439204216,1,left,0.516191005706787,265.100638380051,604.478013505936,607.238013505936,1613677214.12322,1613677214.12382,1613677226.06104,1613677226.06594,1613677228.16183,1613677228.31188,1613677228.31598,1613677228.84917,1613677228.84542,1613677568.22279,1
5,4,1,1,15,2,4,c4_HowHand,1,pressing button?,82,H_126.jpg,1613676960.98478,1613676961.00943,250.378444423676,11.9216935634613,262.316258659363,264.417047967911,0.3,265.41742228508,0.533534526824951,265.954210987091,1,left,0.520049095153809,265.950956811905,604.478013505936,607.238013505936,1613677214.12322,1613677214.12382,1613677226.06104,1613677226.06594,1613677228.16183,1613677229.1622,1613677229.16609,1613677229.69899,1613677229.69573,1613677568.22279,1
5,4,1,1,15,3,4,c4_HowHand,2,pressing button?,85,H_130.jpg,1613676960.98478,1613676961.00943,250.378444423676,11.9216935634613,262.316258659363,264.417047967911,0.3,266.267742147446,0.500187635421753,266.771069993973,2,right,0.484529972076416,266.767929782867,604.478013505936,607.238013505936,1613677214.12322,1613677214.12382,1613677226.06104,1613677226.06594,1613677228.16183,1613677230.01252,1613677230.01582,1613677230.51585,1613677230.51271,1613677568.22279,1
5,4,1,1,15,4,4,c4_HowHand,1,pressing button?,86,H_332.jpg,1613676960.98478,1613676961.00943,250.378444423676,11.9216935634613,262.316258659363,264.417047967911,0.3,267.084715595245,0.566879510879517,267.654385080338,1,left,0.553693056106567,267.651595106125,604.478013505936,607.238013505936,1613677214.12322,1613677214.12382,1613677226.06104,1613677226.06594,1613677228.16183,1613677230.82949,1613677230.83268,1613677231.39916,1613677231.39637,1613677568.22279,1
5,4,1,1,15,5,4,c4_HowHand,2,pressing button?,87,H_024.jpg,1613676960.98478,1613676961.00943,250.378444423676,11.9216935634613,262.316258659363,264.417047967911,0.3,267.968380441666,0.583552598953247,268.554170122147,2,right,0.572598934173584,268.551933040619,604.478013505936,607.238013505936,1613677214.12322,1613677214.12382,1613677226.06104,1613677226.06594,1613677228.16183,1613677231.71316,1613677231.71586,1613677232.29895,1613677232.29671,1613677568.22279,1
5,4,1,1,15,6,4,c4_HowHand,1,pressing button?,84,H_483.jpg,1613676960.98478,1613676961.00943,250.378444423676,11.9216935634613,262.316258659363,264.417047967911,0.3,268.868718137741,0.78362774848938,269.654399147034,1,left,0.771474123001099,269.65234588623,604.478013505936,607.238013505936,1613677214.12322,1613677214.12382,1613677226.06104,1613677226.06594,1613677228.16183,1613677232.6135,1613677232.61583,1613677233.39918,1613677233.39712,1613677568.22279,1
5,4,1,1,15,7,4,c4_HowHand,2,pressing button?,81,H_261.jpg,1613676960.98478,1613676961.00943,250.378444423676,11.9216935634613,262.316258659363,264.417047967911,0.3,269.969132413864,0.616897344589233,270.587784996033,2,right,0.60903787612915,270.586029758453,604.478013505936,607.238013505936,1613677214.12322,1613677214.12382,1613677226.06104,1613677226.06594,1613677228.16183,1613677233.71391,1613677233.71617,1613677234.33256,1613677234.33081,1613677568.22279,1
5,4,1,1,15,8,4,c4_HowHand,1,pressing button?,83,H_502.jpg,1613676960.98478,1613676961.00943,250.378444423676,11.9216935634613,262.316258659363,264.417047967911,0.3,270.902815332413,0.75028133392334,271.654853096008,1,left,0.732976913452148,271.653096666336,604.478013505936,607.238013505936,1613677214.12322,1613677214.12382,1613677226.06104,1613677226.06594,1613677228.16183,1613677234.64759,1613677234.64924,1613677235.39963,1613677235.39787,1613677568.22279,1
5,4,1,1,16,1,2,c2_WhyHand,1,self-protection?,89,H_443.jpg,1613676960.98478,1613676961.00943,271.71978758812,8.42035055160522,280.156288852692,282.257076969147,2.10078811645508,282.407132377625,0.533535003662109,282.941930999756,1,left,0.519701957702637,282.940667381287,604.478013505936,607.238013505936,1613677235.46457,1613677235.46552,1613677243.90107,1613677243.90238,1613677246.00185,1613677246.15191,1613677246.15287,1613677246.68671,1613677246.68545,1613677568.22279,1
5,4,1,1,16,2,2,c2_WhyHand,1,self-protection?,94,H_189.jpg,1613676960.98478,1613676961.00943,271.71978758812,8.42035055160522,280.156288852692,282.257076969147,0.3,283.257451524735,0.783627986907959,284.054731121063,1,left,0.780235052108765,284.041079511642,604.478013505936,607.238013505936,1613677235.46457,1613677235.46552,1613677243.90107,1613677243.90238,1613677246.00185,1613677247.00223,1613677247.00266,1613677247.79951,1613677247.78586,1613677568.22279,1
5,4,1,1,16,3,2,c2_WhyHand,1,self-protection?,96,H_027.jpg,1613676960.98478,1613676961.00943,271.71978758812,8.42035055160522,280.156288852692,282.257076969147,0.3,284.357865800858,0.833645820617676,285.192624082565,1,left,0.814743995666504,285.191511621475,604.478013505936,607.238013505936,1613677235.46457,1613677235.46552,1613677243.90107,1613677243.90238,1613677246.00185,1613677248.10264,1613677248.10368,1613677248.9374,1613677248.93629,1613677568.22279,1
5,4,1,1,16,4,2,c2_WhyHand,2,self-protection?,92,H_532.jpg,1613676960.98478,1613676961.00943,271.71978758812,8.42035055160522,280.156288852692,282.257076969147,0.3,285.508296718597,0.766955137252808,286.2765421772,2,right,0.75224494934082,286.27525185585,604.478013505936,607.238013505936,1613677235.46457,1613677235.46552,1613677243.90107,1613677243.90238,1613677246.00185,1613677249.25307,1613677249.25415,1613677250.02132,1613677250.02003,1613677568.22279,1
5,4,1,1,16,5,2,c2_WhyHand,1,self-protection?,93,H_038.jpg,1613676960.98478,1613676961.00943,271.71978758812,8.42035055160522,280.156288852692,282.257076969147,0.3,286.59203742981,0.833646297454834,287.438017120361,1,left,0.824712038040161,287.425683727264,604.478013505936,607.238013505936,1613677235.46457,1613677235.46552,1613677243.90107,1613677243.90238,1613677246.00185,1613677250.33682,1613677250.33852,1613677251.1828,1613677251.17046,1613677568.22279,1
5,4,1,1,16,6,2,c2_WhyHand,2,self-protection?,90,H_006.jpg,1613676960.98478,1613676961.00943,271.71978758812,8.42035055160522,280.156288852692,282.257076969147,0.3,287.742470254898,0.766952753067017,288.510691156387,2,right,0.755553007125854,288.509423007965,604.478013505936,607.238013505936,1613677235.46457,1613677235.46552,1613677243.90107,1613677243.90238,1613677246.00185,1613677251.48725,1613677251.48867,1613677252.25547,1613677252.2542,1613677568.22279,1
5,4,1,1,16,7,2,c2_WhyHand,2,self-protection?,95,H_332.jpg,1613676960.98478,1613676961.00943,271.71978758812,8.42035055160522,280.156288852692,282.257076969147,0.3,288.82620929718,0.666916608810425,289.494040002823,2,right,0.649327993392944,289.493125905991,604.478013505936,607.238013505936,1613677235.46457,1613677235.46552,1613677243.90107,1613677243.90238,1613677246.00185,1613677252.57099,1613677252.57215,1613677253.23882,1613677253.2379,1613677568.22279,1
5,4,1,1,16,8,2,c2_WhyHand,1,self-protection?,91,H_581.jpg,1613676960.98478,1613676961.00943,271.71978758812,8.42035055160522,280.156288852692,282.257076969147,0.3,289.809911956787,0.55020546913147,290.361020078659,1,left,0.534318923950195,290.360117425919,604.478013505936,607.238013505936,1613677235.46457,1613677235.46552,1613677243.90107,1613677243.90238,1613677246.00185,1613677253.55469,1613677253.55571,1613677254.1058,1613677254.1049,1613677568.22279,1
5,4,1,1,17,1,4,c4_HowHand,1,reaching?,107,H_007.jpg,1613676960.98478,1613676961.00943,290.426810255051,8.38928985595703,298.829963912964,300.930752983093,2.10078907012939,301.08080862999,0.566879987716675,301.654752006531,1,left,0.56157112121582,301.647688617706,604.478013505936,607.238013505936,1613677254.17159,1613677254.18255,1613677262.57474,1613677262.57581,1613677264.67553,1613677264.82559,1613677264.82698,1613677265.39953,1613677265.39247,1613677568.22279,1
5,4,1,1,17,2,4,c4_HowHand,2,reaching?,108,H_532.jpg,1613676960.98478,1613676961.00943,290.426810255051,8.38928985595703,298.829963912964,300.930752983093,0.3,301.964473953247,0.583552360534668,302.554270019531,2,right,0.574041843414307,302.548026313782,604.478013505936,607.238013505936,1613677254.17159,1613677254.18255,1613677262.57474,1613677262.57581,1613677264.67553,1613677265.70925,1613677265.71045,1613677266.29905,1613677266.2928,1613677568.22279,1
5,4,1,1,17,3,4,c4_HowHand,1,reaching?,109,H_474.jpg,1613676960.98478,1613676961.00943,290.426810255051,8.38928985595703,298.829963912964,300.930752983093,0.3,302.864811887741,0.616897344589233,303.482793083191,1,left,0.598938941955566,303.48170923233,604.478013505936,607.238013505936,1613677254.17159,1613677254.18255,1613677262.57474,1613677262.57581,1613677264.67553,1613677266.60959,1613677266.61067,1613677267.22757,1613677267.22649,1613677568.22279,1
5,4,1,1,17,4,4,c4_HowHand,2,reaching?,105,H_438.jpg,1613676960.98478,1613676961.00943,290.426810255051,8.38928985595703,298.829963912964,300.930752983093,0.3,303.798495283127,0.616899013519287,304.421560993195,2,right,0.604174137115479,304.415394296646,604.478013505936,607.238013505936,1613677254.17159,1613677254.18255,1613677262.57474,1613677262.57581,1613677264.67553,1613677267.54327,1613677267.54436,1613677268.16634,1613677268.16017,1613677568.22279,1
5,4,1,1,17,5,4,c4_HowHand,1,reaching?,110,H_364.jpg,1613676960.98478,1613676961.00943,290.426810255051,8.38928985595703,298.829963912964,300.930752983093,0.3,304.732179393768,0.5668785572052,305.304697980881,1,left,0.559500932693481,305.299057950974,604.478013505936,607.238013505936,1613677254.17159,1613677254.18255,1613677262.57474,1613677262.57581,1613677264.67553,1613677268.47696,1613677268.47793,1613677269.04948,1613677269.04384,1613677568.22279,1
5,4,1,1,17,6,4,c4_HowHand,1,reaching?,106,H_006.jpg,1613676960.98478,1613676961.00943,290.426810255051,8.38928985595703,298.829963912964,300.930752983093,0.3,305.615843524933,0.700263500213623,306.321205129623,1,left,0.684062957763672,306.316107025146,604.478013505936,607.238013505936,1613677254.17159,1613677254.18255,1613677262.57474,1613677262.57581,1613677264.67553,1613677269.36062,1613677269.36151,1613677270.06598,1613677270.06088,1613677568.22279,1
5,4,1,1,17,7,4,c4_HowHand,1,reaching?,111,H_003.jpg,1613676960.98478,1613676961.00943,290.426810255051,8.38928985595703,298.829963912964,300.930752983093,0.3,306.632891407013,0.566880226135254,307.204914083481,1,left,0.553119897842407,307.199771633148,604.478013505936,607.238013505936,1613677254.17159,1613677254.18255,1613677262.57474,1613677262.57581,1613677264.67553,1613677270.37767,1613677270.37932,1613677270.94969,1613677270.94455,1613677568.22279,1
5,4,1,1,17,8,4,c4_HowHand,2,reaching?,112,H_132.jpg,1613676960.98478,1613676961.00943,290.426810255051,8.38928985595703,298.829963912964,300.930752983093,0.3,307.516555776596,0.683590412139893,308.204208126068,2,right,0.672047853469849,308.200146188736,604.478013505936,607.238013505936,1613677254.17159,1613677254.18255,1613677262.57474,1613677262.57581,1613677264.67553,1613677271.26133,1613677271.26597,1613677271.94899,1613677271.94492,1613677568.22279,1
5,4,1,1,18,1,2,c2_WhyHand,1,healthy?,21,H_627.jpg,1613676960.98478,1613676961.00943,308.283511629105,9.49662733078003,317.787078847885,319.887866725922,2.1007878780365,320.037923564911,0.433496713638306,320.472341051102,1,left,0.417881011962891,320.471420278549,604.478013505936,607.238013505936,1613677272.02829,1613677272.02939,1613677281.53186,1613677281.53288,1613677283.63264,1613677283.7827,1613677283.78373,1613677284.21712,1613677284.2162,1613677568.22279,1
5,4,1,1,18,2,2,c2_WhyHand,1,healthy?,18,H_438.jpg,1613676960.98478,1613676961.00943,308.283511629105,9.49662733078003,317.787078847885,319.887866725922,0.3,320.788204898834,0.516861438751221,321.306199064255,1,left,0.503554105758667,321.305066337585,604.478013505936,607.238013505936,1613677272.02829,1613677272.02939,1613677281.53186,1613677281.53288,1613677283.63264,1613677284.53298,1613677284.5341,1613677285.05098,1613677285.04984,1613677568.22279,1
5,4,1,1,18,3,2,c2_WhyHand,1,healthy?,23,H_364.jpg,1613676960.98478,1613676961.00943,308.283511629105,9.49662733078003,317.787078847885,319.887866725922,0.3,321.621850719452,0.650243759155273,322.273219099045,1,left,0.640648126602173,322.272094478607,604.478013505936,607.238013505936,1613677272.02829,1613677272.02939,1613677281.53186,1613677281.53288,1613677283.63264,1613677285.36663,1613677285.36739,1613677286.018,1613677286.01687,1613677568.22279,1
5,4,1,1,18,4,2,c2_WhyHand,2,healthy?,22,H_130.jpg,1613676960.98478,1613676961.00943,308.283511629105,9.49662733078003,317.787078847885,319.887866725922,0.3,322.588881006241,0.583552837371826,323.173379173279,2,right,0.57696795463562,323.172433843613,604.478013505936,607.238013505936,1613677272.02829,1613677272.02939,1613677281.53186,1613677281.53288,1613677283.63264,1613677286.33366,1613677286.3347,1613677286.91816,1613677286.91721,1613677568.22279,1
5,4,1,1,18,5,2,c2_WhyHand,1,healthy?,17,H_362.jpg,1613676960.98478,1613676961.00943,308.283511629105,9.49662733078003,317.787078847885,319.887866725922,0.3,323.489218940735,0.633570671081543,324.123810997009,1,left,0.614410877227783,324.122789611816,604.478013505936,607.238013505936,1613677272.02829,1613677272.02939,1613677281.53186,1613677281.53288,1613677283.63264,1613677287.234,1613677287.23508,1613677287.86859,1613677287.86757,1613677568.22279,1
5,4,1,1,18,6,2,c2_WhyHand,2,healthy?,20,H_007.jpg,1613676960.98478,1613676961.00943,308.283511629105,9.49662733078003,317.787078847885,319.887866725922,0.3,324.439575662613,0.533533334732056,324.974348058701,2,right,0.512887001037598,324.973108997345,604.478013505936,607.238013505936,1613677272.02829,1613677272.02939,1613677281.53186,1613677281.53288,1613677283.63264,1613677288.18435,1613677288.18557,1613677288.71913,1613677288.71789,1613677568.22279,1
5,4,1,1,18,7,2,c2_WhyHand,1,healthy?,19,H_167.jpg,1613676960.98478,1613676961.00943,308.283511629105,9.49662733078003,317.787078847885,319.887866725922,0.3,325.289895048141,0.63357138633728,325.924106111526,1,left,0.624758005142212,325.923466434479,604.478013505936,607.238013505936,1613677272.02829,1613677272.02939,1613677281.53186,1613677281.53288,1613677283.63264,1613677289.03467,1613677289.03582,1613677289.66888,1613677289.66824,1613677568.22279,1
5,4,1,1,18,8,2,c2_WhyHand,2,healthy?,24,H_019.jpg,1613676960.98478,1613676961.00943,308.283511629105,9.49662733078003,317.787078847885,319.887866725922,0.3,326.240250816345,0.533531904220581,326.775231113434,1,left,0.518996953964233,326.773782720566,604.478013505936,607.238013505936,1613677272.02829,1613677272.02939,1613677281.53186,1613677281.53288,1613677283.63264,1613677289.98503,1613677289.98609,1613677290.52001,1613677290.51856,1613677568.22279,0
5,4,1,1,19,1,1,c1_WhyFace,1,admiring?,4,F_779.jpg,1613676960.98478,1613676961.00943,326.857150068283,13.4049909114838,340.278853645325,342.379642477036,2.10078883171082,342.529699077606,0.466841459274292,342.997889986038,1,left,0.446397066116333,342.996540536881,604.478013505936,607.238013505936,1613677290.60193,1613677290.60299,1613677304.02363,1613677304.0255,1613677306.12442,1613677306.27448,1613677306.27541,1613677306.74267,1613677306.74132,1613677568.22279,1
5,4,1,1,19,2,1,c1_WhyFace,1,admiring?,1,F_593.jpg,1613676960.98478,1613676961.00943,326.857150068283,13.4049909114838,340.278853645325,342.379642477036,0.3,343.313325634003,0.416823387145996,343.731243124008,2,right,0.399342060089111,343.730149021149,604.478013505936,607.238013505936,1613677290.60193,1613677290.60299,1613677304.02363,1613677304.0255,1613677306.12442,1613677307.0581,1613677307.05957,1613677307.47602,1613677307.47493,1613677568.22279,0
5,4,1,1,19,3,1,c1_WhyFace,2,admiring?,3,F_110.jpg,1613676960.98478,1613676961.00943,326.857150068283,13.4049909114838,340.278853645325,342.379642477036,0.3,344.046934595108,0.750282287597656,344.804687013626,2,right,0.737831115722656,344.797216882706,604.478013505936,607.238013505936,1613677290.60193,1613677290.60299,1613677304.02363,1613677304.0255,1613677306.12442,1613677307.79171,1613677307.79306,1613677308.54946,1613677308.54199,1613677568.22279,1
5,4,1,1,19,4,1,c1_WhyFace,1,admiring?,8,F_590.jpg,1613676960.98478,1613676961.00943,326.857150068283,13.4049909114838,340.278853645325,342.379642477036,0.3,345.114001502991,0.450170040130615,345.565026035309,1,left,0.431779146194458,345.564171543121,604.478013505936,607.238013505936,1613677290.60193,1613677290.60299,1613677304.02363,1613677304.0255,1613677306.12442,1613677308.85878,1613677308.85971,1613677309.3098,1613677309.30895,1613677568.22279,1
5,4,1,1,19,5,1,c1_WhyFace,2,admiring?,6,F_692.jpg,1613676960.98478,1613676961.00943,326.857150068283,13.4049909114838,340.278853645325,342.379642477036,0.3,345.880956163406,0.700263261795044,346.588129987717,2,right,0.695451974868774,346.581219425201,604.478013505936,607.238013505936,1613677290.60193,1613677290.60299,1613677304.02363,1613677304.0255,1613677306.12442,1613677309.62573,1613677309.62718,1613677310.33291,1613677310.326,1613677568.22279,1
5,4,1,1,19,6,1,c1_WhyFace,1,admiring?,5,F_759.jpg,1613676960.98478,1613676961.00943,326.857150068283,13.4049909114838,340.278853645325,342.379642477036,0.3,346.898004999161,0.45016884803772,347.354767074585,1,left,0.444911956787109,347.348173847198,604.478013505936,607.238013505936,1613677290.60193,1613677290.60299,1613677304.02363,1613677304.0255,1613677306.12442,1613677310.64278,1613677310.64391,1613677311.09955,1613677311.09295,1613677568.22279,1
5,4,1,1,19,7,1,c1_WhyFace,1,admiring?,7,F_648.jpg,1613676960.98478,1613676961.00943,326.857150068283,13.4049909114838,340.278853645325,342.379642477036,0.3,347.664959421158,0.500187635421753,348.166073074341,2,right,0.480890989303589,348.16514705658,604.478013505936,607.238013505936,1613677290.60193,1613677290.60299,1613677304.02363,1613677304.0255,1613677306.12442,1613677311.40974,1613677311.41085,1613677311.91085,1613677311.90992,1613677568.22279,0
5,4,1,1,19,8,1,c1_WhyFace,2,admiring?,2,F_129.jpg,1613676960.98478,1613676961.00943,326.857150068283,13.4049909114838,340.278853645325,342.379642477036,0.3,348.481932630539,0.550206422805786,349.038046112061,1,left,0.538482904434204,349.032139053345,604.478013505936,607.238013505936,1613677290.60193,1613677290.60299,1613677304.02363,1613677304.0255,1613677306.12442,1613677312.22671,1613677312.22787,1613677312.78282,1613677312.77692,1613677568.22279,0
5,4,1,1,20,1,3,c3_HowFace,1,smiling?,119,F_139.jpg,1613676960.98478,1613676961.00943,349.115504255295,9.0216429233551,358.152229537964,360.253016700745,2.10078716278076,360.403074016571,0.41682243347168,360.821603050232,1,left,0.405797004699707,360.819896450043,604.478013505936,607.238013505936,1613677312.86028,1613677312.86596,1613677321.89701,1613677321.89946,1613677323.99779,1613677324.14785,1613677324.14987,1613677324.56638,1613677324.56467,1613677568.22279,1
5,4,1,1,20,2,3,c3_HowFace,2,smiling?,113,F_712.jpg,1613676960.98478,1613676961.00943,349.115504255295,9.0216429233551,358.152229537964,360.253016700745,0.3,361.136681785584,0.533534526824951,361.671369066238,2,right,0.520896911621094,361.670216312408,604.478013505936,607.238013505936,1613677312.86028,1613677312.86596,1613677321.89701,1613677321.89946,1613677323.99779,1613677324.88146,1613677324.88277,1613677325.41615,1613677325.41499,1613677568.22279,1
5,4,1,1,20,3,3,c3_HowFace,1,smiling?,115,F_695.jpg,1613676960.98478,1613676961.00943,349.115504255295,9.0216429233551,358.152229537964,360.253016700745,0.3,361.987001409531,0.500187635421753,362.488064994812,1,left,0.490162134170532,362.487189044952,604.478013505936,607.238013505936,1613677312.86028,1613677312.86596,1613677321.89701,1613677321.89946,1613677323.99779,1613677325.73178,1613677325.73279,1613677326.23284,1613677326.23197,1613677568.22279,1
5,4,1,1,20,4,3,c3_HowFace,2,smiling?,120,F_758.jpg,1613676960.98478,1613676961.00943,349.115504255295,9.0216429233551,358.152229537964,360.253016700745,0.3,362.803974142075,0.516860961914062,363.321982135773,2,right,0.497782945632935,363.320835103989,604.478013505936,607.238013505936,1613677312.86028,1613677312.86596,1613677321.89701,1613677321.89946,1613677323.99779,1613677326.54875,1613677326.54989,1613677327.06676,1613677327.06561,1613677568.22279,1
5,4,1,1,20,5,3,c3_HowFace,1,smiling?,116,F_083.jpg,1613676960.98478,1613676961.00943,349.115504255295,9.0216429233551,358.152229537964,360.253016700745,0.3,363.637620439529,0.450169563293457,364.088400115967,1,left,0.429014921188354,364.087790002823,604.478013505936,607.238013505936,1613677312.86028,1613677312.86596,1613677321.89701,1613677321.89946,1613677323.99779,1613677327.3824,1613677327.38364,1613677327.83318,1613677327.83257,1613677568.22279,1
5,4,1,1,20,6,3,c3_HowFace,1,smiling?,118,F_759.jpg,1613676960.98478,1613676961.00943,349.115504255295,9.0216429233551,358.152229537964,360.253016700745,0.3,364.404576053619,0.450167417526245,364.855353107452,1,left,0.444506883621216,364.854743471146,604.478013505936,607.238013505936,1613677312.86028,1613677312.86596,1613677321.89701,1613677321.89946,1613677323.99779,1613677328.14935,1613677328.15027,1613677328.60013,1613677328.59952,1613677568.22279,1
5,4,1,1,20,7,3,c3_HowFace,2,smiling?,114,F_412.jpg,1613676960.98478,1613676961.00943,349.115504255295,9.0216429233551,358.152229537964,360.253016700745,0.3,365.171529998779,0.600224733352661,365.772418966293,2,right,0.585716962814331,365.771754732132,604.478013505936,607.238013505936,1613677312.86028,1613677312.86596,1613677321.89701,1613677321.89946,1613677323.99779,1613677328.91631,1613677328.91721,1613677329.5172,1613677329.51653,1613677568.22279,1
5,4,1,1,20,8,3,c3_HowFace,1,smiling?,117,F_593.jpg,1613676960.98478,1613676961.00943,349.115504255295,9.0216429233551,358.152229537964,360.253016700745,0.3,366.088541021347,0.433495998382568,366.52317117691,1,left,0.417642831802368,366.52203701973,604.478013505936,607.238013505936,1613677312.86028,1613677312.86596,1613677321.89701,1613677321.89946,1613677323.99779,1613677329.83332,1613677329.83393,1613677330.26795,1613677330.26681,1613677568.22279,1
5,4,1,1,21,1,4,c4_HowHand,1,lifting?,56,H_136.jpg,1613676960.98478,1613676961.00943,366.605400314331,10.6397578716278,377.259399404526,379.360188713074,2.10078930854797,379.510245552063,0.700262308120728,380.211816062927,1,left,0.679719924926758,380.210507860184,604.478013505936,607.238013505936,1613677330.35018,1613677330.35126,1613677341.00418,1613677341.00506,1613677343.10497,1613677343.25502,1613677343.25619,1613677343.95659,1613677343.95529,1613677568.22279,1
5,4,1,1,21,2,4,c4_HowHand,2,lifting?,51,H_038.jpg,1613676960.98478,1613676961.00943,366.605400314331,10.6397578716278,377.259399404526,379.360188713074,0.3,380.527292480469,0.616898536682129,381.154668083191,2,right,0.606193065643311,381.144191017151,604.478013505936,607.238013505936,1613677330.35018,1613677330.35126,1613677341.00418,1613677341.00506,1613677343.10497,1613677344.27207,1613677344.27281,1613677344.89945,1613677344.88897,1613677568.22279,1
5,4,1,1,21,3,4,c4_HowHand,1,lifting?,52,H_189.jpg,1613676960.98478,1613676961.00943,366.605400314331,10.6397578716278,377.259399404526,379.360188713074,0.3,381.46097659111,0.50018835067749,381.971685161591,1,left,0.492393970489502,381.961164941788,604.478013505936,607.238013505936,1613677330.35018,1613677330.35126,1613677341.00418,1613677341.00506,1613677343.10497,1613677345.20575,1613677345.20721,1613677345.71646,1613677345.70594,1613677568.22279,1
5,4,1,1,21,4,4,c4_HowHand,2,lifting?,53,H_077.jpg,1613676960.98478,1613676961.00943,366.605400314331,10.6397578716278,377.259399404526,379.360188713074,0.3,382.277949085236,0.550207614898682,382.83818315506,2,right,0.541390895843506,382.828156700134,604.478013505936,607.238013505936,1613677330.35018,1613677330.35126,1613677341.00418,1613677341.00506,1613677343.10497,1613677346.02273,1613677346.0241,1613677346.58296,1613677346.57293,1613677568.22279,1
5,4,1,1,21,5,4,c4_HowHand,1,lifting?,50,H_443.jpg,1613676960.98478,1613676961.00943,366.605400314331,10.6397578716278,377.259399404526,379.360188713074,0.3,383.144943466187,0.483513593673706,383.62929104805,1,left,0.467039823532104,383.62845705986,604.478013505936,607.238013505936,1613677330.35018,1613677330.35126,1613677341.00418,1613677341.00506,1613677343.10497,1613677346.88972,1613677346.89068,1613677347.37407,1613677347.37323,1613677568.22279,1
5,4,1,1,21,6,4,c4_HowHand,2,lifting?,55,H_012.jpg,1613676960.98478,1613676961.00943,366.605400314331,10.6397578716278,377.259399404526,379.360188713074,0.3,383.945242872238,0.516861200332642,384.463406076431,2,right,0.503901958465576,384.462104072571,604.478013505936,607.238013505936,1613677330.35018,1613677330.35126,1613677341.00418,1613677341.00506,1613677343.10497,1613677347.69002,1613677347.69094,1613677348.20818,1613677348.20688,1613677568.22279,1
5,4,1,1,21,7,4,c4_HowHand,1,lifting?,49,H_362.jpg,1613676960.98478,1613676961.00943,366.605400314331,10.6397578716278,377.259399404526,379.360188713074,0.3,384.778888216019,0.483515501022339,385.271772136688,1,left,0.478164911270142,385.262403717041,604.478013505936,607.238013505936,1613677330.35018,1613677330.35126,1613677341.00418,1613677341.00506,1613677343.10497,1613677348.52367,1613677348.52467,1613677349.01655,1613677349.00718,1613677568.22279,1
5,4,1,1,21,8,4,c4_HowHand,1,lifting?,54,H_170.jpg,1613676960.98478,1613676961.00943,366.605400314331,10.6397578716278,377.259399404526,379.360188713074,0.3,385.579190006256,0.633570194244385,386.213946094513,1,left,0.613584995269775,386.2127602005,604.478013505936,607.238013505936,1613677330.35018,1613677330.35126,1613677341.00418,1613677341.00506,1613677343.10497,1613677349.32397,1613677349.32488,1613677349.95872,1613677349.95754,1613677568.22279,1
5,4,1,1,22,1,2,c2_WhyHand,1,helping?,38,H_077.jpg,1613676960.98478,1613676961.00943,386.296124925613,8.46601009368896,394.782643070221,396.866759290695,2.08411622047424,397.016814460754,0.766955852508545,397.787855138779,1,left,0.7515869140625,397.783770313263,604.478013505936,607.238013505936,1613677350.0409,1613677350.04937,1613677358.52742,1613677358.52856,1613677360.61154,1613677360.76159,1613677360.76636,1613677361.53263,1613677361.52855,1613677568.22279,1
5,4,1,1,22,2,2,c2_WhyHand,1,helping?,36,H_349.jpg,1613676960.98478,1613676961.00943,386.296124925613,8.46601009368896,394.782643070221,396.866759290695,0.3,398.100555410385,0.566879510879517,398.668635120392,1,left,0.543408155441284,398.667434921265,604.478013505936,607.238013505936,1613677350.0409,1613677350.04937,1613677358.52742,1613677358.52856,1613677360.61154,1613677361.84533,1613677361.84945,1613677362.41341,1613677362.41221,1613677568.22279,1
5,4,1,1,22,3,2,c2_WhyHand,1,helping?,37,H_474.jpg,1613676960.98478,1613676961.00943,386.296124925613,8.46601009368896,394.782643070221,396.866759290695,0.3,398.984220972061,0.633570432662964,399.621438016891,1,left,0.618295907974243,399.617791404724,604.478013505936,607.238013505936,1613677350.0409,1613677350.04937,1613677358.52742,1613677358.52856,1613677360.61154,1613677362.729,1613677362.73337,1613677363.36622,1613677363.36257,1613677568.22279,1
5,4,1,1,22,4,2,c2_WhyHand,1,helping?,39,H_024.jpg,1613676960.98478,1613676961.00943,386.296124925613,8.46601009368896,394.782643070221,396.866759290695,0.3,399.934576740265,0.783628225326538,400.719295969009,2,right,0.760999917984009,400.718204965591,604.478013505936,607.238013505936,1613677350.0409,1613677350.04937,1613677358.52742,1613677358.52856,1613677360.61154,1613677363.67935,1613677363.68292,1613677364.46407,1613677364.46298,1613677568.22279,0
5,4,1,1,22,5,2,c2_WhyHand,2,helping?,40,H_012.jpg,1613676960.98478,1613676961.00943,386.296124925613,8.46601009368896,394.782643070221,396.866759290695,0.3,401.034991016388,0.633569240570068,401.671715965271,1,left,0.617851972579956,401.668560256958,604.478013505936,607.238013505936,1613677350.0409,1613677350.04937,1613677358.52742,1613677358.52856,1613677360.61154,1613677364.77977,1613677364.78306,1613677365.41649,1613677365.41334,1613677568.22279,0
5,4,1,1,22,6,2,c2_WhyHand,2,helping?,35,H_159.jpg,1613676960.98478,1613676961.00943,386.296124925613,8.46601009368896,394.782643070221,396.866759290695,0.3,401.985346784592,0.883664608001709,402.871639957428,2,right,0.868992805480957,402.869011392593,604.478013505936,607.238013505936,1613677350.0409,1613677350.04937,1613677358.52742,1613677358.52856,1613677360.61154,1613677365.73012,1613677365.73341,1613677366.61642,1613677366.61379,1613677568.22279,1
5,4,1,1,22,7,2,c2_WhyHand,1,helping?,34,H_111.jpg,1613676960.98478,1613676961.00943,386.296124925613,8.46601009368896,394.782643070221,396.866759290695,0.3,403.185797204971,0.600225210189819,403.788269987106,1,left,0.588932991027832,403.786022415161,604.478013505936,607.238013505936,1613677350.0409,1613677350.04937,1613677358.52742,1613677358.52856,1613677360.61154,1613677366.93058,1613677366.933,1613677367.53305,1613677367.5308,1613677568.22279,1
5,4,1,1,22,8,2,c2_WhyHand,2,helping?,33,H_091.jpg,1613676960.98478,1613676961.00943,386.296124925613,8.46601009368896,394.782643070221,396.866759290695,0.3,404.102808942795,0.666916608810425,404.771121015549,2,right,0.658745050430298,404.769725551605,604.478013505936,607.238013505936,1613677350.0409,1613677350.04937,1613677358.52742,1613677358.52856,1613677360.61154,1613677367.84759,1613677367.84964,1613677368.5159,1613677368.5145,1613677568.22279,1
5,4,1,1,23,1,1,c1_WhyFace,1,proud?,104,F_598.jpg,1613676960.98478,1613676961.00943,404.853090515137,8.96305251121521,413.823122730255,415.923912038803,2.10078930854797,416.073967208862,0.766955852508545,416.842082014084,1,left,0.749489068984985,416.840923061371,604.478013505936,607.238013505936,1613677368.59787,1613677368.59976,1613677377.5679,1613677377.56894,1613677379.66869,1613677379.81875,1613677379.81962,1613677380.58686,1613677380.5857,1613677568.22279,1
5,4,1,1,23,2,1,c1_WhyFace,2,proud?,102,F_760.jpg,1613676960.98478,1613676961.00943,404.853090515137,8.96305251121521,413.823122730255,415.923912038803,0.3,417.157707681656,0.616897821426392,417.775835981369,2,right,0.606661081314087,417.774605503082,604.478013505936,607.238013505936,1613677368.59787,1613677368.59976,1613677377.5679,1613677377.56894,1613677379.66869,1613677380.90249,1613677380.90394,1613677381.52061,1613677381.51938,1613677568.22279,1
5,4,1,1,23,3,1,c1_WhyFace,1,proud?,97,F_582.jpg,1613676960.98478,1613676961.00943,404.853090515137,8.96305251121521,413.823122730255,415.923912038803,0.3,418.091392507553,0.716935634613037,418.821454992294,1,left,0.709482908248901,418.808328142166,604.478013505936,607.238013505936,1613677368.59787,1613677368.59976,1613677377.5679,1613677377.56894,1613677379.66869,1613677381.83617,1613677381.837,1613677382.56623,1613677382.55311,1613677568.22279,1
5,4,1,1,23,4,1,c1_WhyFace,2,proud?,98,F_412.jpg,1613676960.98478,1613676961.00943,404.853090515137,8.96305251121521,413.823122730255,415.923912038803,0.3,419.125112762451,0.583553075790405,419.721530189514,2,right,0.574193954467773,419.708665838242,604.478013505936,607.238013505936,1613677368.59787,1613677368.59976,1613677377.5679,1613677377.56894,1613677379.66869,1613677382.86989,1613677382.8715,1613677383.46631,1613677383.45344,1613677568.22279,1
5,4,1,1,23,5,1,c1_WhyFace,1,proud?,101,F_083.jpg,1613676960.98478,1613676961.00943,404.853090515137,8.96305251121521,413.823122730255,415.923912038803,0.3,420.025450935364,0.466840982437134,420.505053033829,1,left,0.462803840637207,420.492291917801,604.478013505936,607.238013505936,1613677368.59787,1613677368.59976,1613677377.5679,1613677377.56894,1613677379.66869,1613677383.77023,1613677383.77115,1613677384.24983,1613677384.23707,1613677568.22279,1
5,4,1,1,23,6,1,c1_WhyFace,2,proud?,100,F_776.jpg,1613676960.98478,1613676961.00943,404.853090515137,8.96305251121521,413.823122730255,415.923912038803,0.3,420.809078683853,0.70026159286499,421.510421028137,2,right,0.680528879165649,421.509340276718,604.478013505936,607.238013505936,1613677368.59787,1613677368.59976,1613677377.5679,1613677377.56894,1613677379.66869,1613677384.55386,1613677384.55509,1613677385.2552,1613677385.25412,1613677568.22279,1
5,4,1,1,23,7,1,c1_WhyFace,1,proud?,103,F_618.jpg,1613676960.98478,1613676961.00943,404.853090515137,8.96305251121521,413.823122730255,415.923912038803,0.3,421.826126565933,0.666917085647583,422.494147052765,1,left,0.65003514289856,422.493043651581,604.478013505936,607.238013505936,1613677368.59787,1613677368.59976,1613677377.5679,1613677377.56894,1613677379.66869,1613677385.5709,1613677385.57196,1613677386.23892,1613677386.23782,1613677568.22279,1
5,4,1,1,23,8,1,c1_WhyFace,1,proud?,99,F_695.jpg,1613676960.98478,1613676961.00943,404.853090515137,8.96305251121521,413.823122730255,415.923912038803,0.3,422.809830179214,0.650243520736694,423.460972061157,1,left,0.630979061126709,423.460073699951,604.478013505936,607.238013505936,1613677368.59787,1613677368.59976,1613677377.5679,1613677377.56894,1613677379.66869,1613677386.55461,1613677386.55568,1613677387.20575,1613677387.20485,1613677568.22279,1
5,4,1,1,24,1,3,c3_HowFace,1,looking to side?,72,F_590.jpg,1613676960.98478,1613676961.00943,423.543438901901,8.06272006034851,431.613134374619,433.713921537399,2.10078716278076,433.863978376389,0.533534049987793,434.398490180969,1,left,0.511590003967285,434.397512426376,604.478013505936,607.238013505936,1613677387.28822,1613677387.28925,1613677395.35791,1613677395.36703,1613677397.4587,1613677397.60876,1613677397.61642,1613677398.14327,1613677398.14229,1613677568.22279,1
5,4,1,1,24,2,3,c3_HowFace,1,looking to side?,71,F_433.jpg,1613676960.98478,1613676961.00943,423.543438901901,8.06272006034851,431.613134374619,433.713921537399,0.3,434.714297761917,0.566879272460938,435.282078018188,2,right,0.549202919006348,435.281177034378,604.478013505936,607.238013505936,1613677387.28822,1613677387.28925,1613677395.35791,1613677395.36703,1613677397.4587,1613677398.45908,1613677398.46042,1613677399.02686,1613677399.02595,1613677568.22279,0
5,4,1,1,24,3,3,c3_HowFace,1,looking to side?,67,F_716.jpg,1613676960.98478,1613676961.00943,423.543438901901,8.06272006034851,431.613134374619,433.713921537399,0.3,435.597961654663,0.616899013519287,436.21624707222,1,left,0.600115060806274,436.214860668182,604.478013505936,607.238013505936,1613677387.28822,1613677387.28925,1613677395.35791,1613677395.36703,1613677397.4587,1613677399.34274,1613677399.34374,1613677399.96102,1613677399.95964,1613677568.22279,1
5,4,1,1,24,4,3,c3_HowFace,2,looking to side?,70,F_779.jpg,1613676960.98478,1613676961.00943,423.543438901901,8.06272006034851,431.613134374619,433.713921537399,0.3,436.531646718979,0.700262546539307,437.233153095245,2,right,0.678992033004761,437.231909265518,604.478013505936,607.238013505936,1613677387.28822,1613677387.28925,1613677395.35791,1613677395.36703,1613677397.4587,1613677400.27642,1613677400.27766,1613677400.97793,1613677400.97669,1613677568.22279,1
5,4,1,1,24,5,3,c3_HowFace,1,looking to side?,68,F_760.jpg,1613676960.98478,1613676961.00943,423.543438901901,8.06272006034851,431.613134374619,433.713921537399,0.3,437.548694839478,0.650244474411011,438.200020065308,1,left,0.632440090179443,438.198939313889,604.478013505936,607.238013505936,1613677387.28822,1613677387.28925,1613677395.35791,1613677395.36703,1613677397.4587,1613677401.29347,1613677401.29471,1613677401.9448,1613677401.94372,1613677568.22279,1
5,4,1,1,24,6,3,c3_HowFace,2,looking to side?,66,F_111.jpg,1613676960.98478,1613676961.00943,423.543438901901,8.06272006034851,431.613134374619,433.713921537399,0.3,438.515724172592,0.500187635421753,439.02129196167,2,right,0.494176149368286,439.015911808014,604.478013505936,607.238013505936,1613677387.28822,1613677387.28925,1613677395.35791,1613677395.36703,1613677397.4587,1613677402.2605,1613677402.26155,1613677402.76607,1613677402.76069,1613677568.22279,1
5,4,1,1,24,7,3,c3_HowFace,1,looking to side?,69,F_110.jpg,1613676960.98478,1613676961.00943,423.543438901901,8.06272006034851,431.613134374619,433.713921537399,0.3,439.332697381973,0.583552837371826,439.921568145752,1,left,0.568706035614014,439.916250219345,604.478013505936,607.238013505936,1613677387.28822,1613677387.28925,1613677395.35791,1613677395.36703,1613677397.4587,1613677403.07748,1613677403.07861,1613677403.66635,1613677403.66103,1613677568.22279,1
5,4,1,1,24,8,3,c3_HowFace,2,looking to side?,65,F_798.jpg,1613676960.98478,1613676961.00943,423.543438901901,8.06272006034851,431.613134374619,433.713921537399,0.3,440.233035554886,0.883665084838867,441.121932973862,2,right,0.874602079391479,441.116700639725,604.478013505936,607.238013505936,1613677387.28822,1613677387.28925,1613677395.35791,1613677395.36703,1613677397.4587,1613677403.97781,1613677403.97922,1613677404.86671,1613677404.86148,1613677568.22279,1
5,4,1,1,25,1,1,c1_WhyFace,1,argument?,43,F_716.jpg,1613676960.98478,1613676961.00943,441.200064888,7.93607521057129,449.153049936295,451.253839006424,2.10078907012939,451.403895368576,0.666916131973267,452.071915140152,1,left,0.654432058334351,452.070811500549,604.478013505936,607.238013505936,1613677404.94484,1613677404.94947,1613677412.89783,1613677412.89986,1613677414.99862,1613677415.14867,1613677415.15053,1613677415.81669,1613677415.81559,1613677568.22279,1
5,4,1,1,25,2,1,c1_WhyFace,2,argument?,44,F_139.jpg,1613676960.98478,1613676961.00943,441.200064888,7.93607521057129,449.153049936295,451.253839006424,0.3,452.387598028183,0.616897583007812,453.0054941082,2,right,0.610909938812256,453.004495611191,604.478013505936,607.238013505936,1613677404.94484,1613677404.94947,1613677412.89783,1613677412.89986,1613677414.99862,1613677416.13238,1613677416.13328,1613677416.75027,1613677416.74927,1613677568.22279,1
5,4,1,1,25,3,1,c1_WhyFace,1,argument?,41,F_712.jpg,1613676960.98478,1613676961.00943,441.200064888,7.93607521057129,449.153049936295,451.253839006424,0.3,453.321280708313,0.500187873840332,453.822324981689,1,left,0.493199110031128,453.821468582153,604.478013505936,607.238013505936,1613677404.94484,1613677404.94947,1613677412.89783,1613677412.89986,1613677414.99862,1613677417.06606,1613677417.06691,1613677417.5671,1613677417.56625,1613677568.22279,1
5,4,1,1,25,4,1,c1_WhyFace,2,argument?,45,F_433.jpg,1613676960.98478,1613676961.00943,441.200064888,7.93607521057129,449.153049936295,451.253839006424,0.3,454.13825463295,0.600225925445557,454.739657154083,2,right,0.587219953536987,454.738480558395,604.478013505936,607.238013505936,1613677404.94484,1613677404.94947,1613677412.89783,1613677412.89986,1613677414.99862,1613677417.88303,1613677417.8838,1613677418.48444,1613677418.48326,1613677568.22279,1
5,4,1,1,25,5,1,c1_WhyFace,1,argument?,42,F_403.jpg,1613676960.98478,1613676961.00943,441.200064888,7.93607521057129,449.153049936295,451.253839006424,0.3,455.055264463425,0.683589935302734,455.754873981476,1,left,0.678359031677246,455.738854398727,604.478013505936,607.238013505936,1613677404.94484,1613677404.94947,1613677412.89783,1613677412.89986,1613677414.99862,1613677418.80004,1613677418.80081,1613677419.49965,1613677419.48363,1613677568.22279,1
5,4,1,1,25,6,1,c1_WhyFace,2,argument?,46,F_844.jpg,1613676960.98478,1613676961.00943,441.200064888,7.93607521057129,449.153049936295,451.253839006424,0.3,456.055639734268,0.583553314208984,456.655040016174,2,right,0.577522039413452,456.639193048477,604.478013505936,607.238013505936,1613677404.94484,1613677404.94947,1613677412.89783,1613677412.89986,1613677414.99862,1613677419.80042,1613677419.80136,1613677420.39982,1613677420.38397,1613677568.22279,1
5,4,1,1,25,7,1,c1_WhyFace,1,argument?,47,F_743.jpg,1613676960.98478,1613676961.00943,441.200064888,7.93607521057129,449.153049936295,451.253839006424,0.3,456.955978622437,0.500187397003174,457.457333078384,1,left,0.484205961227417,457.45616601944,604.478013505936,607.238013505936,1613677404.94484,1613677404.94947,1613677412.89783,1613677412.89986,1613677414.99862,1613677420.70076,1613677420.70167,1613677421.20211,1613677421.20094,1613677568.22279,1
5,4,1,1,25,8,1,c1_WhyFace,1,argument?,48,F_758.jpg,1613676960.98478,1613676961.00943,441.200064888,7.93607521057129,449.153049936295,451.253839006424,0.3,457.772951831818,0.700262308120728,458.474385967255,1,left,0.681903839111328,458.473214139938,604.478013505936,607.238013505936,1613677404.94484,1613677404.94947,1613677412.89783,1613677412.89986,1613677414.99862,1613677421.51773,1613677421.51868,1613677422.21916,1613677422.21799,1613677568.22279,1
5,4,1,1,26,1,3,c3_HowFace,1,open mouth?,80,F_844.jpg,1613676960.98478,1613676961.00943,458.556580057144,9.36962509155273,467.943435897827,470.044224252701,2.10078835487366,470.194280853271,0.433495044708252,470.638458003998,1,left,0.425773143768311,470.62777589798,604.478013505936,607.238013505936,1613677422.30136,1613677422.30193,1613677431.68821,1613677431.68936,1613677433.789,1613677433.93906,1613677433.94018,1613677434.38324,1613677434.37255,1613677568.22279,1
5,4,1,1,26,2,3,c3_HowFace,1,open mouth?,74,F_776.jpg,1613676960.98478,1613676961.00943,458.556580057144,9.36962509155273,467.943435897827,470.044224252701,0.3,470.944561471939,0.466842651367188,471.421885004044,1,left,0.461390018463135,471.411404123306,604.478013505936,607.238013505936,1613677422.30136,1613677422.30193,1613677431.68821,1613677431.68936,1613677433.789,1613677434.68934,1613677434.69064,1613677435.16666,1613677435.15618,1613677568.22279,1
5,4,1,1,26,3,3,c3_HowFace,2,open mouth?,76,F_544.jpg,1613676960.98478,1613676961.00943,458.556580057144,9.36962509155273,467.943435897827,470.044224252701,0.3,471.728190174103,0.533533334732056,472.262804021835,2,right,0.520509004592896,472.261723508835,604.478013505936,607.238013505936,1613677422.30136,1613677422.30193,1613677431.68821,1613677431.68936,1613677433.789,1613677435.47297,1613677435.47444,1613677436.00758,1613677436.0065,1613677568.22279,1
5,4,1,1,26,4,3,c3_HowFace,1,open mouth?,78,F_692.jpg,1613676960.98478,1613676961.00943,458.556580057144,9.36962509155273,467.943435897827,470.044224252701,0.3,472.578508605957,0.366805553436279,472.946520080566,1,left,0.352938890457153,472.945314159393,604.478013505936,607.238013505936,1613677422.30136,1613677422.30193,1613677431.68821,1613677431.68936,1613677433.789,1613677436.32329,1613677436.32426,1613677436.6913,1613677436.69009,1613677568.22279,1
5,4,1,1,26,5,3,c3_HowFace,2,open mouth?,77,F_584.jpg,1613676960.98478,1613676961.00943,458.556580057144,9.36962509155273,467.943435897827,470.044224252701,0.3,473.262099494934,0.416821956634521,473.688642015457,2,right,0.408849000930786,473.678921451569,604.478013505936,607.238013505936,1613677422.30136,1613677422.30193,1613677431.68821,1613677431.68936,1613677433.789,1613677437.00688,1613677437.00816,1613677437.43342,1613677437.4237,1613677568.22279,1
5,4,1,1,26,6,3,c3_HowFace,1,open mouth?,73,F_403.jpg,1613676960.98478,1613676961.00943,458.556580057144,9.36962509155273,467.943435897827,470.044224252701,0.3,473.995707025528,0.400149822235107,474.404641141891,1,left,0.388684034347534,474.395856847763,604.478013505936,607.238013505936,1613677422.30136,1613677422.30193,1613677431.68821,1613677431.68936,1613677433.789,1613677437.74048,1613677437.74136,1613677438.14942,1613677438.14063,1613677568.22279,1
5,4,1,1,26,7,3,c3_HowFace,1,open mouth?,75,F_086.jpg,1613676960.98478,1613676961.00943,458.556580057144,9.36962509155273,467.943435897827,470.044224252701,0.3,474.71264289856,0.500188112258911,475.213870992661,1,left,0.484452962875366,475.212831010818,604.478013505936,607.238013505936,1613677422.30136,1613677422.30193,1613677431.68821,1613677431.68936,1613677433.789,1613677438.45742,1613677438.45857,1613677438.95865,1613677438.95761,1613677568.22279,1
5,4,1,1,26,8,3,c3_HowFace,2,open mouth?,79,F_648.jpg,1613676960.98478,1613676961.00943,458.556580057144,9.36962509155273,467.943435897827,470.044224252701,0.3,475.529616584778,0.666917085647583,476.2051491642,2,right,0.657048940658569,476.196533670425,604.478013505936,607.238013505936,1613677422.30136,1613677422.30193,1613677431.68821,1613677431.68936,1613677433.789,1613677439.27439,1613677439.27562,1613677439.94993,1613677439.94131,1613677568.22279,1
5,4,1,1,27,1,4,c4_HowHand,1,pressing button?,88,H_019.jpg,1613676960.98478,1613676961.00943,476.296571006775,9.69956803321838,486.000212421417,488.101000776291,2.10078835487366,488.251057853699,0.433495759963989,488.688381185532,1,left,0.425374984741211,488.684553613663,604.478013505936,607.238013505936,1613677440.04135,1613677440.04251,1613677449.74499,1613677449.75017,1613677451.84578,1613677451.99584,1613677451.99987,1613677452.43316,1613677452.42933,1613677568.22279,1
5,4,1,1,27,2,4,c4_HowHand,2,pressing button?,87,H_024.jpg,1613676960.98478,1613676961.00943,476.296571006775,9.69956803321838,486.000212421417,488.101000776291,0.3,489.001339664459,0.500187635421753,489.505206098557,2,right,0.482349157333374,489.501527299881,604.478013505936,607.238013505936,1613677440.04135,1613677440.04251,1613677449.74499,1613677449.75017,1613677451.84578,1613677452.74612,1613677452.74977,1613677453.24998,1613677453.24631,1613677568.22279,1
5,4,1,1,27,3,4,c4_HowHand,2,pressing button?,85,H_130.jpg,1613676960.98478,1613676961.00943,476.296571006775,9.69956803321838,486.000212421417,488.101000776291,0.3,489.818312397003,0.666918039321899,490.488608112335,2,right,0.648591995239258,490.485230436325,604.478013505936,607.238013505936,1613677440.04135,1613677440.04251,1613677449.74499,1613677449.75017,1613677451.84578,1613677453.56309,1613677453.56642,1613677454.23339,1613677454.23001,1613677568.22279,1
5,4,1,1,27,4,4,c4_HowHand,1,pressing button?,83,H_502.jpg,1613676960.98478,1613676961.00943,476.296571006775,9.69956803321838,486.000212421417,488.101000776291,0.3,490.802015533447,0.516860723495483,491.321900119782,1,left,0.500813007354736,491.318876256943,604.478013505936,607.238013505936,1613677440.04135,1613677440.04251,1613677449.74499,1613677449.75017,1613677451.84578,1613677454.54679,1613677454.54988,1613677455.06668,1613677455.06365,1613677568.22279,1
5,4,1,1,27,5,4,c4_HowHand,2,pressing button?,81,H_261.jpg,1613676960.98478,1613676961.00943,476.296571006775,9.69956803321838,486.000212421417,488.101000776291,0.3,491.635660877228,0.550206899642944,492.188493003845,2,right,0.54032301902771,492.185867776871,604.478013505936,607.238013505936,1613677440.04135,1613677440.04251,1613677449.74499,1613677449.75017,1613677451.84578,1613677455.38044,1613677455.38343,1613677455.93327,1613677455.93065,1613677568.22279,1
5,4,1,1,27,6,4,c4_HowHand,1,pressing button?,86,H_332.jpg,1613676960.98478,1613676961.00943,476.296571006775,9.69956803321838,486.000212421417,488.101000776291,0.3,492.502653589249,0.416823387145996,492.921823015213,1,left,0.404383897781372,492.919476976395,604.478013505936,607.238013505936,1613677440.04135,1613677440.04251,1613677449.74499,1613677449.75017,1613677451.84578,1613677456.24743,1613677456.24967,1613677456.6666,1613677456.66425,1613677568.22279,1
5,4,1,1,27,7,4,c4_HowHand,1,pressing button?,82,H_126.jpg,1613676960.98478,1613676961.00943,476.296571006775,9.69956803321838,486.000212421417,488.101000776291,0.3,493.23626159668,0.550207376480103,493.788050165176,1,left,0.541752099990845,493.78646897316,604.478013505936,607.238013505936,1613677440.04135,1613677440.04251,1613677449.74499,1613677449.75017,1613677451.84578,1613677456.98104,1613677456.98328,1613677457.53283,1613677457.53125,1613677568.22279,1
5,4,1,1,27,8,4,c4_HowHand,1,pressing button?,84,H_483.jpg,1613676960.98478,1613676961.00943,476.296571006775,9.69956803321838,486.000212421417,488.101000776291,0.3,494.103254308701,0.733607530593872,494.838303079605,1,left,0.715837001800537,494.836861839294,604.478013505936,607.238013505936,1613677440.04135,1613677440.04251,1613677449.74499,1613677449.75017,1613677451.84578,1613677457.84803,1613677457.8497,1613677458.58308,1613677458.58164,1613677568.22279,1
