src_subject_id,session_id,run_id,param_counterbalance_ver,param_block_num,param_trial_num,param_cond_type_num,param_cond_type_string,param_normative_response,param_ques_type_string,param_image_num,param_image_filename,param_trigger_onset,param_start_biopac,event01_fixation,event01_fixation_dur,event01_blockquestion_onset,event01_block_isi_blacksreen,event01_blockquestion_dur,event02_image_onset,event02_image_dur,event03_response_onset,event03_response_key,event03_response_keyname,event03_RT,event04_shortquestion_onset,param_end_instruct_onset,param_experiment_duration,RAW_e1_fixation,RAW_e1_fixation_biopac,RAW_e1_blockquestion_onset,RAW_e1_blockquestion_onset_biopac,RAW_e1_block_isi_blacksreen,RAW_e2_image_onset,RAW_e2_image_onset_biopac,RAW_e3_response_onset,RAW_e4_shortquestion_onset,RAW_param_end_instruct_onset,accuracy
133,4,2,4,1,1,3,c3_HowFace,1,smiling?,118,F_759.jpg,1657321108.54249,1657321108.54462,0.0275406742095945,0.0306622982025146,0.0608856582641599,2.11165069580078,2.05076503753662,2.26170610427856,1.1004102230072,3.36561392784119,1,left,1.07788991928101,3.36211632728577,604.469616880417,607.229616880417,1657321111.33003,1657321111.33466,1657321111.36338,1657321111.36787,1657321113.41414,1657321113.5642,1657321113.56896,1657321114.66811,1657321114.66461,1657321715.77211,1
133,4,2,4,1,2,3,c3_HowFace,2,smiling?,114,F_412.jpg,1657321108.54249,1657321108.54462,0.0275406742095945,0.0306622982025146,0.0608856582641599,2.11165069580078,0.3,3.67890142440796,0.683585643768311,4.36637901306152,3,right,0.665164947509766,4.36248706817627,604.469616880417,607.229616880417,1657321111.33003,1657321111.33466,1657321111.36338,1657321111.36787,1657321113.41414,1657321114.98139,1657321114.98545,1657321115.66887,1657321115.66498,1657321715.77211,0
133,4,2,4,1,3,3,c3_HowFace,1,smiling?,117,F_593.jpg,1657321108.54249,1657321108.54462,0.0275406742095945,0.0306622982025146,0.0608856582641599,2.11165069580078,0.3,4.67927431106567,1.01704597473145,5.69928478240967,1,left,0.992380857467651,5.69632028579712,604.469616880417,607.229616880417,1657321111.33003,1657321111.33466,1657321111.36338,1657321111.36787,1657321113.41414,1657321115.98177,1657321115.98508,1657321117.00178,1657321116.99881,1657321715.77211,1
133,4,2,4,1,4,3,c3_HowFace,2,smiling?,113,F_712.jpg,1657321108.54249,1657321108.54462,0.0275406742095945,0.0306622982025146,0.0608856582641599,2.11165069580078,0.3,6.01310562133789,0.583550453186035,6.59886096954346,3,right,0.565202951431274,6.59665607452393,604.469616880417,607.229616880417,1657321111.33003,1657321111.33466,1657321111.36338,1657321111.36787,1657321113.41414,1657321117.3156,1657321117.31863,1657321117.90135,1657321117.89915,1657321715.77211,0
133,4,2,4,1,5,3,c3_HowFace,1,smiling?,115,F_695.jpg,1657321108.54249,1657321108.54462,0.0275406742095945,0.0306622982025146,0.0608856582641599,2.11165069580078,0.3,6.91344093322754,0.683588266372681,7.59957384109497,1,left,0.668281078338623,7.59702919960022,604.469616880417,607.229616880417,1657321111.33003,1657321111.33466,1657321111.36338,1657321111.36787,1657321113.41414,1657321118.21593,1657321118.21963,1657321118.90207,1657321118.89952,1657321715.77211,1
133,4,2,4,1,6,3,c3_HowFace,1,smiling?,119,F_139.jpg,1657321108.54249,1657321108.54462,0.0275406742095945,0.0306622982025146,0.0608856582641599,2.11165069580078,0.3,7.91381453514099,0.666914463043213,8.58206700325012,1,left,0.654486894607544,8.5807289981842,604.469616880417,607.229616880417,1657321111.33003,1657321111.33466,1657321111.36338,1657321111.36787,1657321113.41414,1657321119.21631,1657321119.21844,1657321119.88456,1657321119.88322,1657321715.77211,1
133,4,2,4,1,7,3,c3_HowFace,1,smiling?,116,F_083.jpg,1657321108.54249,1657321108.54462,0.0275406742095945,0.0306622982025146,0.0608856582641599,2.11165069580078,0.3,8.89751433372498,0.583550930023193,9.48274587631226,1,left,0.56837797164917,9.48106526374817,604.469616880417,607.229616880417,1657321111.33003,1657321111.33466,1657321111.36338,1657321111.36787,1657321113.41414,1657321120.20001,1657321120.20112,1657321120.78524,1657321120.78356,1657321715.77211,1
133,4,2,4,1,8,3,c3_HowFace,2,smiling?,120,F_758.jpg,1657321108.54249,1657321108.54462,0.0275406742095945,0.0306622982025146,0.0608856582641599,2.11165069580078,0.3,9.79784964561462,0.616896867752075,10.4162177944183,3,right,0.595625162124634,10.4147465133667,604.469616880417,607.229616880417,1657321111.33003,1657321111.33466,1657321111.36338,1657321111.36787,1657321113.41414,1657321121.10034,1657321121.10224,1657321121.71871,1657321121.71724,1657321715.77211,0
133,4,2,4,2,1,1,c1_WhyFace,1,admiring?,1,F_593.jpg,1657321108.54249,1657321108.54462,10.5147845649719,8.59433937072754,19.1179916763306,21.2187755012512,2.10078382492065,21.368830909729,0.967027425765991,22.3488078022003,1,left,0.955705881118774,22.335858335495,604.469616880417,607.229616880417,1657321121.81728,1657321121.81907,1657321130.42048,1657321130.42312,1657321132.52127,1657321132.67132,1657321132.673,1657321133.6513,1657321133.63835,1657321715.77211,1
133,4,2,4,2,2,1,c1_WhyFace,2,admiring?,2,F_129.jpg,1657321108.54249,1657321108.54462,10.5147845649719,8.59433937072754,19.1179916763306,21.2187755012512,0.3,22.6526431941986,0.800298929214478,23.4653129482269,3,right,0.792035818099976,23.4529421234131,604.469616880417,607.229616880417,1657321121.81728,1657321121.81907,1657321130.42048,1657321130.42312,1657321132.52127,1657321133.95514,1657321133.95704,1657321134.76781,1657321134.75544,1657321715.77211,0
133,4,2,4,2,3,1,c1_WhyFace,1,admiring?,5,F_759.jpg,1657321108.54249,1657321108.54462,10.5147845649719,8.59433937072754,19.1179916763306,21.2187755012512,0.3,23.7697265052795,0.716934680938721,24.4881780052185,1,left,0.693671941757202,24.4866611862183,604.469616880417,607.229616880417,1657321121.81728,1657321121.81907,1657321130.42048,1657321130.42312,1657321132.52127,1657321135.07222,1657321135.07394,1657321135.79067,1657321135.78915,1657321715.77211,1
133,4,2,4,2,4,1,c1_WhyFace,2,admiring?,6,F_692.jpg,1657321108.54249,1657321108.54462,10.5147845649719,8.59433937072754,19.1179916763306,21.2187755012512,0.3,24.8034458065033,0.583550930023193,25.3987100028992,3,right,0.575968027114868,25.3869967365265,604.469616880417,607.229616880417,1657321121.81728,1657321121.81907,1657321130.42048,1657321130.42312,1657321132.52127,1657321136.10594,1657321136.10753,1657321136.7012,1657321136.68949,1657321715.77211,0
133,4,2,4,2,5,1,c1_WhyFace,1,admiring?,4,F_779.jpg,1657321108.54249,1657321108.54462,10.5147845649719,8.59433937072754,19.1179916763306,21.2187755012512,0.3,25.7037815952301,0.666915416717529,26.3820948505402,1,left,0.657845020294189,26.3706970119476,604.469616880417,607.229616880417,1657321121.81728,1657321121.81907,1657321130.42048,1657321130.42312,1657321132.52127,1657321137.00627,1657321137.00805,1657321137.68459,1657321137.67319,1657321715.77211,1
133,4,2,4,2,6,1,c1_WhyFace,1,admiring?,8,F_590.jpg,1657321108.54249,1657321108.54462,10.5147845649719,8.59433937072754,19.1179916763306,21.2187755012512,0.3,26.6874818706512,0.833644390106201,27.5223758125305,1,left,0.810070991516113,27.5211262607574,604.469616880417,607.229616880417,1657321121.81728,1657321121.81907,1657321130.42048,1657321130.42312,1657321132.52127,1657321137.98997,1657321137.99191,1657321138.82487,1657321138.82362,1657321715.77211,1
133,4,2,4,2,7,1,c1_WhyFace,1,admiring?,7,F_648.jpg,1657321108.54249,1657321108.54462,10.5147845649719,8.59433937072754,19.1179916763306,21.2187755012512,0.3,27.8379106426239,0.633569717407227,28.4825909042358,1,left,0.619771957397461,28.4714803600311,604.469616880417,607.229616880417,1657321121.81728,1657321121.81907,1657321130.42048,1657321130.42312,1657321132.52127,1657321139.1404,1657321139.14208,1657321139.78508,1657321139.77397,1657321715.77211,1
133,4,2,4,2,8,1,c1_WhyFace,2,admiring?,3,F_110.jpg,1657321108.54249,1657321108.54462,10.5147845649719,8.59433937072754,19.1179916763306,21.2187755012512,0.3,28.7882656955719,0.583550930023193,29.3821527862549,3,right,0.573149919509888,29.3718166255951,604.469616880417,607.229616880417,1657321121.81728,1657321121.81907,1657321130.42048,1657321130.42312,1657321132.52127,1657321140.09076,1657321140.09213,1657321140.68465,1657321140.67431,1657321715.77211,0
133,4,2,4,3,1,2,c2_WhyHand,1,competing?,9,H_261.jpg,1657321108.54249,1657321108.54462,29.4551806354523,8.7082302570343,38.1750991249084,40.2758824729919,2.1007833480835,40.425938835144,0.700260400772095,41.127274980545,1,left,0.673331022262573,41.1261992359161,604.469616880417,607.229616880417,1657321140.75767,1657321140.76851,1657321149.47759,1657321149.4854,1657321151.57838,1657321151.72843,1657321151.7354,1657321152.42977,1657321152.42869,1657321715.77211,1
133,4,2,4,3,2,2,c2_WhyHand,1,competing?,15,H_170.jpg,1657321108.54249,1657321108.54462,29.4551806354523,8.7082302570343,38.1750991249084,40.2758824729919,0.3,41.4429845714569,0.516859769821167,41.9615559482574,1,left,0.494646072387695,41.9598443412781,604.469616880417,607.229616880417,1657321140.75767,1657321140.76851,1657321149.47759,1657321149.4854,1657321151.57838,1657321152.74548,1657321152.74713,1657321153.26405,1657321153.26234,1657321715.77211,1
133,4,2,4,3,3,2,c2_WhyHand,2,competing?,12,H_483.jpg,1657321108.54249,1657321108.54462,29.4551806354523,8.7082302570343,38.1750991249084,40.2758824729919,0.3,42.276628484726,0.850317716598511,43.1321549320221,3,right,0.834963083267212,43.1269462013245,604.469616880417,607.229616880417,1657321140.75767,1657321140.76851,1657321149.47759,1657321149.4854,1657321151.57838,1657321153.57912,1657321153.58078,1657321154.43465,1657321154.42944,1657321715.77211,0
133,4,2,4,3,4,2,c2_WhyHand,1,competing?,14,H_132.jpg,1657321108.54249,1657321108.54462,29.4551806354523,8.7082302570343,38.1750991249084,40.2758824729919,0.3,43.4437303447723,0.716933488845825,44.1653869056702,1,left,0.698603868484497,44.1606638336182,604.469616880417,607.229616880417,1657321140.75767,1657321140.76851,1657321149.47759,1657321149.4854,1657321151.57838,1657321154.74622,1657321154.74798,1657321155.46788,1657321155.46316,1657321715.77211,1
133,4,2,4,3,5,2,c2_WhyHand,1,competing?,16,H_136.jpg,1657321108.54249,1657321108.54462,29.4551806354523,8.7082302570343,38.1750991249084,40.2758824729919,0.3,44.4774494075775,0.917009115219116,45.3993399047852,1,left,0.896605014801025,45.3944585227966,604.469616880417,607.229616880417,1657321140.75767,1657321140.76851,1657321149.47759,1657321149.4854,1657321151.57838,1657321155.77994,1657321155.78185,1657321156.70183,1657321156.69695,1657321715.77211,1
133,4,2,4,3,6,2,c2_WhyHand,1,competing?,13,H_003.jpg,1657321108.54249,1657321108.54462,29.4551806354523,8.7082302570343,38.1750991249084,40.2758824729919,0.3,45.7112426662445,0.900335550308228,46.6154580020905,1,left,0.879976034164429,46.6115782165527,604.469616880417,607.229616880417,1657321140.75767,1657321140.76851,1657321149.47759,1657321149.4854,1657321151.57838,1657321157.01374,1657321157.01855,1657321157.91795,1657321157.91407,1657321715.77211,1
133,4,2,4,3,7,2,c2_WhyHand,2,competing?,10,H_126.jpg,1657321108.54249,1657321108.54462,29.4551806354523,8.7082302570343,38.1750991249084,40.2758824729919,0.3,46.9283625984192,0.766953468322754,47.6990358734131,3,right,0.753822803497314,47.6953160667419,604.469616880417,607.229616880417,1657321140.75767,1657321140.76851,1657321149.47759,1657321149.4854,1657321151.57838,1657321158.23086,1657321158.23533,1657321159.00153,1657321158.99781,1657321715.77211,0
133,4,2,4,3,8,2,c2_WhyHand,2,competing?,11,H_502.jpg,1657321108.54249,1657321108.54462,29.4551806354523,8.7082302570343,38.1750991249084,40.2758824729919,0.3,48.0121014022827,0.766952037811279,48.7827680015564,3,right,0.757106065750122,48.779053440094,604.469616880417,607.229616880417,1657321140.75767,1657321140.76851,1657321149.47759,1657321149.4854,1657321151.57838,1657321159.31459,1657321159.31841,1657321160.08526,1657321160.08155,1657321715.77211,0
133,4,2,4,4,1,4,c4_HowHand,1,reaching?,111,H_003.jpg,1657321108.54249,1657321108.54462,48.8624174499512,11.7827105522156,60.6501476669312,62.7509302997589,2.10078263282776,62.9009864234924,0.766953468322754,63.6690947914124,1,left,0.737201929092407,63.6679398918152,604.469616880417,607.229616880417,1657321160.16491,1657321160.16853,1657321171.95264,1657321171.96903,1657321174.05342,1657321174.20348,1657321174.21912,1657321174.97159,1657321174.97043,1657321715.77211,1
133,4,2,4,4,2,4,c4_HowHand,1,reaching?,110,H_364.jpg,1657321108.54249,1657321108.54462,48.8624174499512,11.7827105522156,60.6501476669312,62.7509302997589,0.3,63.9847249889374,0.883662700653076,64.8700518512726,1,left,0.871877908706665,64.8683876895904,604.469616880417,607.229616880417,1657321160.16491,1657321160.16853,1657321171.95264,1657321171.96903,1657321174.05342,1657321175.28722,1657321175.2888,1657321176.17254,1657321176.17088,1657321715.77211,1
133,4,2,4,4,3,4,c4_HowHand,2,reaching?,108,H_532.jpg,1657321108.54249,1657321108.54462,48.8624174499512,11.7827105522156,60.6501476669312,62.7509302997589,0.3,65.1851713562012,0.833644151687622,66.020250787735,3,right,0.817331075668335,66.0188155078888,604.469616880417,607.229616880417,1657321160.16491,1657321160.16853,1657321171.95264,1657321171.96903,1657321174.05342,1657321176.48766,1657321176.48949,1657321177.32274,1657321177.32131,1657321715.77211,0
133,4,2,4,4,4,4,c4_HowHand,1,reaching?,106,H_006.jpg,1657321108.54249,1657321108.54462,48.8624174499512,11.7827105522156,60.6501476669312,62.7509302997589,0.3,66.3356008434296,0.65024209022522,66.9987149143219,1,left,0.63803505897522,66.9858429336548,604.469616880417,607.229616880417,1657321160.16491,1657321160.16853,1657321171.95264,1657321171.96903,1657321174.05342,1657321177.63809,1657321177.63981,1657321178.30121,1657321178.28834,1657321715.77211,1
133,4,2,4,4,5,4,c4_HowHand,2,reaching?,105,H_438.jpg,1657321108.54249,1657321108.54462,48.8624174499512,11.7827105522156,60.6501476669312,62.7509302997589,0.3,67.3026282691956,0.750279664993286,68.0540528202057,3,right,0.729220151901245,68.0529079341888,604.469616880417,607.229616880417,1657321160.16491,1657321160.16853,1657321171.95264,1657321171.96903,1657321174.05342,1657321178.60512,1657321178.60664,1657321179.35655,1657321179.3554,1657321715.77211,0
133,4,2,4,4,6,4,c4_HowHand,1,reaching?,107,H_007.jpg,1657321108.54249,1657321108.54462,48.8624174499512,11.7827105522156,60.6501476669312,62.7509302997589,0.3,68.3696923160553,0.650242567062378,69.0215229892731,1,left,0.637245178222656,69.0199348831177,604.469616880417,607.229616880417,1657321160.16491,1657321160.16853,1657321171.95264,1657321171.96903,1657321174.05342,1657321179.67219,1657321179.67381,1657321180.32402,1657321180.32243,1657321715.77211,1
133,4,2,4,4,7,4,c4_HowHand,1,reaching?,109,H_474.jpg,1657321108.54249,1657321108.54462,48.8624174499512,11.7827105522156,60.6501476669312,62.7509302997589,0.3,69.3367192649841,1.08373785018921,70.4221069717407,1,left,1.06030011177063,70.4204571151733,604.469616880417,607.229616880417,1657321160.16491,1657321160.16853,1657321171.95264,1657321171.96903,1657321174.05342,1657321180.63921,1657321180.64102,1657321181.7246,1657321181.72295,1657321715.77211,1
133,4,2,4,4,8,4,c4_HowHand,2,reaching?,112,H_132.jpg,1657321108.54249,1657321108.54462,48.8624174499512,11.7827105522156,60.6501476669312,62.7509302997589,0.3,70.7372424507141,0.716933488845825,71.455717792511,3,right,0.699876070022583,71.4541759395599,604.469616880417,607.229616880417,1657321160.16491,1657321160.16853,1657321171.95264,1657321171.96903,1657321174.05342,1657321182.03974,1657321182.04125,1657321182.75821,1657321182.75667,1657321715.77211,0
133,4,2,4,5,1,3,c3_HowFace,1,open mouth?,73,F_403.jpg,1657321108.54249,1657321108.54462,71.5208663845062,8.23289656639099,79.773944606781,81.8580560588837,2.08411145210266,82.0081126594543,0.60022234916687,82.6153428459167,1,left,0.585064888000488,82.6083350086212,604.469616880417,607.229616880417,1657321182.82336,1657321182.82626,1657321191.07644,1657321191.07975,1657321193.16055,1657321193.31061,1657321193.31848,1657321193.91784,1657321193.91083,1657321715.77211,1
133,4,2,4,5,2,3,c3_HowFace,2,open mouth?,79,F_648.jpg,1657321108.54249,1657321108.54462,71.5208663845062,8.23289656639099,79.773944606781,81.8580560588837,0.3,82.9251208209991,0.583550691604614,83.5153219604492,3,right,0.568991184234619,83.5086715126038,604.469616880417,607.229616880417,1657321182.82336,1657321182.82626,1657321191.07644,1657321191.07975,1657321193.16055,1657321194.22761,1657321194.2292,1657321194.81782,1657321194.81116,1657321715.77211,0
133,4,2,4,5,3,3,c3_HowFace,1,open mouth?,74,F_776.jpg,1657321108.54249,1657321108.54462,71.5208663845062,8.23289656639099,79.773944606781,81.8580560588837,0.3,83.8254570865631,0.483511924743652,84.3153328800201,1,left,0.475327014923096,84.3089690113068,604.469616880417,607.229616880417,1657321182.82336,1657321182.82626,1657321191.07644,1657321191.07975,1657321193.16055,1657321195.12795,1657321195.12955,1657321195.61783,1657321195.61146,1657321715.77211,1
133,4,2,4,5,4,3,c3_HowFace,2,open mouth?,77,F_584.jpg,1657321108.54249,1657321108.54462,71.5208663845062,8.23289656639099,79.773944606781,81.8580560588837,0.3,84.6257555389404,0.51685905456543,85.1437368297577,3,right,0.494513034820557,85.1426145935059,604.469616880417,607.229616880417,1657321182.82336,1657321182.82626,1657321191.07644,1657321191.07975,1657321193.16055,1657321195.92825,1657321195.93033,1657321196.44623,1657321196.44511,1657321715.77211,0
133,4,2,4,5,5,3,c3_HowFace,1,open mouth?,80,F_844.jpg,1657321108.54249,1657321108.54462,71.5208663845062,8.23289656639099,79.773944606781,81.8580560588837,0.3,85.4593994522095,0.500186204910278,85.9655189418793,1,left,0.49334716796875,85.9595856571197,604.469616880417,607.229616880417,1657321182.82336,1657321182.82626,1657321191.07644,1657321191.07975,1657321193.16055,1657321196.76189,1657321196.76367,1657321197.26801,1657321197.26208,1657321715.77211,1
133,4,2,4,5,6,3,c3_HowFace,1,open mouth?,78,F_692.jpg,1657321108.54249,1657321108.54462,71.5208663845062,8.23289656639099,79.773944606781,81.8580560588837,0.3,86.2763702774048,0.533532619476318,86.8160889053345,1,left,0.519682884216309,86.8099028968811,604.469616880417,607.229616880417,1657321182.82336,1657321182.82626,1657321191.07644,1657321191.07975,1657321193.16055,1657321197.57886,1657321197.58062,1657321198.11858,1657321198.1124,1657321715.77211,1
133,4,2,4,5,7,3,c3_HowFace,1,open mouth?,75,F_086.jpg,1657321108.54249,1657321108.54462,71.5208663845062,8.23289656639099,79.773944606781,81.8580560588837,0.3,87.126687040329,0.533532619476318,87.6653959655762,1,left,0.521160840988159,87.6602196598053,604.469616880417,607.229616880417,1657321182.82336,1657321182.82626,1657321191.07644,1657321191.07975,1657321193.16055,1657321198.42918,1657321198.43091,1657321198.96789,1657321198.96271,1657321715.77211,1
133,4,2,4,5,8,3,c3_HowFace,2,open mouth?,76,F_544.jpg,1657321108.54249,1657321108.54462,71.5208663845062,8.23289656639099,79.773944606781,81.8580560588837,0.3,87.9770042800903,0.600224018096924,88.5820648574829,3,right,0.584376096725464,88.5772282981873,604.469616880417,607.229616880417,1657321182.82336,1657321182.82626,1657321191.07644,1657321191.07975,1657321193.16055,1657321199.2795,1657321199.28085,1657321199.88456,1657321199.87972,1657321715.77211,0
133,4,2,4,6,1,1,c1_WhyFace,1,argument?,42,F_403.jpg,1657321108.54249,1657321108.54462,88.6439206504822,12.5889873504639,101.248621692657,103.349404802322,2.10078310966492,103.499460687637,0.466839551925659,103.967411985397,1,left,0.455129861831665,103.966300239563,604.469616880417,607.229616880417,1657321199.94641,1657321199.95181,1657321212.55111,1657321212.55328,1657321214.6519,1657321214.80195,1657321214.8038,1657321215.26991,1657321215.26879,1657321715.77211,1
133,4,2,4,6,2,1,c1_WhyFace,2,argument?,46,F_844.jpg,1657321108.54249,1657321108.54462,88.6439206504822,12.5889873504639,101.248621692657,103.349404802322,0.3,104.283085575104,0.583550691604614,104.868223896027,3,right,0.572166919708252,104.866636266708,604.469616880417,607.229616880417,1657321199.94641,1657321199.95181,1657321212.55111,1657321212.55328,1657321214.6519,1657321215.58558,1657321215.58739,1657321216.17072,1657321216.16913,1657321715.77211,0
133,4,2,4,6,3,1,c1_WhyFace,1,argument?,41,F_712.jpg,1657321108.54249,1657321108.54462,88.6439206504822,12.5889873504639,101.248621692657,103.349404802322,0.3,105.183421125412,0.700261116027832,105.884802808762,1,left,0.681793928146362,105.88368224144,604.469616880417,607.229616880417,1657321199.94641,1657321199.95181,1657321212.55111,1657321212.55328,1657321214.6519,1657321216.48591,1657321216.48772,1657321217.1873,1657321217.18618,1657321715.77211,1
133,4,2,4,6,4,1,c1_WhyFace,1,argument?,48,F_758.jpg,1657321108.54249,1657321108.54462,88.6439206504822,12.5889873504639,101.248621692657,103.349404802322,0.3,106.200467338562,0.666914939880371,106.868475904465,1,left,0.651473045349121,106.867382278442,604.469616880417,607.229616880417,1657321199.94641,1657321199.95181,1657321212.55111,1657321212.55328,1657321214.6519,1657321217.50296,1657321217.50465,1657321218.17097,1657321218.16988,1657321715.77211,1
133,4,2,4,6,5,1,c1_WhyFace,2,argument?,45,F_433.jpg,1657321108.54249,1657321108.54462,88.6439206504822,12.5889873504639,101.248621692657,103.349404802322,0.3,107.184167137146,0.583551406860352,107.768804779053,3,right,0.568849086761475,107.767718544006,604.469616880417,607.229616880417,1657321199.94641,1657321199.95181,1657321212.55111,1657321212.55328,1657321214.6519,1657321218.48666,1657321218.48842,1657321219.0713,1657321219.07021,1657321715.77211,0
133,4,2,4,6,6,1,c1_WhyFace,1,argument?,43,F_716.jpg,1657321108.54249,1657321108.54462,88.6439206504822,12.5889873504639,101.248621692657,103.349404802322,0.3,108.084503641129,0.616896629333496,108.702808847427,1,left,0.606246948242188,108.701400270462,604.469616880417,607.229616880417,1657321199.94641,1657321199.95181,1657321212.55111,1657321212.55328,1657321214.6519,1657321219.387,1657321219.38839,1657321220.0053,1657321220.00389,1657321715.77211,1
133,4,2,4,6,7,1,c1_WhyFace,2,argument?,44,F_139.jpg,1657321108.54249,1657321108.54462,88.6439206504822,12.5889873504639,101.248621692657,103.349404802322,0.3,109.018184175491,0.683588027954102,109.702859869003,3,right,0.66318678855896,109.701772203445,604.469616880417,607.229616880417,1657321199.94641,1657321199.95181,1657321212.55111,1657321212.55328,1657321214.6519,1657321220.32068,1657321220.32249,1657321221.00535,1657321221.00427,1657321715.77211,0
133,4,2,4,6,8,1,c1_WhyFace,1,argument?,47,F_743.jpg,1657321108.54249,1657321108.54462,88.6439206504822,12.5889873504639,101.248621692657,103.349404802322,0.3,110.018558492661,0.616894960403442,110.636518945694,1,left,0.60113000869751,110.635453453064,604.469616880417,607.229616880417,1657321199.94641,1657321199.95181,1657321212.55111,1657321212.55328,1657321214.6519,1657321221.32105,1657321221.32272,1657321221.93901,1657321221.93795,1657321715.77211,1
133,4,2,4,7,1,2,c2_WhyHand,1,helping?,39,H_024.jpg,1657321108.54249,1657321108.54462,110.70214556694,13.0128302574158,123.723668088913,125.824452629089,2.10078454017639,125.974508037567,0.93368124961853,126.915924777985,3,right,0.912444114685059,126.908189287186,604.469616880417,607.229616880417,1657321222.00464,1657321222.00602,1657321235.02616,1657321235.03558,1657321237.12695,1657321237.277,1657321237.28548,1657321238.21842,1657321238.21068,1657321715.77211,0
133,4,2,4,7,2,2,c2_WhyHand,1,helping?,36,H_349.jpg,1657321108.54249,1657321108.54462,110.70214556694,13.0128302574158,123.723668088913,125.824452629089,0.3,127.224974622726,0.600223302841187,127.831969966888,1,left,0.589653015136719,127.825197925568,604.469616880417,607.229616880417,1657321222.00464,1657321222.00602,1657321235.02616,1657321235.03558,1657321237.12695,1657321238.52747,1657321238.5292,1657321239.13446,1657321239.12769,1657321715.77211,1
133,4,2,4,7,3,2,c2_WhyHand,1,helping?,38,H_077.jpg,1657321108.54249,1657321108.54462,110.70214556694,13.0128302574158,123.723668088913,125.824452629089,0.3,128.141982307434,1.05039262771606,129.193426837921,3,right,1.02984380722046,129.19237493515,604.469616880417,607.229616880417,1657321222.00464,1657321222.00602,1657321235.02616,1657321235.03558,1657321237.12695,1657321239.44448,1657321239.44615,1657321240.49592,1657321240.49487,1657321715.77211,0
133,4,2,4,7,4,2,c2_WhyHand,1,helping?,37,H_474.jpg,1657321108.54249,1657321108.54462,110.70214556694,13.0128302574158,123.723668088913,125.824452629089,0.3,129.509159555435,0.816971302032471,130.327968826294,1,left,0.794028043746948,130.326130857468,604.469616880417,607.229616880417,1657321222.00464,1657321222.00602,1657321235.02616,1657321235.03558,1657321237.12695,1657321240.81165,1657321240.81356,1657321241.63046,1657321241.62862,1657321715.77211,1
133,4,2,4,7,5,2,c2_WhyHand,2,helping?,33,H_091.jpg,1657321108.54249,1657321108.54462,110.70214556694,13.0128302574158,123.723668088913,125.824452629089,0.3,130.642916193008,0.800298452377319,131.449495782852,3,right,0.787426948547363,131.443214645386,604.469616880417,607.229616880417,1657321222.00464,1657321222.00602,1657321235.02616,1657321235.03558,1657321237.12695,1657321241.94541,1657321241.94718,1657321242.75199,1657321242.74571,1657321715.77211,0
133,4,2,4,7,6,2,c2_WhyHand,2,helping?,35,H_159.jpg,1657321108.54249,1657321108.54462,110.70214556694,13.0128302574158,123.723668088913,125.824452629089,0.3,131.759999027252,0.850317239761353,132.611825933456,3,right,0.829844951629639,132.610316267014,604.469616880417,607.229616880417,1657321222.00464,1657321222.00602,1657321235.02616,1657321235.03558,1657321237.12695,1657321243.06249,1657321243.06403,1657321243.91432,1657321243.91281,1657321715.77211,0
133,4,2,4,7,7,2,c2_WhyHand,1,helping?,34,H_111.jpg,1657321108.54249,1657321108.54462,110.70214556694,13.0128302574158,123.723668088913,125.824452629089,0.3,132.927100410461,0.716934204101562,133.645737876892,1,left,0.693500995635986,133.644034614563,604.469616880417,607.229616880417,1657321222.00464,1657321222.00602,1657321235.02616,1657321235.03558,1657321237.12695,1657321244.22959,1657321244.23149,1657321244.94823,1657321244.94653,1657321715.77211,1
133,4,2,4,7,8,2,c2_WhyHand,2,helping?,40,H_012.jpg,1657321108.54249,1657321108.54462,110.70214556694,13.0128302574158,123.723668088913,125.824452629089,0.3,133.960818996429,0.783626079559326,134.749358882904,3,right,0.77174186706543,134.744445075989,604.469616880417,607.229616880417,1657321222.00464,1657321222.00602,1657321235.02616,1657321235.03558,1657321237.12695,1657321245.26331,1657321245.26489,1657321246.05185,1657321246.04694,1657321715.77211,0
133,4,2,4,8,1,4,c4_HowHand,1,both hands?,122,H_111.jpg,1657321108.54249,1657321108.54462,134.811136236191,6.43374276161194,141.263543596268,143.347651948929,2.08410835266113,143.497709503174,0.783625602722168,144.28237985611,1,left,0.748731136322021,144.281335105896,604.469616880417,607.229616880417,1657321246.11363,1657321246.11785,1657321252.56604,1657321252.5685,1657321254.65015,1657321254.8002,1657321254.81869,1657321255.58487,1657321255.58383,1657321715.77211,1
133,4,2,4,8,2,4,c4_HowHand,1,both hands?,128,H_027.jpg,1657321108.54249,1657321108.54462,134.811136236191,6.43374276161194,141.263543596268,143.347651948929,0.3,144.598121156693,0.566877365112305,145.166036834717,1,left,0.545089960098267,145.164998521805,604.469616880417,607.229616880417,1657321246.11363,1657321246.11785,1657321252.56604,1657321252.5685,1657321254.65015,1657321255.90061,1657321255.90235,1657321256.46853,1657321256.46749,1657321715.77211,1
133,4,2,4,8,3,4,c4_HowHand,2,both hands?,121,H_091.jpg,1657321108.54249,1657321108.54462,134.811136236191,6.43374276161194,141.263543596268,143.347651948929,0.3,145.48178314209,0.600223064422607,146.083710899353,3,right,0.589497089385986,146.082006206512,604.469616880417,607.229616880417,1657321246.11363,1657321246.11785,1657321252.56604,1657321252.5685,1657321254.65015,1657321256.78428,1657321256.78589,1657321257.3862,1657321257.3845,1657321715.77211,0
133,4,2,4,8,4,4,c4_HowHand,1,both hands?,123,H_167.jpg,1657321108.54249,1657321108.54462,134.811136236191,6.43374276161194,141.263543596268,143.347651948929,0.3,146.398791065216,0.716934442520142,147.11681388855,3,right,0.705018997192383,147.115725507736,604.469616880417,607.229616880417,1657321246.11363,1657321246.11785,1657321252.56604,1657321252.5685,1657321254.65015,1657321257.70128,1657321257.70293,1657321258.41931,1657321258.41822,1657321715.77211,0
133,4,2,4,8,5,4,c4_HowHand,1,both hands?,124,H_581.jpg,1657321108.54249,1657321108.54462,134.811136236191,6.43374276161194,141.263543596268,143.347651948929,0.3,147.432510128021,0.816971302032471,148.250986804962,1,left,0.807888031005859,148.249481430054,604.469616880417,607.229616880417,1657321246.11363,1657321246.11785,1657321252.56604,1657321252.5685,1657321254.65015,1657321258.735,1657321258.7366,1657321259.55348,1657321259.55197,1657321715.77211,1
133,4,2,4,8,6,4,c4_HowHand,2,both hands?,126,H_159.jpg,1657321108.54249,1657321108.54462,134.811136236191,6.43374276161194,141.263543596268,143.347651948929,0.3,148.566265335083,0.700261831283569,149.268131008148,3,right,0.681773900985718,149.266527166367,604.469616880417,607.229616880417,1657321246.11363,1657321246.11785,1657321252.56604,1657321252.5685,1657321254.65015,1657321259.86876,1657321259.8706,1657321260.57062,1657321260.56902,1657321715.77211,0
133,4,2,4,8,7,4,c4_HowHand,1,both hands?,127,H_349.jpg,1657321108.54249,1657321108.54462,134.811136236191,6.43374276161194,141.263543596268,143.347651948929,0.3,149.583312263489,0.53353214263916,150.117905845642,1,left,0.514481067657471,150.116844406128,604.469616880417,607.229616880417,1657321246.11363,1657321246.11785,1657321252.56604,1657321252.5685,1657321254.65015,1657321260.88581,1657321260.88738,1657321261.4204,1657321261.41934,1657321715.77211,1
133,4,2,4,8,8,4,c4_HowHand,2,both hands?,125,H_627.jpg,1657321108.54249,1657321108.54462,134.811136236191,6.43374276161194,141.263543596268,143.347651948929,0.3,150.43362950325,0.683588266372681,151.119000902176,3,right,0.661306142807007,151.117217769623,604.469616880417,607.229616880417,1657321246.11363,1657321246.11785,1657321252.56604,1657321252.5685,1657321254.65015,1657321261.73612,1657321261.73788,1657321262.42149,1657321262.41971,1657321715.77211,0
133,4,2,4,9,1,2,c2_WhyHand,1,healthy?,18,H_438.jpg,1657321108.54249,1657321108.54462,151.183909168243,7.59086871147156,158.786744346619,160.887528409958,2.10078406333923,161.03758310318,0.86699104309082,161.905768861771,1,left,0.84385085105896,161.904574146271,604.469616880417,607.229616880417,1657321262.4864,1657321262.48791,1657321270.08924,1657321270.09107,1657321272.19002,1657321272.34008,1657321272.34183,1657321273.20826,1657321273.20707,1657321715.77211,1
133,4,2,4,9,2,2,c2_WhyHand,1,healthy?,23,H_364.jpg,1657321108.54249,1657321108.54462,151.183909168243,7.59086871147156,158.786744346619,160.887528409958,0.3,162.221358289719,0.683589220046997,162.906701793671,3,right,0.661246061325073,162.904947509766,604.469616880417,607.229616880417,1657321262.4864,1657321262.48791,1657321270.08924,1657321270.09107,1657321272.19002,1657321273.52385,1657321273.52555,1657321274.20919,1657321274.20744,1657321715.77211,0
133,4,2,4,9,3,2,c2_WhyHand,1,healthy?,17,H_362.jpg,1657321108.54249,1657321108.54462,151.183909168243,7.59086871147156,158.786744346619,160.887528409958,0.3,163.221731414795,0.633569717407227,163.856523981094,1,left,0.612046003341675,163.855301132202,604.469616880417,607.229616880417,1657321262.4864,1657321262.48791,1657321270.08924,1657321270.09107,1657321272.19002,1657321274.52422,1657321274.52594,1657321275.15902,1657321275.15779,1657321715.77211,1
133,4,2,4,9,4,2,c2_WhyHand,2,healthy?,24,H_019.jpg,1657321108.54249,1657321108.54462,151.183909168243,7.59086871147156,158.786744346619,160.887528409958,0.3,164.172086229324,0.783626556396484,164.965696802139,3,right,0.777004957199097,164.955712785721,604.469616880417,607.229616880417,1657321262.4864,1657321262.48791,1657321270.08924,1657321270.09107,1657321272.19002,1657321275.47458,1657321275.4764,1657321276.26819,1657321276.25821,1657321715.77211,0
133,4,2,4,9,5,2,c2_WhyHand,1,healthy?,19,H_167.jpg,1657321108.54249,1657321108.54462,151.183909168243,7.59086871147156,158.786744346619,160.887528409958,0.3,165.27249669075,0.633569955825806,165.915765991211,1,left,0.622799873352051,165.906066646576,604.469616880417,607.229616880417,1657321262.4864,1657321262.48791,1657321270.08924,1657321270.09107,1657321272.19002,1657321276.57499,1657321276.57637,1657321277.21826,1657321277.20856,1657321715.77211,1
133,4,2,4,9,6,2,c2_WhyHand,2,healthy?,20,H_007.jpg,1657321108.54249,1657321108.54462,151.183909168243,7.59086871147156,158.786744346619,160.887528409958,0.3,166.222850313187,0.716935157775879,166.940792789459,3,right,0.695970058441162,166.939785470963,604.469616880417,607.229616880417,1657321262.4864,1657321262.48791,1657321270.08924,1657321270.09107,1657321272.19002,1657321277.52534,1657321277.52697,1657321278.24329,1657321278.24228,1657321715.77211,0
133,4,2,4,9,7,2,c2_WhyHand,1,healthy?,21,H_627.jpg,1657321108.54249,1657321108.54462,151.183909168243,7.59086871147156,158.786744346619,160.887528409958,0.3,167.256568899155,0.633570432662964,167.899377813339,1,left,0.62398099899292,167.890139331818,604.469616880417,607.229616880417,1657321262.4864,1657321262.48791,1657321270.08924,1657321270.09107,1657321272.19002,1657321278.55906,1657321278.56091,1657321279.20187,1657321279.19263,1657321715.77211,1
133,4,2,4,9,8,2,c2_WhyHand,2,healthy?,22,H_130.jpg,1657321108.54249,1657321108.54462,151.183909168243,7.59086871147156,158.786744346619,160.887528409958,0.3,168.206923475266,0.683589220046997,168.89197300911,3,right,0.665134906768799,168.890512695313,604.469616880417,607.229616880417,1657321262.4864,1657321262.48791,1657321270.08924,1657321270.09107,1657321272.19002,1657321279.50942,1657321279.51105,1657321280.19447,1657321280.19301,1657321715.77211,0
133,4,2,4,10,1,4,c4_HowHand,1,pressing button?,82,H_126.jpg,1657321108.54249,1657321108.54462,168.957203378677,8.4937756061554,177.460375299454,179.561158409119,2.10078310966492,179.711214294434,0.566878080368042,180.282608976364,1,left,0.543631792068481,180.278092374802,604.469616880417,607.229616880417,1657321280.2597,1657321280.26856,1657321288.76287,1657321288.76817,1657321290.86365,1657321291.01371,1657321291.01866,1657321291.5851,1657321291.58059,1657321715.77211,1
133,4,2,4,10,2,4,c4_HowHand,2,pressing button?,85,H_130.jpg,1657321108.54249,1657321108.54462,168.957203378677,8.4937756061554,177.460375299454,179.561158409119,0.3,180.594877233505,0.583551406860352,181.182035913467,3,right,0.57203197479248,181.178428640366,604.469616880417,607.229616880417,1657321280.2597,1657321280.26856,1657321288.76287,1657321288.76817,1657321290.86365,1657321291.89737,1657321291.90163,1657321292.48453,1657321292.48092,1657321715.77211,0
133,4,2,4,10,3,4,c4_HowHand,1,pressing button?,84,H_483.jpg,1657321108.54249,1657321108.54462,168.957203378677,8.4937756061554,177.460375299454,179.561158409119,0.3,181.495213499069,0.600223064422607,182.099567880631,1,left,0.58067512512207,182.095436563492,604.469616880417,607.229616880417,1657321280.2597,1657321280.26856,1657321288.76287,1657321288.76817,1657321290.86365,1657321292.79771,1657321292.80158,1657321293.40206,1657321293.39793,1657321715.77211,1
133,4,2,4,10,4,4,c4_HowHand,2,pressing button?,87,H_024.jpg,1657321108.54249,1657321108.54462,168.957203378677,8.4937756061554,177.460375299454,179.561158409119,0.3,182.412221899033,0.600223541259766,183.015474786758,3,right,0.5777587890625,183.012445440292,604.469616880417,607.229616880417,1657321280.2597,1657321280.26856,1657321288.76287,1657321288.76817,1657321290.86365,1657321293.71472,1657321293.71885,1657321294.31797,1657321294.31494,1657321715.77211,0
133,4,2,4,10,5,4,c4_HowHand,1,pressing button?,86,H_332.jpg,1657321108.54249,1657321108.54462,168.957203378677,8.4937756061554,177.460375299454,179.561158409119,0.3,183.329229822159,0.516859531402588,183.84875082016,1,left,0.495268106460571,183.846089353561,604.469616880417,607.229616880417,1657321280.2597,1657321280.26856,1657321288.76287,1657321288.76817,1657321290.86365,1657321294.63172,1657321294.63505,1657321295.15124,1657321295.14858,1657321715.77211,1
133,4,2,4,10,6,4,c4_HowHand,1,pressing button?,88,H_019.jpg,1657321108.54249,1657321108.54462,168.957203378677,8.4937756061554,177.460375299454,179.561158409119,0.3,184.162874689102,0.516859769821167,184.681914796829,1,left,0.506929159164429,184.679734458923,604.469616880417,607.229616880417,1657321280.2597,1657321280.26856,1657321288.76287,1657321288.76817,1657321290.86365,1657321295.46537,1657321295.46821,1657321295.98441,1657321295.98223,1657321715.77211,1
133,4,2,4,10,7,4,c4_HowHand,2,pressing button?,81,H_261.jpg,1657321108.54249,1657321108.54462,168.957203378677,8.4937756061554,177.460375299454,179.561158409119,0.3,184.996518363953,0.616897106170654,185.615387907028,3,right,0.595109939575195,185.613415470123,604.469616880417,607.229616880417,1657321280.2597,1657321280.26856,1657321288.76287,1657321288.76817,1657321290.86365,1657321296.29901,1657321296.30161,1657321296.91788,1657321296.91591,1657321715.77211,0
133,4,2,4,10,8,4,c4_HowHand,1,pressing button?,83,H_502.jpg,1657321108.54249,1657321108.54462,168.957203378677,8.4937756061554,177.460375299454,179.561158409119,0.3,185.930200090408,0.55020546913147,186.481985797882,1,left,0.529850006103516,186.48040555954,604.469616880417,607.229616880417,1657321280.2597,1657321280.26856,1657321288.76287,1657321288.76817,1657321290.86365,1657321297.23269,1657321297.23508,1657321297.78448,1657321297.7829,1657321715.77211,1
133,4,2,4,11,1,3,c3_HowFace,1,looking at camera?,60,F_618.jpg,1657321108.54249,1657321108.54462,186.547097673416,12.3838043212891,198.935049762726,201.035833349228,2.10078358650208,201.185889234543,0.550204992294312,201.737811794281,1,left,0.526150941848755,201.736094226837,604.469616880417,607.229616880417,1657321297.84959,1657321297.8518,1657321310.23754,1657321310.25192,1657321312.33833,1657321312.48838,1657321312.50202,1657321313.0403,1657321313.03859,1657321715.77211,1
133,4,2,4,11,2,3,c3_HowFace,2,looking at camera?,58,F_754.jpg,1657321108.54249,1657321108.54462,186.547097673416,12.3838043212891,198.935049762726,201.035833349228,0.3,202.052879562378,0.616896629333496,202.670815935135,3,right,0.603298187255859,202.669776191711,604.469616880417,607.229616880417,1657321297.84959,1657321297.8518,1657321310.23754,1657321310.25192,1657321312.33833,1657321313.35537,1657321313.35712,1657321313.97331,1657321313.97227,1657321715.77211,0
133,4,2,4,11,3,3,c3_HowFace,1,looking at camera?,59,F_129.jpg,1657321108.54249,1657321108.54462,186.547097673416,12.3838043212891,198.935049762726,201.035833349228,0.3,202.986560335159,0.516859769821167,203.504481782913,1,left,0.497951984405518,203.50342010498,604.469616880417,607.229616880417,1657321297.84959,1657321297.8518,1657321310.23754,1657321310.25192,1657321312.33833,1657321314.28905,1657321314.29091,1657321314.80697,1657321314.80591,1657321715.77211,1
133,4,2,4,11,4,3,c3_HowFace,1,looking at camera?,62,F_598.jpg,1657321108.54249,1657321108.54462,186.547097673416,12.3838043212891,198.935049762726,201.035833349228,0.3,203.820205440521,0.917007923126221,204.738228788376,1,left,0.904062986373901,204.737213363647,604.469616880417,607.229616880417,1657321297.84959,1657321297.8518,1657321310.23754,1657321310.25192,1657321312.33833,1657321315.1227,1657321315.12431,1657321316.04072,1657321316.03971,1657321715.77211,1
133,4,2,4,11,5,3,c3_HowFace,1,looking at camera?,64,F_128.jpg,1657321108.54249,1657321108.54462,186.547097673416,12.3838043212891,198.935049762726,201.035833349228,0.3,205.053998222351,0.800298929214478,205.865416994095,1,left,0.788280963897705,205.854297151566,604.469616880417,607.229616880417,1657321297.84959,1657321297.8518,1657321310.23754,1657321310.25192,1657321312.33833,1657321316.35649,1657321316.35816,1657321317.16791,1657321317.15679,1657321715.77211,1
133,4,2,4,11,6,3,c3_HowFace,2,looking at camera?,57,F_582.jpg,1657321108.54249,1657321108.54462,186.547097673416,12.3838043212891,198.935049762726,201.035833349228,0.3,206.171081056595,0.616897344589233,206.799525966644,3,right,0.606438875198364,206.787978401184,604.469616880417,607.229616880417,1657321297.84959,1657321297.8518,1657321310.23754,1657321310.25192,1657321312.33833,1657321317.47357,1657321317.47543,1657321318.10202,1657321318.09047,1657321715.77211,0
133,4,2,4,11,7,3,c3_HowFace,1,looking at camera?,61,F_774.jpg,1657321108.54249,1657321108.54462,186.547097673416,12.3838043212891,198.935049762726,201.035833349228,0.3,207.104763498306,1.00037240982056,208.115427007675,3,right,0.989423990249634,208.105135908127,604.469616880417,607.229616880417,1657321297.84959,1657321297.8518,1657321310.23754,1657321310.25192,1657321312.33833,1657321318.40726,1657321318.40858,1657321319.41792,1657321319.40763,1657321715.77211,0
133,4,2,4,11,8,3,c3_HowFace,2,looking at camera?,63,F_743.jpg,1657321108.54249,1657321108.54462,186.547097673416,12.3838043212891,198.935049762726,201.035833349228,0.3,208.421921243668,0.700261354446411,209.123861780167,3,right,0.680701971054077,209.122182598114,604.469616880417,607.229616880417,1657321297.84959,1657321297.8518,1657321310.23754,1657321310.25192,1657321312.33833,1657321319.72441,1657321319.72601,1657321320.42635,1657321320.42468,1657321715.77211,0
133,4,2,4,12,1,1,c1_WhyFace,1,self-doubt?,25,F_798.jpg,1657321108.54249,1657321108.54462,209.205546369553,8.51538443565369,217.72539018631,219.82617401123,2.10078382492065,219.976230373383,0.850316762924194,220.827569952011,1,left,0.822613954544067,220.826547136307,604.469616880417,607.229616880417,1657321320.50804,1657321320.50968,1657321329.02788,1657321329.03558,1657321331.12867,1657321331.27872,1657321331.28532,1657321332.13006,1657321332.12904,1657321715.77211,1
133,4,2,4,12,2,1,c1_WhyFace,2,self-doubt?,27,F_086.jpg,1657321108.54249,1657321108.54462,209.205546369553,8.51538443565369,217.72539018631,219.82617401123,0.3,221.143331756592,0.616896867752075,221.761326780319,3,right,0.584989786148071,221.760228624344,604.469616880417,607.229616880417,1657321320.50804,1657321320.50968,1657321329.02788,1657321329.03558,1657321331.12867,1657321332.44582,1657321332.44786,1657321333.06382,1657321333.06272,1657321715.77211,0
133,4,2,4,12,3,1,c1_WhyFace,1,self-doubt?,29,F_544.jpg,1657321108.54249,1657321108.54462,209.205546369553,8.51538443565369,217.72539018631,219.82617401123,0.3,222.077013244629,0.633570432662964,222.716141929626,1,left,0.61829686164856,222.710583677292,604.469616880417,607.229616880417,1657321320.50804,1657321320.50968,1657321329.02788,1657321329.03558,1657321331.12867,1657321333.37951,1657321333.3815,1657321334.01864,1657321334.01308,1657321715.77211,1
133,4,2,4,12,4,1,c1_WhyFace,1,self-doubt?,28,F_754.jpg,1657321108.54249,1657321108.54462,209.205546369553,8.51538443565369,217.72539018631,219.82617401123,0.3,223.027367343903,0.600223779678345,223.632048835754,1,left,0.580631971359253,223.627591123581,604.469616880417,607.229616880417,1657321320.50804,1657321320.50968,1657321329.02788,1657321329.03558,1657321331.12867,1657321334.32986,1657321334.33147,1657321334.93454,1657321334.93008,1657321715.77211,1
133,4,2,4,12,5,1,c1_WhyFace,1,self-doubt?,26,F_111.jpg,1657321108.54249,1657321108.54462,209.205546369553,8.51538443565369,217.72539018631,219.82617401123,0.3,223.944375982285,0.800298929214478,224.748718013763,1,left,0.787451982498169,224.744674911499,604.469616880417,607.229616880417,1657321320.50804,1657321320.50968,1657321329.02788,1657321329.03558,1657321331.12867,1657321335.24687,1657321335.2519,1657321336.05121,1657321336.04717,1657321715.77211,1
133,4,2,4,12,6,1,c1_WhyFace,1,self-doubt?,30,F_584.jpg,1657321108.54249,1657321108.54462,209.205546369553,8.51538443565369,217.72539018631,219.82617401123,0.3,225.061459054947,0.850318193435669,225.915948858261,3,right,0.834389209747314,225.911777248383,604.469616880417,607.229616880417,1657321320.50804,1657321320.50968,1657321329.02788,1657321329.03558,1657321331.12867,1657321336.36395,1657321336.36818,1657321337.21844,1657321337.21427,1657321715.77211,0
133,4,2,4,12,7,1,c1_WhyFace,2,self-doubt?,32,F_128.jpg,1657321108.54249,1657321108.54462,209.205546369553,8.51538443565369,217.72539018631,219.82617401123,0.3,226.228560914993,0.800299167633057,227.032632818222,3,right,0.790689945220947,227.028860082626,604.469616880417,607.229616880417,1657321320.50804,1657321320.50968,1657321329.02788,1657321329.03558,1657321331.12867,1657321337.53105,1657321337.53519,1657321338.33513,1657321338.33135,1657321715.77211,0
133,4,2,4,12,8,1,c1_WhyFace,2,self-doubt?,31,F_774.jpg,1657321108.54249,1657321108.54462,209.205546369553,8.51538443565369,217.72539018631,219.82617401123,0.3,227.345644226074,0.700262069702148,228.048709859848,3,right,0.686779975891113,228.045906295776,604.469616880417,607.229616880417,1657321320.50804,1657321320.50968,1657321329.02788,1657321329.03558,1657321331.12867,1657321338.64814,1657321338.65182,1657321339.3512,1657321339.3484,1657321715.77211,0
133,4,2,4,13,1,2,c2_WhyHand,1,self-protection?,91,H_581.jpg,1657321108.54249,1657321108.54462,228.129270305634,7.12176561355591,235.265265932083,237.366048088074,2.1007821559906,237.516104450226,0.7669517993927,238.2848179245,1,left,0.752846002578735,238.283056249619,604.469616880417,607.229616880417,1657321339.43176,1657321339.4351,1657321346.56776,1657321346.56964,1657321348.66854,1657321348.8186,1657321348.82048,1657321349.58731,1657321349.58555,1657321715.77211,1
133,4,2,4,13,2,2,c2_WhyHand,1,self-protection?,89,H_443.jpg,1657321108.54249,1657321108.54462,228.129270305634,7.12176561355591,235.265265932083,237.366048088074,0.3,238.599841346741,0.616897106170654,239.2182807827,1,left,0.604748964309692,239.216738452911,604.469616880417,607.229616880417,1657321339.43176,1657321339.4351,1657321346.56776,1657321346.56964,1657321348.66854,1657321349.90233,1657321349.90408,1657321350.52077,1657321350.51923,1657321715.77211,1
133,4,2,4,13,3,2,c2_WhyHand,2,self-protection?,95,H_332.jpg,1657321108.54249,1657321108.54462,228.129270305634,7.12176561355591,235.265265932083,237.366048088074,0.3,239.533523550034,0.833643913269043,240.368938913345,3,right,0.811185121536255,240.367167463303,604.469616880417,607.229616880417,1657321339.43176,1657321339.4351,1657321346.56776,1657321346.56964,1657321348.66854,1657321350.83602,1657321350.83794,1657321351.67143,1657321351.66966,1657321715.77211,0
133,4,2,4,13,4,2,c2_WhyHand,1,self-protection?,96,H_027.jpg,1657321108.54249,1657321108.54462,228.129270305634,7.12176561355591,235.265265932083,237.366048088074,0.3,240.683952322006,0.833643436431885,241.519060840607,3,right,0.823330879211426,241.517595758438,604.469616880417,607.229616880417,1657321339.43176,1657321339.4351,1657321346.56776,1657321346.56964,1657321348.66854,1657321351.98645,1657321351.98812,1657321352.82155,1657321352.82009,1657321715.77211,0
133,4,2,4,13,5,2,c2_WhyHand,2,self-protection?,92,H_532.jpg,1657321108.54249,1657321108.54462,228.129270305634,7.12176561355591,235.265265932083,237.366048088074,0.3,241.834381332397,0.800297498703003,242.635739793777,3,right,0.779022932052612,242.6346788311,604.469616880417,607.229616880417,1657321339.43176,1657321339.4351,1657321346.56776,1657321346.56964,1657321348.66854,1657321353.13687,1657321353.13869,1657321353.93823,1657321353.93717,1657321715.77211,0
133,4,2,4,13,6,2,c2_WhyHand,1,self-protection?,94,H_189.jpg,1657321108.54249,1657321108.54462,228.129270305634,7.12176561355591,235.265265932083,237.366048088074,0.3,242.951464643478,0.816972017288208,243.770115842819,1,left,0.794536828994751,243.768436660767,604.469616880417,607.229616880417,1657321339.43176,1657321339.4351,1657321346.56776,1657321346.56964,1657321348.66854,1657321354.25396,1657321354.25605,1657321355.07261,1657321355.07093,1657321715.77211,1
133,4,2,4,13,7,2,c2_WhyHand,2,self-protection?,90,H_006.jpg,1657321108.54249,1657321108.54462,228.129270305634,7.12176561355591,235.265265932083,237.366048088074,0.3,244.085221757889,0.800297737121582,244.899593820572,3,right,0.786900997161865,244.88551949501,604.469616880417,607.229616880417,1657321339.43176,1657321339.4351,1657321346.56776,1657321346.56964,1657321348.66854,1657321355.38771,1657321355.39,1657321356.20209,1657321356.18801,1657321715.77211,0
133,4,2,4,13,8,2,c2_WhyHand,1,self-protection?,93,H_038.jpg,1657321108.54249,1657321108.54462,228.129270305634,7.12176561355591,235.265265932083,237.366048088074,0.3,245.202304115295,0.78362512588501,245.986975898743,1,left,0.761851072311401,245.98592924118,604.469616880417,607.229616880417,1657321339.43176,1657321339.4351,1657321346.56776,1657321346.56964,1657321348.66854,1657321356.5048,1657321356.50688,1657321357.28947,1657321357.28842,1657321715.77211,1
133,4,2,4,14,1,4,c4_HowHand,1,lifting?,50,H_443.jpg,1657321108.54249,1657321108.54462,246.052621116638,7.07334089279175,253.138596525192,255.239380588532,2.10078406333923,255.389435997009,0.783625364303589,256.182233800888,1,left,0.772696018218994,256.173061361313,604.469616880417,607.229616880417,1657321357.35511,1657321357.35684,1657321364.44109,1657321364.44299,1657321366.54187,1657321366.69193,1657321366.69373,1657321367.48473,1657321367.47555,1657321715.77211,1
133,4,2,4,14,2,4,c4_HowHand,2,lifting?,51,H_038.jpg,1657321108.54249,1657321108.54462,246.052621116638,7.07334089279175,253.138596525192,255.239380588532,0.3,256.489846696854,0.683587789535522,257.182098855972,3,right,0.672027826309204,257.173434486389,604.469616880417,607.229616880417,1657321357.35511,1657321357.35684,1657321364.44109,1657321364.44299,1657321366.54187,1657321367.79234,1657321367.79398,1657321368.48459,1657321368.47593,1657321715.77211,0
133,4,2,4,14,3,4,c4_HowHand,1,lifting?,56,H_136.jpg,1657321108.54249,1657321108.54462,246.052621116638,7.07334089279175,253.138596525192,255.239380588532,0.3,257.490220298767,0.75027871131897,258.249421825409,1,left,0.740792036056519,258.240499010086,604.469616880417,607.229616880417,1657321357.35511,1657321357.35684,1657321364.44109,1657321364.44299,1657321366.54187,1657321368.79271,1657321368.79482,1657321369.55191,1657321369.54299,1657321715.77211,1
133,4,2,4,14,4,4,c4_HowHand,2,lifting?,55,H_012.jpg,1657321108.54249,1657321108.54462,246.052621116638,7.07334089279175,253.138596525192,255.239380588532,0.3,258.557284584045,0.850317001342773,259.408740987778,3,right,0.828727006912231,259.407601585388,604.469616880417,607.229616880417,1657321357.35511,1657321357.35684,1657321364.44109,1657321364.44299,1657321366.54187,1657321369.85978,1657321369.86151,1657321370.71123,1657321370.71009,1657321715.77211,0
133,4,2,4,14,5,4,c4_HowHand,1,lifting?,49,H_362.jpg,1657321108.54249,1657321108.54462,246.052621116638,7.07334089279175,253.138596525192,255.239380588532,0.3,259.724386444092,0.583550453186035,260.309134950638,1,left,0.56450891494751,260.307936897278,604.469616880417,607.229616880417,1657321357.35511,1657321357.35684,1657321364.44109,1657321364.44299,1657321366.54187,1657321371.02688,1657321371.02862,1657321371.61163,1657321371.61043,1657321715.77211,1
133,4,2,4,14,6,4,c4_HowHand,1,lifting?,52,H_189.jpg,1657321108.54249,1657321108.54462,246.052621116638,7.07334089279175,253.138596525192,255.239380588532,0.3,260.624721279144,0.650243043899536,261.28273891449,1,left,0.635071992874146,261.274964323044,604.469616880417,607.229616880417,1657321357.35511,1657321357.35684,1657321364.44109,1657321364.44299,1657321366.54187,1657321371.92721,1657321371.9289,1657321372.58523,1657321372.57746,1657321715.77211,1
133,4,2,4,14,7,4,c4_HowHand,1,lifting?,54,H_170.jpg,1657321108.54249,1657321108.54462,246.052621116638,7.07334089279175,253.138596525192,255.239380588532,0.3,261.591749420166,0.833644390106201,262.426518907547,1,left,0.813597917556763,262.425393810272,604.469616880417,607.229616880417,1657321357.35511,1657321357.35684,1657321364.44109,1657321364.44299,1657321366.54187,1657321372.89424,1657321372.89594,1657321373.72901,1657321373.72789,1657321715.77211,1
133,4,2,4,14,8,4,c4_HowHand,2,lifting?,53,H_077.jpg,1657321108.54249,1657321108.54462,246.052621116638,7.07334089279175,253.138596525192,255.239380588532,0.3,262.742178192139,0.917009115219116,263.665352811813,3,right,0.902759790420532,263.659187307358,604.469616880417,607.229616880417,1657321357.35511,1657321357.35684,1657321364.44109,1657321364.44299,1657321366.54187,1657321374.04467,1657321374.04638,1657321374.96785,1657321374.96168,1657321715.77211,0
133,4,2,4,15,1,3,c3_HowFace,1,looking to side?,67,F_716.jpg,1657321108.54249,1657321108.54462,263.742550363541,7.25835752487183,271.011927595139,273.112711896896,2.10078430175781,273.262768735886,1.10041069984436,274.365718832016,1,left,1.07705187797546,274.36317943573,604.469616880417,607.229616880417,1657321375.04504,1657321375.04684,1657321382.31442,1657321382.3186,1657321384.41521,1657321384.56526,1657321384.56815,1657321385.66821,1657321385.66567,1657321715.77211,1
133,4,2,4,15,2,3,c3_HowFace,2,looking to side?,65,F_798.jpg,1657321108.54249,1657321108.54462,263.742550363541,7.25835752487183,271.011927595139,273.112711896896,0.3,274.679963340759,0.650243759155273,275.332477798462,3,right,0.639411926269531,275.330207099915,604.469616880417,607.229616880417,1657321375.04504,1657321375.04684,1657321382.31442,1657321382.3186,1657321384.41521,1657321385.98246,1657321385.98495,1657321386.63497,1657321386.6327,1657321715.77211,0
133,4,2,4,15,3,3,c3_HowFace,1,looking to side?,68,F_760.jpg,1657321108.54249,1657321108.54462,263.742550363541,7.25835752487183,271.011927595139,273.112711896896,0.3,275.646991004944,0.766952753067017,276.416043987274,1,left,0.747808933258057,276.413943758011,604.469616880417,607.229616880417,1657321375.04504,1657321375.04684,1657321382.31442,1657321382.3186,1657321384.41521,1657321386.94948,1657321386.95196,1657321387.71854,1657321387.71644,1657321715.77211,1
133,4,2,4,15,4,3,c3_HowFace,1,looking to side?,69,F_110.jpg,1657321108.54249,1657321108.54462,263.742550363541,7.25835752487183,271.011927595139,273.112711896896,0.3,276.730728139877,1.1337559223175,277.866113891602,3,right,1.1187310218811,277.864484062195,604.469616880417,607.229616880417,1657321375.04504,1657321375.04684,1657321382.31442,1657321382.3186,1657321384.41521,1657321388.03322,1657321388.03512,1657321389.16861,1657321389.16698,1657321715.77211,0
133,4,2,4,15,5,3,c3_HowFace,2,looking to side?,70,F_779.jpg,1657321108.54249,1657321108.54462,263.742550363541,7.25835752487183,271.011927595139,273.112711896896,0.3,278.181269397736,1.36717700958252,279.550104846954,3,right,1.3489031791687,279.548446407318,604.469616880417,607.229616880417,1657321375.04504,1657321375.04684,1657321382.31442,1657321382.3186,1657321384.41521,1657321389.48376,1657321389.48543,1657321390.8526,1657321390.85094,1657321715.77211,0
133,4,2,4,15,6,3,c3_HowFace,1,looking to side?,72,F_590.jpg,1657321108.54249,1657321108.54462,263.742550363541,7.25835752487183,271.011927595139,273.112711896896,0.3,279.865230312347,0.683588266372681,280.550590982437,1,left,0.661592960357666,280.54881857872,604.469616880417,607.229616880417,1657321375.04504,1657321375.04684,1657321382.31442,1657321382.3186,1657321384.41521,1657321391.16772,1657321391.16953,1657321391.85308,1657321391.85131,1657321715.77211,1
133,4,2,4,15,7,3,c3_HowFace,2,looking to side?,66,F_111.jpg,1657321108.54249,1657321108.54462,263.742550363541,7.25835752487183,271.011927595139,273.112711896896,0.3,280.865603437424,0.700261116027832,281.567400922775,3,right,0.681362867355347,281.565864553452,604.469616880417,607.229616880417,1657321375.04504,1657321375.04684,1657321382.31442,1657321382.3186,1657321384.41521,1657321392.1681,1657321392.16968,1657321392.86989,1657321392.86836,1657321715.77211,0
133,4,2,4,15,8,3,c3_HowFace,1,looking to side?,71,F_433.jpg,1657321108.54249,1657321108.54462,263.742550363541,7.25835752487183,271.011927595139,273.112711896896,0.3,281.882649412155,0.716934204101562,282.615813007355,1,left,0.675290107727051,282.599583616257,604.469616880417,607.229616880417,1657321375.04504,1657321375.04684,1657321382.31442,1657321382.3186,1657321384.41521,1657321393.18514,1657321393.22017,1657321393.91831,1657321393.90208,1657321715.77211,1
133,4,2,4,16,1,1,c1_WhyFace,1,proud?,101,F_083.jpg,1657321108.54249,1657321108.54462,282.699621906281,5.83130788803101,288.53513001442,290.635914316177,2.10078430175781,290.785969486237,1.03371858596802,291.82074092865,1,left,0.999618053436279,291.819688072205,604.469616880417,607.229616880417,1657321394.00212,1657321394.00383,1657321399.83762,1657321399.85234,1657321401.93841,1657321402.08846,1657321402.10207,1657321403.12323,1657321403.12218,1657321715.77211,1
133,4,2,4,16,2,1,c1_WhyFace,1,proud?,97,F_582.jpg,1657321108.54249,1657321108.54462,282.699621906281,5.83130788803101,288.53513001442,290.635914316177,0.3,292.136473884583,0.666915893554688,292.804559936523,1,left,0.649239063262939,292.803389778137,604.469616880417,607.229616880417,1657321394.00212,1657321394.00383,1657321399.83762,1657321399.85234,1657321401.93841,1657321403.43897,1657321403.44,1657321404.10705,1657321404.10588,1657321715.77211,1
133,4,2,4,16,3,1,c1_WhyFace,1,proud?,103,F_618.jpg,1657321108.54249,1657321108.54462,282.699621906281,5.83130788803101,288.53513001442,290.635914316177,0.3,293.120173206329,0.700262308120728,293.821861972809,1,left,0.686194896697998,293.82043551445,604.469616880417,607.229616880417,1657321394.00212,1657321394.00383,1657321399.83762,1657321399.85234,1657321401.93841,1657321404.42267,1657321404.42447,1657321405.12436,1657321405.12293,1657321715.77211,1
133,4,2,4,16,4,1,c1_WhyFace,2,proud?,100,F_776.jpg,1657321108.54249,1657321108.54462,282.699621906281,5.83130788803101,288.53513001442,290.635914316177,0.3,294.137219896317,0.600223302841187,294.748836984634,3,right,0.591084957122803,294.737443199158,604.469616880417,607.229616880417,1657321394.00212,1657321394.00383,1657321399.83762,1657321399.85234,1657321401.93841,1657321405.43971,1657321405.44139,1657321406.05133,1657321406.03994,1657321715.77211,0
133,4,2,4,16,5,1,c1_WhyFace,1,proud?,104,F_598.jpg,1657321108.54249,1657321108.54462,282.699621906281,5.83130788803101,288.53513001442,290.635914316177,0.3,295.054228534698,0.933681488037109,295.989633789063,3,right,0.910536050796509,295.987910022736,604.469616880417,607.229616880417,1657321394.00212,1657321394.00383,1657321399.83762,1657321399.85234,1657321401.93841,1657321406.35672,1657321406.35894,1657321407.29213,1657321407.2904,1657321715.77211,0
133,4,2,4,16,6,1,c1_WhyFace,2,proud?,102,F_760.jpg,1657321108.54249,1657321108.54462,282.699621906281,5.83130788803101,288.53513001442,290.635914316177,0.3,296.304694881439,0.850316762924194,297.156817903519,3,right,0.828000783920288,297.155011644363,604.469616880417,607.229616880417,1657321394.00212,1657321394.00383,1657321399.83762,1657321399.85234,1657321401.93841,1657321407.60719,1657321407.60884,1657321408.45931,1657321408.4575,1657321715.77211,0
133,4,2,4,16,7,1,c1_WhyFace,2,proud?,98,F_412.jpg,1657321108.54249,1657321108.54462,282.699621906281,5.83130788803101,288.53513001442,290.635914316177,0.3,297.47179602623,0.800299167633057,298.282075872421,3,right,0.790623903274536,298.272095193863,604.469616880417,607.229616880417,1657321394.00212,1657321394.00383,1657321399.83762,1657321399.85234,1657321401.93841,1657321408.77429,1657321408.77607,1657321409.58457,1657321409.57459,1657321715.77211,0
133,4,2,4,16,8,1,c1_WhyFace,1,proud?,99,F_695.jpg,1657321108.54249,1657321108.54462,282.699621906281,5.83130788803101,288.53513001442,290.635914316177,0.3,298.588878860474,0.783626556396484,299.37408780098,1,left,0.76301097869873,299.37250541687,604.469616880417,607.229616880417,1657321394.00212,1657321394.00383,1657321399.83762,1657321399.85234,1657321401.93841,1657321409.89137,1657321409.89296,1657321410.67658,1657321410.675,1657321715.77211,1
133,4,2,4,17,1,3,c3_HowFace,1,smiling?,115,F_695.jpg,1657321108.54249,1657321108.54462,299.439197053909,6.88179492950439,306.325097789764,308.425881614685,2.10078382492065,308.575937023163,0.7169349193573,309.299391975403,1,left,0.693991184234619,309.29287194252,604.469616880417,607.229616880417,1657321410.74169,1657321410.75197,1657321417.62759,1657321417.63595,1657321419.72837,1657321419.87843,1657321419.88481,1657321420.60189,1657321420.59537,1657321715.77211,1
133,4,2,4,17,2,3,c3_HowFace,2,smiling?,114,F_412.jpg,1657321108.54249,1657321108.54462,299.439197053909,6.88179492950439,306.325097789764,308.425881614685,0.3,309.609655847549,0.58355188369751,310.198969831467,3,right,0.568742036819458,310.193207731247,604.469616880417,607.229616880417,1657321410.74169,1657321410.75197,1657321417.62759,1657321417.63595,1657321419.72837,1657321420.91215,1657321420.91364,1657321421.50146,1657321421.4957,1657321715.77211,0
133,4,2,4,17,3,3,c3_HowFace,1,smiling?,117,F_593.jpg,1657321108.54249,1657321108.54462,299.439197053909,6.88179492950439,306.325097789764,308.425881614685,0.3,310.509992828369,0.583550930023193,311.098726978302,1,left,0.574580192565918,311.093543758392,604.469616880417,607.229616880417,1657321410.74169,1657321410.75197,1657321417.62759,1657321417.63595,1657321419.72837,1657321421.81249,1657321421.81455,1657321422.40122,1657321422.39604,1657321715.77211,1
133,4,2,4,17,4,3,c3_HowFace,1,smiling?,119,F_139.jpg,1657321108.54249,1657321108.54462,299.439197053909,6.88179492950439,306.325097789764,308.425881614685,0.3,311.410328617096,0.566876649856567,311.979000797272,1,left,0.546181917190552,311.977205266953,604.469616880417,607.229616880417,1657321410.74169,1657321410.75197,1657321417.62759,1657321417.63595,1657321419.72837,1657321422.71282,1657321422.71469,1657321423.28149,1657321423.2797,1657321715.77211,1
133,4,2,4,17,5,3,c3_HowFace,2,smiling?,113,F_712.jpg,1657321108.54249,1657321108.54462,299.439197053909,6.88179492950439,306.325097789764,308.425881614685,0.3,312.293990364075,0.566877841949463,312.865248908997,3,right,0.559580087661743,312.860868206024,604.469616880417,607.229616880417,1657321410.74169,1657321410.75197,1657321417.62759,1657321417.63595,1657321419.72837,1657321423.59648,1657321423.59828,1657321424.16774,1657321424.16336,1657321715.77211,0
133,4,2,4,17,6,3,c3_HowFace,1,smiling?,118,F_759.jpg,1657321108.54249,1657321108.54462,299.439197053909,6.88179492950439,306.325097789764,308.425881614685,0.3,313.177652826309,0.533533334732056,313.716228952408,1,left,0.518069982528687,313.711186161041,604.469616880417,607.229616880417,1657321410.74169,1657321410.75197,1657321417.62759,1657321417.63595,1657321419.72837,1657321424.48015,1657321424.48166,1657321425.01872,1657321425.01368,1657321715.77211,1
133,4,2,4,17,7,3,c3_HowFace,2,smiling?,120,F_758.jpg,1657321108.54249,1657321108.54462,299.439197053909,6.88179492950439,306.325097789764,308.425881614685,0.3,314.027970542908,0.616897106170654,314.646156778336,3,right,0.591847896575928,314.644867649078,604.469616880417,607.229616880417,1657321410.74169,1657321410.75197,1657321417.62759,1657321417.63595,1657321419.72837,1657321425.33046,1657321425.3351,1657321425.94865,1657321425.94736,1657321715.77211,0
133,4,2,4,17,8,3,c3_HowFace,1,smiling?,116,F_083.jpg,1657321108.54249,1657321108.54462,299.439197053909,6.88179492950439,306.325097789764,308.425881614685,0.3,314.961652269363,0.600224256515503,315.566202869415,1,left,0.578751087188721,315.561876525879,604.469616880417,607.229616880417,1657321410.74169,1657321410.75197,1657321417.62759,1657321417.63595,1657321419.72837,1657321426.26415,1657321426.26846,1657321426.8687,1657321426.86437,1657321715.77211,1
133,4,2,4,18,1,1,c1_WhyFace,1,admiring?,4,F_779.jpg,1657321108.54249,1657321108.54462,315.645239582062,9.72970628738403,325.382205238342,327.482988109589,2.10078287124634,327.633044948578,0.533531904220581,328.168308010101,1,left,0.510157823562622,328.166576852798,604.469616880417,607.229616880417,1657321426.94773,1657321426.95153,1657321436.6847,1657321436.68652,1657321438.78548,1657321438.93554,1657321438.93732,1657321439.4708,1657321439.46907,1657321715.77211,1
133,4,2,4,18,2,1,c1_WhyFace,2,admiring?,3,F_110.jpg,1657321108.54249,1657321108.54462,315.645239582062,9.72970628738403,325.382205238342,327.482988109589,0.3,328.483361711502,0.566877603530884,329.051816930771,3,right,0.551098108291626,329.050239315033,604.469616880417,607.229616880417,1657321426.94773,1657321426.95153,1657321436.6847,1657321436.68652,1657321438.78548,1657321439.78585,1657321439.78748,1657321440.35431,1657321440.35273,1657321715.77211,0
133,4,2,4,18,3,1,c1_WhyFace,1,admiring?,8,F_590.jpg,1657321108.54249,1657321108.54462,315.645239582062,9.72970628738403,325.382205238342,327.482988109589,0.3,329.367024650574,0.466841220855713,329.835592975616,1,left,0.453413963317871,329.833865871429,604.469616880417,607.229616880417,1657321426.94773,1657321426.95153,1657321436.6847,1657321436.68652,1657321438.78548,1657321440.66952,1657321440.67107,1657321441.13809,1657321441.13636,1657321715.77211,1
133,4,2,4,18,4,1,c1_WhyFace,1,admiring?,7,F_648.jpg,1657321108.54249,1657321108.54462,315.645239582062,9.72970628738403,325.382205238342,327.482988109589,0.3,330.150650253296,0.600222826004028,330.752758970261,1,left,0.577517032623291,330.7508730793,604.469616880417,607.229616880417,1657321426.94773,1657321426.95153,1657321436.6847,1657321436.68652,1657321438.78548,1657321441.45314,1657321441.45534,1657321442.05525,1657321442.05337,1657321715.77211,1
133,4,2,4,18,5,1,c1_WhyFace,1,admiring?,5,F_759.jpg,1657321108.54249,1657321108.54462,315.645239582062,9.72970628738403,325.382205238342,327.482988109589,0.3,331.067658891678,0.550204515457153,331.618796815872,1,left,0.539904117584229,331.617863407135,604.469616880417,607.229616880417,1657321426.94773,1657321426.95153,1657321436.6847,1657321436.68652,1657321438.78548,1657321442.37015,1657321442.37181,1657321442.92129,1657321442.92036,1657321715.77211,1
133,4,2,4,18,6,1,c1_WhyFace,2,admiring?,2,F_129.jpg,1657321108.54249,1657321108.54462,315.645239582062,9.72970628738403,325.382205238342,327.482988109589,0.3,331.934648504257,0.533532381057739,332.482514848709,3,right,0.525963068008423,332.468180885315,604.469616880417,607.229616880417,1657321426.94773,1657321426.95153,1657321436.6847,1657321436.68652,1657321438.78548,1657321443.23714,1657321443.23923,1657321443.78501,1657321443.77067,1657321715.77211,0
133,4,2,4,18,7,1,c1_WhyFace,1,admiring?,1,F_593.jpg,1657321108.54249,1657321108.54462,315.645239582062,9.72970628738403,325.382205238342,327.482988109589,0.3,332.784965267181,0.716933727264404,333.503964891434,1,left,0.694830179214478,333.501898994446,604.469616880417,607.229616880417,1657321426.94773,1657321426.95153,1657321436.6847,1657321436.68652,1657321438.78548,1657321444.08746,1657321444.08904,1657321444.80646,1657321444.80439,1657321715.77211,1
133,4,2,4,18,8,1,c1_WhyFace,2,admiring?,6,F_692.jpg,1657321108.54249,1657321108.54462,315.645239582062,9.72970628738403,325.382205238342,327.482988109589,0.3,333.818683614731,0.766954183578491,334.586754789352,3,right,0.746145009994507,334.585637798309,604.469616880417,607.229616880417,1657321426.94773,1657321426.95153,1657321436.6847,1657321436.68652,1657321438.78548,1657321445.12118,1657321445.123,1657321445.88925,1657321445.88813,1657321715.77211,0
133,4,2,4,19,1,2,c2_WhyHand,1,healthy?,23,H_364.jpg,1657321108.54249,1657321108.54462,334.652328720093,8.79263520240784,343.455611219406,345.556394805908,2.10078358650208,345.706451644897,0.60022234916687,346.308547010422,1,left,0.583491086959839,346.306673994064,604.469616880417,607.229616880417,1657321445.95482,1657321445.96847,1657321454.7581,1657321454.76873,1657321456.85889,1657321457.00894,1657321457.01097,1657321457.61104,1657321457.60917,1657321715.77211,1
133,4,2,4,19,2,2,c2_WhyHand,2,healthy?,20,H_007.jpg,1657321108.54249,1657321108.54462,334.652328720093,8.79263520240784,343.455611219406,345.556394805908,0.3,346.623459091187,0.800299167633057,347.432108869553,3,right,0.792320966720581,347.42375825882,604.469616880417,607.229616880417,1657321445.95482,1657321445.96847,1657321454.7581,1657321454.76873,1657321456.85889,1657321457.92595,1657321457.92759,1657321458.7346,1657321458.72625,1657321715.77211,0
133,4,2,4,19,3,2,c2_WhyHand,1,healthy?,19,H_167.jpg,1657321108.54249,1657321108.54462,334.652328720093,8.79263520240784,343.455611219406,345.556394805908,0.3,347.740542879105,0.666915416717529,348.40855597496,1,left,0.645239114761353,348.407458295822,604.469616880417,607.229616880417,1657321445.95482,1657321445.96847,1657321454.7581,1657321454.76873,1657321456.85889,1657321459.04304,1657321459.04491,1657321459.71105,1657321459.70995,1657321715.77211,1
133,4,2,4,19,4,2,c2_WhyHand,2,healthy?,22,H_130.jpg,1657321108.54249,1657321108.54462,334.652328720093,8.79263520240784,343.455611219406,345.556394805908,0.3,348.724243392944,0.600223302841187,349.33245800972,3,right,0.590677976608276,349.324466695786,604.469616880417,607.229616880417,1657321445.95482,1657321445.96847,1657321454.7581,1657321454.76873,1657321456.85889,1657321460.02674,1657321460.02865,1657321460.63495,1657321460.62696,1657321715.77211,0
133,4,2,4,19,5,2,c2_WhyHand,1,healthy?,18,H_438.jpg,1657321108.54249,1657321108.54462,334.652328720093,8.79263520240784,343.455611219406,345.556394805908,0.3,349.641251316071,0.633569955825806,350.282362928391,1,left,0.622560024261475,350.274821271896,604.469616880417,607.229616880417,1657321445.95482,1657321445.96847,1657321454.7581,1657321454.76873,1657321456.85889,1657321460.94374,1657321460.94567,1657321461.58486,1657321461.57731,1657321715.77211,1
133,4,2,4,19,6,2,c2_WhyHand,2,healthy?,24,H_019.jpg,1657321108.54249,1657321108.54462,334.652328720093,8.79263520240784,343.455611219406,345.556394805908,0.3,350.591606607437,0.716933965682983,351.315387954712,3,right,0.705362796783447,351.30854057312,604.469616880417,607.229616880417,1657321445.95482,1657321445.96847,1657321454.7581,1657321454.76873,1657321456.85889,1657321461.8941,1657321461.8956,1657321462.61788,1657321462.61103,1657321715.77211,0
133,4,2,4,19,7,2,c2_WhyHand,1,healthy?,17,H_362.jpg,1657321108.54249,1657321108.54462,334.652328720093,8.79263520240784,343.455611219406,345.556394805908,0.3,351.625325431824,0.583551168441772,352.215411891937,1,left,0.567431926727295,352.208876600266,604.469616880417,607.229616880417,1657321445.95482,1657321445.96847,1657321454.7581,1657321454.76873,1657321456.85889,1657321462.92782,1657321462.92962,1657321463.5179,1657321463.51137,1657321715.77211,1
133,4,2,4,19,8,2,c2_WhyHand,1,healthy?,21,H_627.jpg,1657321108.54249,1657321108.54462,334.652328720093,8.79263520240784,343.455611219406,345.556394805908,0.3,352.525661935806,0.71693229675293,353.244279851913,1,left,0.693918943405151,353.242594232559,604.469616880417,607.229616880417,1657321445.95482,1657321445.96847,1657321454.7581,1657321454.76873,1657321456.85889,1657321463.82816,1657321463.83012,1657321464.54677,1657321464.54509,1657321715.77211,1
133,4,2,4,20,1,4,c4_HowHand,1,pressing button?,82,H_126.jpg,1657321108.54249,1657321108.54462,353.325959196091,7.63593363761902,360.978813400269,363.079596748352,2.1007833480835,363.229652395248,0.566877603530884,363.799361934662,1,left,0.550848960876465,363.796529998779,604.469616880417,607.229616880417,1657321464.62845,1657321464.6351,1657321472.28131,1657321472.28496,1657321474.38209,1657321474.53215,1657321474.53519,1657321475.10186,1657321475.09902,1657321715.77211,1
133,4,2,4,20,2,4,c4_HowHand,1,pressing button?,86,H_332.jpg,1657321108.54249,1657321108.54462,353.325959196091,7.63593363761902,360.978813400269,363.079596748352,0.3,364.113315095901,0.0166733264923096,364.132416954041,1,left,0.000334024429321289,364.129988422394,604.469616880417,607.229616880417,1657321464.62845,1657321464.6351,1657321472.28131,1657321472.28496,1657321474.38209,1657321475.41581,1657321475.41835,1657321475.43491,1657321475.43248,1657321715.77211,1
133,4,2,4,20,3,4,c4_HowHand,2,pressing button?,81,H_261.jpg,1657321108.54249,1657321108.54462,353.325959196091,7.63593363761902,360.978813400269,363.079596748352,0.3,364.446773281097,0.0166716575622559,364.466091861725,1,left,0.000284910202026367,364.46344493866,604.469616880417,607.229616880417,1657321464.62845,1657321464.6351,1657321472.28131,1657321472.28496,1657321474.38209,1657321475.74927,1657321475.75196,1657321475.76858,1657321475.76594,1657321715.77211,0
133,4,2,4,20,4,4,c4_HowHand,2,pressing button?,87,H_024.jpg,1657321108.54249,1657321108.54462,353.325959196091,7.63593363761902,360.978813400269,363.079596748352,0.3,364.780231466293,0.016671895980835,364.799436798096,1,left,0.00049901008605957,364.796903362274,604.469616880417,607.229616880417,1657321464.62845,1657321464.6351,1657321472.28131,1657321472.28496,1657321474.38209,1657321476.08272,1657321476.08533,1657321476.10193,1657321476.0994,1657321715.77211,0
133,4,2,4,20,5,4,c4_HowHand,1,pressing button?,83,H_502.jpg,1657321108.54249,1657321108.54462,353.325959196091,7.63593363761902,360.978813400269,363.079596748352,0.3,365.113688220978,0.733609199523926,365.848724832535,1,left,0.721647024154663,365.847297420502,604.469616880417,607.229616880417,1657321464.62845,1657321464.6351,1657321472.28131,1657321472.28496,1657321474.38209,1657321476.41618,1657321476.4186,1657321477.15122,1657321477.14979,1657321715.77211,1
133,4,2,4,20,6,4,c4_HowHand,2,pressing button?,85,H_130.jpg,1657321108.54249,1657321108.54462,353.325959196091,7.63593363761902,360.978813400269,363.079596748352,0.3,366.164080848694,0.65024209022522,366.815449943542,3,right,0.632091045379639,366.814322938919,604.469616880417,607.229616880417,1657321464.62845,1657321464.6351,1657321472.28131,1657321472.28496,1657321474.38209,1657321477.46657,1657321477.46855,1657321478.11794,1657321478.11682,1657321715.77211,0
133,4,2,4,20,7,4,c4_HowHand,1,pressing button?,88,H_019.jpg,1657321108.54249,1657321108.54462,353.325959196091,7.63593363761902,360.978813400269,363.079596748352,0.3,367.131107320786,0.616897583007812,367.749693861008,1,left,0.608902931213379,367.748004903793,604.469616880417,607.229616880417,1657321464.62845,1657321464.6351,1657321472.28131,1657321472.28496,1657321474.38209,1657321478.4336,1657321478.43464,1657321479.05219,1657321479.0505,1657321715.77211,1
133,4,2,4,20,8,4,c4_HowHand,1,pressing button?,84,H_483.jpg,1657321108.54249,1657321108.54462,353.325959196091,7.63593363761902,360.978813400269,363.079596748352,0.3,368.06478928566,0.80029821395874,368.866777887344,1,left,0.78225302696228,368.865087499619,604.469616880417,607.229616880417,1657321464.62845,1657321464.6351,1657321472.28131,1657321472.28496,1657321474.38209,1657321479.36728,1657321479.36883,1657321480.16927,1657321480.16758,1657321715.77211,1
133,4,2,4,21,1,3,c3_HowFace,1,looking to side?,72,F_590.jpg,1657321108.54249,1657321108.54462,368.948452224731,9.90367865562439,378.868818511963,380.969601144791,2.10078263282776,381.119657030106,0.650242328643799,381.770956983566,1,left,0.626833915710449,381.769899358749,604.469616880417,607.229616880417,1657321480.25095,1657321480.2526,1657321490.17131,1657321490.17313,1657321492.27209,1657321492.42215,1657321492.424,1657321493.07345,1657321493.07239,1657321715.77211,1
133,4,2,4,21,2,3,c3_HowFace,1,looking to side?,69,F_110.jpg,1657321108.54249,1657321108.54462,368.948452224731,9.90367865562439,378.868818511963,380.969601144791,0.3,382.086684217453,0.633569955825806,382.73209690094,3,right,0.62543797492981,382.720254173279,604.469616880417,607.229616880417,1657321480.25095,1657321480.2526,1657321490.17131,1657321490.17313,1657321492.27209,1657321493.38918,1657321493.39096,1657321494.03459,1657321494.02275,1657321715.77211,0
133,4,2,4,21,3,3,c3_HowFace,1,looking to side?,68,F_760.jpg,1657321108.54249,1657321108.54462,368.948452224731,9.90367865562439,378.868818511963,380.969601144791,0.3,383.037039747238,0.816970348358154,383.855868806839,1,left,0.803047895431519,383.854010095596,604.469616880417,607.229616880417,1657321480.25095,1657321480.2526,1657321490.17131,1657321490.17313,1657321492.27209,1657321494.33953,1657321494.34124,1657321495.15836,1657321495.1565,1657321715.77211,1
133,4,2,4,21,4,3,c3_HowFace,2,looking to side?,70,F_779.jpg,1657321108.54249,1657321108.54462,368.948452224731,9.90367865562439,378.868818511963,380.969601144791,0.3,384.170795192719,1.48388671875,385.655787935257,3,right,1.46961307525635,385.654681911469,604.469616880417,607.229616880417,1657321480.25095,1657321480.2526,1657321490.17131,1657321490.17313,1657321492.27209,1657321495.47329,1657321495.47512,1657321496.95828,1657321496.95718,1657321715.77211,0
133,4,2,4,21,5,3,c3_HowFace,1,looking to side?,71,F_433.jpg,1657321108.54249,1657321108.54462,368.948452224731,9.90367865562439,378.868818511963,380.969601144791,0.3,385.971466770172,0.783625602722168,386.765355815887,1,left,0.775851964950562,386.755092372894,604.469616880417,607.229616880417,1657321480.25095,1657321480.2526,1657321490.17131,1657321490.17313,1657321492.27209,1657321497.27396,1657321497.27568,1657321498.06785,1657321498.05759,1657321715.77211,1
133,4,2,4,21,6,3,c3_HowFace,2,looking to side?,65,F_798.jpg,1657321108.54249,1657321108.54462,368.948452224731,9.90367865562439,378.868818511963,380.969601144791,0.3,387.071877231598,0.933681488037109,388.006768932343,3,right,0.915266990661621,388.005558719635,604.469616880417,607.229616880417,1657321480.25095,1657321480.2526,1657321490.17131,1657321490.17313,1657321492.27209,1657321498.37437,1657321498.37608,1657321499.30926,1657321499.30805,1657321715.77211,0
133,4,2,4,21,7,3,c3_HowFace,1,looking to side?,67,F_716.jpg,1657321108.54249,1657321108.54462,368.948452224731,9.90367865562439,378.868818511963,380.969601144791,0.3,388.322342863083,0.650243282318115,388.97402094841,1,left,0.628817081451416,388.972586145401,604.469616880417,607.229616880417,1657321480.25095,1657321480.2526,1657321490.17131,1657321490.17313,1657321492.27209,1657321499.62484,1657321499.62654,1657321500.27651,1657321500.27508,1657321715.77211,1
133,4,2,4,21,8,3,c3_HowFace,2,looking to side?,66,F_111.jpg,1657321108.54249,1657321108.54462,368.948452224731,9.90367865562439,378.868818511963,380.969601144791,0.3,389.28937005043,0.633570194244385,389.932158937454,3,right,0.625121116638184,389.922940244675,604.469616880417,607.229616880417,1657321480.25095,1657321480.2526,1657321490.17131,1657321490.17313,1657321492.27209,1657321500.59186,1657321500.59396,1657321501.23465,1657321501.22543,1657321715.77211,0
133,4,2,4,22,1,1,c1_WhyFace,1,argument?,42,F_403.jpg,1657321108.54249,1657321108.54462,390.006304254532,6.68564057350159,396.708804597855,398.809587469101,2.10078287124634,398.959643354416,0.666916370391846,399.63319896698,1,left,0.649381875991821,399.626559724808,604.469616880417,607.229616880417,1657321501.3088,1657321501.31846,1657321508.0113,1657321508.01314,1657321510.11208,1657321510.26214,1657321510.26372,1657321510.93569,1657321510.92905,1657321715.77211,1
133,4,2,4,22,2,1,c1_WhyFace,2,argument?,44,F_139.jpg,1657321108.54249,1657321108.54462,390.006304254532,6.68564057350159,396.708804597855,398.809587469101,0.3,399.943343629837,0.583550930023193,400.532609930038,3,right,0.576846837997437,400.52689455986,604.469616880417,607.229616880417,1657321501.3088,1657321501.31846,1657321508.0113,1657321508.01314,1657321510.11208,1657321511.24584,1657321511.24753,1657321511.8351,1657321511.82939,1657321715.77211,0
133,4,2,4,22,3,1,c1_WhyFace,1,argument?,47,F_743.jpg,1657321108.54249,1657321108.54462,390.006304254532,6.68564057350159,396.708804597855,398.809587469101,0.3,400.843679418564,0.650243043899536,401.499384870529,1,left,0.631217002868652,401.493922462463,604.469616880417,607.229616880417,1657321501.3088,1657321501.31846,1657321508.0113,1657321508.01314,1657321510.11208,1657321512.14617,1657321512.14785,1657321512.80188,1657321512.79642,1657321715.77211,1
133,4,2,4,22,4,1,c1_WhyFace,2,argument?,45,F_433.jpg,1657321108.54249,1657321108.54462,390.006304254532,6.68564057350159,396.708804597855,398.809587469101,0.3,401.810707559586,0.750278949737549,402.565702905655,3,right,0.730603933334351,402.560986509323,604.469616880417,607.229616880417,1657321501.3088,1657321501.31846,1657321508.0113,1657321508.01314,1657321510.11208,1657321513.1132,1657321513.11485,1657321513.8682,1657321513.86348,1657321715.77211,0
133,4,2,4,22,5,1,c1_WhyFace,1,argument?,43,F_716.jpg,1657321108.54249,1657321108.54462,390.006304254532,6.68564057350159,396.708804597855,398.809587469101,0.3,402.877771844864,0.700260162353516,403.582381954193,1,left,0.684008836746216,403.578032007217,604.469616880417,607.229616880417,1657321501.3088,1657321501.31846,1657321508.0113,1657321508.01314,1657321510.11208,1657321514.18026,1657321514.18491,1657321514.88488,1657321514.88053,1657321715.77211,1
133,4,2,4,22,6,1,c1_WhyFace,1,argument?,48,F_758.jpg,1657321108.54249,1657321108.54462,390.006304254532,6.68564057350159,396.708804597855,398.809587469101,0.3,403.894816865921,0.866990804672241,404.765360822678,1,left,0.843719005584717,404.761807670593,604.469616880417,607.229616880417,1657321501.3088,1657321501.31846,1657321508.0113,1657321508.01314,1657321510.11208,1657321515.19731,1657321515.20156,1657321516.06785,1657321516.0643,1657321715.77211,1
133,4,2,4,22,7,1,c1_WhyFace,2,argument?,46,F_844.jpg,1657321108.54249,1657321108.54462,390.006304254532,6.68564057350159,396.708804597855,398.809587469101,0.3,405.07859205246,0.683587789535522,405.765389909744,3,right,0.660731077194214,405.762179841995,604.469616880417,607.229616880417,1657321501.3088,1657321501.31846,1657321508.0113,1657321508.01314,1657321510.11208,1657321516.38109,1657321516.38515,1657321517.06788,1657321517.06467,1657321715.77211,0
133,4,2,4,22,8,1,c1_WhyFace,1,argument?,41,F_712.jpg,1657321108.54249,1657321108.54462,390.006304254532,6.68564057350159,396.708804597855,398.809587469101,0.3,406.078965177536,0.65024209022522,406.73248790741,1,left,0.638581991195679,406.729207267761,604.469616880417,607.229616880417,1657321501.3088,1657321501.31846,1657321508.0113,1657321508.01314,1657321510.11208,1657321517.38146,1657321517.38529,1657321518.03498,1657321518.0317,1657321715.77211,1
133,4,2,4,23,1,2,c2_WhyHand,1,self-protection?,94,H_189.jpg,1657321108.54249,1657321108.54462,406.812572469711,7.71942234039307,414.548790445328,416.649573316574,2.10078287124634,416.799629917145,0.783625364303589,417.584726800919,1,left,0.761553049087524,417.583255281448,604.469616880417,607.229616880417,1657321518.11507,1657321518.11791,1657321525.85128,1657321525.85319,1657321527.95207,1657321528.10212,1657321528.10406,1657321528.88722,1657321528.88575,1657321715.77211,1
133,4,2,4,23,2,2,c2_WhyHand,1,self-protection?,93,H_038.jpg,1657321108.54249,1657321108.54462,406.812572469711,7.71942234039307,414.548790445328,416.649573316574,0.3,417.900040616989,0.733606815338135,418.634764900208,1,left,0.718188047409058,418.633647432327,604.469616880417,607.229616880417,1657321518.11507,1657321518.11791,1657321525.85128,1657321525.85319,1657321527.95207,1657321529.20253,1657321529.20412,1657321529.93726,1657321529.93614,1657321715.77211,1
133,4,2,4,23,3,2,c2_WhyHand,1,self-protection?,91,H_581.jpg,1657321108.54249,1657321108.54462,406.812572469711,7.71942234039307,414.548790445328,416.649573316574,0.3,418.950432529449,1.15042805671692,420.102583875656,1,left,1.12820506095886,420.100860586166,604.469616880417,607.229616880417,1657321518.11507,1657321518.11791,1657321525.85128,1657321525.85319,1657321527.95207,1657321530.25293,1657321530.25458,1657321531.40508,1657321531.40335,1657321715.77211,1
133,4,2,4,23,4,2,c2_WhyHand,2,self-protection?,90,H_006.jpg,1657321108.54249,1657321108.54462,406.812572469711,7.71942234039307,414.548790445328,416.649573316574,0.3,420.417645921707,0.800298929214478,421.219402780533,3,right,0.784247875213623,421.217944850922,604.469616880417,607.229616880417,1657321518.11507,1657321518.11791,1657321525.85128,1657321525.85319,1657321527.95207,1657321531.72014,1657321531.72167,1657321532.5219,1657321532.52044,1657321715.77211,0
133,4,2,4,23,5,2,c2_WhyHand,1,self-protection?,96,H_027.jpg,1657321108.54249,1657321108.54462,406.812572469711,7.71942234039307,414.548790445328,416.649573316574,0.3,421.534729232788,0.816971063613892,422.352730979919,1,left,0.805364847183228,422.351700296402,604.469616880417,607.229616880417,1657321518.11507,1657321518.11791,1657321525.85128,1657321525.85319,1657321527.95207,1657321532.83722,1657321532.83929,1657321533.65522,1657321533.65419,1657321715.77211,1
133,4,2,4,23,6,2,c2_WhyHand,2,self-protection?,95,H_332.jpg,1657321108.54249,1657321108.54462,406.812572469711,7.71942234039307,414.548790445328,416.649573316574,0.3,422.668485870361,0.833643913269043,423.503203859329,3,right,0.819825887680054,423.50212978363,604.469616880417,607.229616880417,1657321518.11507,1657321518.11791,1657321525.85128,1657321525.85319,1657321527.95207,1657321533.97098,1657321533.97257,1657321534.8057,1657321534.80462,1657321715.77211,0
133,4,2,4,23,7,2,c2_WhyHand,1,self-protection?,89,H_443.jpg,1657321108.54249,1657321108.54462,406.812572469711,7.71942234039307,414.548790445328,416.649573316574,0.3,423.818914642334,0.700260639190674,424.532376995087,1,left,0.687705039978027,424.519175281525,604.469616880417,607.229616880417,1657321518.11507,1657321518.11791,1657321525.85128,1657321525.85319,1657321527.95207,1657321535.12141,1657321535.12318,1657321535.83487,1657321535.82167,1657321715.77211,1
133,4,2,4,23,8,2,c2_WhyHand,2,self-protection?,92,H_532.jpg,1657321108.54249,1657321108.54462,406.812572469711,7.71942234039307,414.548790445328,416.649573316574,0.3,424.835960140228,0.66691517829895,425.504696836472,3,right,0.647567987442017,425.502875318527,604.469616880417,607.229616880417,1657321518.11507,1657321518.11791,1657321525.85128,1657321525.85319,1657321527.95207,1657321536.13845,1657321536.14017,1657321536.80719,1657321536.80537,1657321715.77211,0
133,4,2,4,24,1,4,c4_HowHand,1,both hands?,124,H_581.jpg,1657321108.54249,1657321108.54462,425.586239089966,6.46273279190063,432.055318822861,434.1561028862,2.10078406333923,434.306158771515,0.983699083328247,435.291714897156,1,left,0.958335161209106,435.289857854843,604.469616880417,607.229616880417,1657321536.88873,1657321536.90191,1657321543.35781,1657321543.36885,1657321545.4586,1657321545.60865,1657321545.61915,1657321546.59421,1657321546.59235,1657321715.77211,1
133,4,2,4,24,2,4,c4_HowHand,1,both hands?,127,H_349.jpg,1657321108.54249,1657321108.54462,425.586239089966,6.46273279190063,432.055318822861,434.1561028862,0.3,435.606643667221,0.616896390914917,436.225281944275,1,left,0.594976902008057,436.223540058136,604.469616880417,607.229616880417,1657321536.88873,1657321536.90191,1657321543.35781,1657321543.36885,1657321545.4586,1657321546.90914,1657321546.91085,1657321547.52778,1657321547.52603,1657321715.77211,1
133,4,2,4,24,3,4,c4_HowHand,2,both hands?,126,H_159.jpg,1657321108.54249,1657321108.54462,425.586239089966,6.46273279190063,432.055318822861,434.1561028862,0.3,436.540324440002,0.700261831283569,437.249210824966,3,right,0.689229965209961,437.240586271286,604.469616880417,607.229616880417,1657321536.88873,1657321536.90191,1657321543.35781,1657321543.36885,1657321545.4586,1657321547.84282,1657321547.84468,1657321548.5517,1657321548.54308,1657321715.77211,0
133,4,2,4,24,4,4,c4_HowHand,1,both hands?,122,H_111.jpg,1657321108.54249,1657321108.54462,425.586239089966,6.46273279190063,432.055318822861,434.1561028862,0.3,437.557370176315,0.600224256515503,438.165968885422,1,left,0.593898057937622,438.157594432831,604.469616880417,607.229616880417,1657321536.88873,1657321536.90191,1657321543.35781,1657321543.36885,1657321545.4586,1657321548.85986,1657321548.86126,1657321549.46846,1657321549.46009,1657321715.77211,1
133,4,2,4,24,5,4,c4_HowHand,2,both hands?,125,H_627.jpg,1657321108.54249,1657321108.54462,425.586239089966,6.46273279190063,432.055318822861,434.1561028862,0.3,438.474379768372,0.733606338500977,439.215789785385,3,right,0.720495939254761,439.207986106873,604.469616880417,607.229616880417,1657321536.88873,1657321536.90191,1657321543.35781,1657321543.36885,1657321545.4586,1657321549.77687,1657321549.77893,1657321550.51828,1657321550.51048,1657321715.77211,0
133,4,2,4,24,6,4,c4_HowHand,1,both hands?,123,H_167.jpg,1657321108.54249,1657321108.54462,425.586239089966,6.46273279190063,432.055318822861,434.1561028862,0.3,439.524771442413,0.683587551116943,440.216246833801,1,left,0.670532941818237,440.20835899353,604.469616880417,607.229616880417,1657321536.88873,1657321536.90191,1657321543.35781,1657321543.36885,1657321545.4586,1657321550.82726,1657321550.82887,1657321551.51874,1657321551.51085,1657321715.77211,1
133,4,2,4,24,7,4,c4_HowHand,1,both hands?,128,H_027.jpg,1657321108.54249,1657321108.54462,425.586239089966,6.46273279190063,432.055318822861,434.1561028862,0.3,440.525144329071,0.850318670272827,441.382383813858,1,left,0.833950996398926,441.375462999344,604.469616880417,607.229616880417,1657321536.88873,1657321536.90191,1657321543.35781,1657321543.36885,1657321545.4586,1657321551.82764,1657321551.82935,1657321552.68488,1657321552.67796,1657321715.77211,1
133,4,2,4,24,8,4,c4_HowHand,2,both hands?,121,H_091.jpg,1657321108.54249,1657321108.54462,425.586239089966,6.46273279190063,432.055318822861,434.1561028862,0.3,441.692246904373,0.0166726112365723,441.715789785385,1,left,0.00023198127746582,441.70891951561,604.469616880417,607.229616880417,1657321536.88873,1657321536.90191,1657321543.35781,1657321543.36885,1657321545.4586,1657321552.99474,1657321552.99586,1657321553.01828,1657321553.01141,1657321715.77211,0
133,4,2,4,25,1,2,c2_WhyHand,1,competing?,15,H_170.jpg,1657321108.54249,1657321108.54462,441.808956613541,8.02994132041931,449.845286121368,451.946070661545,2.10078454017639,452.096125354767,0.733607530593872,452.832415809631,1,left,0.712631225585938,452.829732885361,604.469616880417,607.229616880417,1657321553.11145,1657321553.11828,1657321561.14778,1657321561.15151,1657321563.24856,1657321563.39862,1657321563.40189,1657321564.13491,1657321564.13223,1657321715.77211,1
133,4,2,4,25,2,2,c2_WhyHand,1,competing?,14,H_132.jpg,1657321108.54249,1657321108.54462,441.808956613541,8.02994132041931,449.845286121368,451.946070661545,0.3,453.146517267227,1.01704573631287,454.16538189888,1,left,1.00130486488342,454.16356300354,604.469616880417,607.229616880417,1657321553.11145,1657321553.11828,1657321561.14778,1657321561.15151,1657321563.24856,1657321564.44901,1657321564.45185,1657321565.46788,1657321565.46606,1657321715.77211,1
133,4,2,4,25,3,2,c2_WhyHand,2,competing?,10,H_126.jpg,1657321108.54249,1657321108.54462,441.808956613541,8.02994132041931,449.845286121368,451.946070661545,0.3,454.480348577499,0.883663177490234,455.365986814499,3,right,0.866111040115356,455.36401175499,604.469616880417,607.229616880417,1657321553.11145,1657321553.11828,1657321561.14778,1657321561.15151,1657321563.24856,1657321565.78284,1657321565.78521,1657321566.66848,1657321566.6665,1657321715.77211,0
133,4,2,4,25,4,2,c2_WhyHand,1,competing?,13,H_003.jpg,1657321108.54249,1657321108.54462,441.808956613541,8.02994132041931,449.845286121368,451.946070661545,0.3,455.680796375275,0.716933727264404,456.399626960754,1,left,0.693984985351562,456.397730102539,604.469616880417,607.229616880417,1657321553.11145,1657321553.11828,1657321561.14778,1657321561.15151,1657321563.24856,1657321566.98329,1657321566.98528,1657321567.70212,1657321567.70022,1657321715.77211,1
133,4,2,4,25,5,2,c2_WhyHand,2,competing?,11,H_502.jpg,1657321108.54249,1657321108.54462,441.808956613541,8.02994132041931,449.845286121368,451.946070661545,0.3,456.714515199661,1.03371787071228,457.749549856186,3,right,1.01554107666016,457.748233070374,604.469616880417,607.229616880417,1657321553.11145,1657321553.11828,1657321561.14778,1657321561.15151,1657321563.24856,1657321568.01701,1657321568.0187,1657321569.05204,1657321569.05073,1657321715.77211,0
133,4,2,4,25,6,2,c2_WhyHand,1,competing?,16,H_136.jpg,1657321108.54249,1657321108.54462,441.808956613541,8.02994132041931,449.845286121368,451.946070661545,0.3,458.065018167496,0.666915893554688,458.732974996567,1,left,0.65327000617981,458.73193406105,604.469616880417,607.229616880417,1657321553.11145,1657321553.11828,1657321561.14778,1657321561.15151,1657321563.24856,1657321569.36751,1657321569.36946,1657321570.03547,1657321570.03443,1657321715.77211,1
133,4,2,4,25,7,2,c2_WhyHand,2,competing?,12,H_483.jpg,1657321108.54249,1657321108.54462,441.808956613541,8.02994132041931,449.845286121368,451.946070661545,0.3,459.048718204498,0.900336027145386,459.950023880005,3,right,0.891107082366943,459.949054231644,604.469616880417,607.229616880417,1657321553.11145,1657321553.11828,1657321561.14778,1657321561.15151,1657321563.24856,1657321570.35121,1657321570.35307,1657321571.25252,1657321571.25155,1657321715.77211,0
133,4,2,4,25,8,2,c2_WhyHand,1,competing?,9,H_261.jpg,1657321108.54249,1657321108.54462,441.808956613541,8.02994132041931,449.845286121368,451.946070661545,0.3,460.265838851929,0.750280141830444,461.032690992355,1,left,0.743485927581787,461.016118993759,604.469616880417,607.229616880417,1657321553.11145,1657321553.11828,1657321561.14778,1657321561.15151,1657321563.24856,1657321571.56833,1657321571.56986,1657321572.33518,1657321572.31861,1657321715.77211,1
133,4,2,4,26,1,4,c4_HowHand,1,lifting?,49,H_362.jpg,1657321108.54249,1657321108.54462,461.116156330109,6.61287450790405,467.735291233063,469.836075296402,2.10078406333923,469.986129751205,0.700262308120728,470.687951793671,1,left,0.67408013343811,470.686392059326,604.469616880417,607.229616880417,1657321572.41865,1657321572.41979,1657321579.03778,1657321579.05193,1657321581.13857,1657321581.28862,1657321581.30186,1657321581.99044,1657321581.98889,1657321715.77211,1
133,4,2,4,26,2,4,c4_HowHand,2,lifting?,55,H_012.jpg,1657321108.54249,1657321108.54462,461.116156330109,6.61287450790405,467.735291233063,469.836075296402,0.3,471.003177394867,0.833644390106201,471.838532915115,3,right,0.82038402557373,471.836821784973,604.469616880417,607.229616880417,1657321572.41865,1657321572.41979,1657321579.03778,1657321579.05193,1657321581.13857,1657321582.30567,1657321582.30699,1657321583.14103,1657321583.13931,1657321715.77211,0
133,4,2,4,26,3,4,c4_HowHand,1,lifting?,56,H_136.jpg,1657321108.54249,1657321108.54462,461.116156330109,6.61287450790405,467.735291233063,469.836075296402,0.3,472.153605213165,0.633570432662964,472.79876994133,1,left,0.62633490562439,472.787175645828,604.469616880417,607.229616880417,1657321572.41865,1657321572.41979,1657321579.03778,1657321579.05193,1657321581.13857,1657321583.4561,1657321583.45806,1657321584.10126,1657321584.08967,1657321715.77211,1
133,4,2,4,26,4,4,c4_HowHand,1,lifting?,52,H_189.jpg,1657321108.54249,1657321108.54462,461.116156330109,6.61287450790405,467.735291233063,469.836075296402,0.3,473.103960266113,0.683588027954102,473.789286842346,1,left,0.662374973297119,473.787548294067,604.469616880417,607.229616880417,1657321572.41865,1657321572.41979,1657321579.03778,1657321579.05193,1657321581.13857,1657321584.40645,1657321584.40825,1657321585.09178,1657321585.09004,1657321715.77211,1
133,4,2,4,26,5,4,c4_HowHand,1,lifting?,54,H_170.jpg,1657321108.54249,1657321108.54462,461.116156330109,6.61287450790405,467.735291233063,469.836075296402,0.3,474.10433339119,1.10041093826294,475.216058006287,1,left,1.08617496490479,475.204744329453,604.469616880417,607.229616880417,1657321572.41865,1657321572.41979,1657321579.03778,1657321579.05193,1657321581.13857,1657321585.40683,1657321585.40894,1657321586.51855,1657321586.50724,1657321715.77211,1
133,4,2,4,26,6,4,c4_HowHand,2,lifting?,53,H_077.jpg,1657321108.54249,1657321108.54462,461.116156330109,6.61287450790405,467.735291233063,469.836075296402,0.3,475.521528234482,0.70026159286499,476.232151975632,3,right,0.69112491607666,476.221789827347,604.469616880417,607.229616880417,1657321572.41865,1657321572.41979,1657321579.03778,1657321579.05193,1657321581.13857,1657321586.82402,1657321586.82589,1657321587.53465,1657321587.52428,1657321715.77211,0
133,4,2,4,26,7,4,c4_HowHand,1,lifting?,50,H_443.jpg,1657321108.54249,1657321108.54462,461.116156330109,6.61287450790405,467.735291233063,469.836075296402,0.3,476.538574447632,0.700260877609253,477.249006977081,1,left,0.690025091171265,477.238835325241,604.469616880417,607.229616880417,1657321572.41865,1657321572.41979,1657321579.03778,1657321579.05193,1657321581.13857,1657321587.84107,1657321587.84275,1657321588.5515,1657321588.54133,1657321715.77211,1
133,4,2,4,26,8,4,c4_HowHand,2,lifting?,51,H_038.jpg,1657321108.54249,1657321108.54462,461.116156330109,6.61287450790405,467.735291233063,469.836075296402,0.3,477.555620422363,0.866989612579346,478.423804988861,3,right,0.846808910369873,478.422610034943,604.469616880417,607.229616880417,1657321572.41865,1657321572.41979,1657321579.03778,1657321579.05193,1657321581.13857,1657321588.85811,1657321588.86003,1657321589.7263,1657321589.7251,1657321715.77211,0
133,4,2,4,27,1,3,c3_HowFace,1,open mouth?,73,F_403.jpg,1657321108.54249,1657321108.54462,478.505975236893,7.29298257827759,485.808698644638,487.909481515884,2.10078287124634,488.059537162781,0.800299167633057,488.865362873077,1,left,0.781736135482788,488.859836330414,604.469616880417,607.229616880417,1657321589.80847,1657321589.81847,1657321597.11119,1657321597.11875,1657321599.21197,1657321599.36203,1657321599.36863,1657321600.16786,1657321600.16233,1657321715.77211,1
133,4,2,4,27,2,3,c3_HowFace,1,open mouth?,75,F_086.jpg,1657321108.54249,1657321108.54462,478.505975236893,7.29298257827759,485.808698644638,487.909481515884,0.3,489.176620235443,0.550205945968628,489.732602825165,1,left,0.534183979034424,489.726826181412,604.469616880417,607.229616880417,1657321589.80847,1657321589.81847,1657321597.11119,1657321597.11875,1657321599.21197,1657321600.47911,1657321600.48086,1657321601.0351,1657321601.02932,1657321715.77211,1
133,4,2,4,27,3,3,c3_HowFace,1,open mouth?,80,F_844.jpg,1657321108.54249,1657321108.54462,478.505975236893,7.29298257827759,485.808698644638,487.909481515884,0.3,490.043610563278,0.600224018096924,490.644912948608,1,left,0.57751202583313,490.643834581375,604.469616880417,607.229616880417,1657321589.80847,1657321589.81847,1657321597.11119,1657321597.11875,1657321599.21197,1657321601.3461,1657321601.34796,1657321601.94741,1657321601.94633,1657321715.77211,1
133,4,2,4,27,4,3,c3_HowFace,2,open mouth?,76,F_544.jpg,1657321108.54249,1657321108.54462,478.505975236893,7.29298257827759,485.808698644638,487.909481515884,0.3,490.960619916916,0.550204515457153,491.515438785553,3,right,0.529958963394165,491.510824432373,604.469616880417,607.229616880417,1657321589.80847,1657321589.81847,1657321597.11119,1657321597.11875,1657321599.21197,1657321602.26311,1657321602.26498,1657321602.81793,1657321602.81332,1657321715.77211,0
133,4,2,4,27,5,3,c3_HowFace,1,open mouth?,74,F_776.jpg,1657321108.54249,1657321108.54462,478.505975236893,7.29298257827759,485.808698644638,487.909481515884,0.3,491.827609529495,0.566877841949463,492.399425973892,1,left,0.549781799316406,492.394487371445,604.469616880417,607.229616880417,1657321589.80847,1657321589.81847,1657321597.11119,1657321597.11875,1657321599.21197,1657321603.1301,1657321603.13197,1657321603.70192,1657321603.69698,1657321715.77211,1
133,4,2,4,27,6,3,c3_HowFace,2,open mouth?,79,F_648.jpg,1657321108.54249,1657321108.54462,478.505975236893,7.29298257827759,485.808698644638,487.909481515884,0.3,492.71127199173,0.600224256515503,493.315479984283,3,right,0.58256196975708,493.311496248245,604.469616880417,607.229616880417,1657321589.80847,1657321589.81847,1657321597.11119,1657321597.11875,1657321599.21197,1657321604.01377,1657321604.01854,1657321604.61797,1657321604.61399,1657321715.77211,0
133,4,2,4,27,7,3,c3_HowFace,1,open mouth?,78,F_692.jpg,1657321108.54249,1657321108.54462,478.505975236893,7.29298257827759,485.808698644638,487.909481515884,0.3,493.628280391693,0.600224256515503,494.232704868317,1,left,0.588371992111206,494.228504648209,604.469616880417,607.229616880417,1657321589.80847,1657321589.81847,1657321597.11119,1657321597.11875,1657321599.21197,1657321604.93077,1657321604.93518,1657321605.5352,1657321605.531,1657321715.77211,1
