onset	duration	trial_type	pmod_accuracy	image_fname
5.029429912567139	1.102829933166504	how_hand	1.0	H_007.jpg
6.446630001068115	0.7524900436401367	how_hand	1.0	H_532.jpg
7.513689994812012	0.7214400768280029	how_hand	1.0	H_474.jpg
8.547410011291504	0.9882099628448486	how_hand	1.0	H_438.jpg
9.84788990020752	0.8397200107574463	how_hand	1.0	H_364.jpg
10.998319864273071	0.6857500076293945	how_hand	1.0	H_006.jpg
11.99869990348816	0.5534200668334961	how_hand	1.0	H_003.jpg
12.865689992904663	1.052459955215454	how_hand	1.0	H_132.jpg
22.552629947662354	0.8684000968933105	why_hand	1.0	H_627.jpg
23.736409902572632	0.7516000270843506	why_hand	1.0	H_438.jpg
24.80346989631653	0.9183499813079834	why_hand	1.0	H_364.jpg
26.037270069122314	0.6679599285125732	why_hand	1.0	H_130.jpg
27.0209698677063	0.9472801685333252	why_hand	1.0	H_362.jpg
28.271430015563965	0.9807100296020508	why_hand	1.0	H_007.jpg
29.55523991584778	0.6803200244903564	why_hand	1.0	H_167.jpg
30.538939952850342	0.7517900466918945	why_hand	1.0	H_019.jpg
41.65975999832153	0.7924699783325195	why_face	1.0	F_779.jpg
42.760169982910156	1.418950080871582	why_face	1.0	F_593.jpg
44.494149923324585	1.0408201217651367	why_face	1.0	F_110.jpg
45.84465003013611	0.6907298564910889	why_face	1.0	F_590.jpg
46.845020055770874	0.8733499050140381	why_face	1.0	F_692.jpg
48.02880001068115	0.5901000499725342	why_face	1.0	F_759.jpg
48.929139852523804	0.63916015625	why_face	1.0	F_648.jpg
49.87948989868164	0.6555399894714355	why_face	1.0	F_129.jpg
60.61682987213135	0.6514999866485596	how_face	1.0	F_139.jpg
61.58384990692139	0.5849699974060059	how_face	1.0	F_712.jpg
62.48418998718262	0.6017599105834961	how_face	1.0	F_695.jpg
63.40120005607605	0.5852599143981934	how_face	1.0	F_758.jpg
64.30152988433838	0.5178701877593994	how_face	1.0	F_083.jpg
65.13517999649048	0.5518698692321777	how_face	1.0	F_759.jpg
66.0021698474884	0.5345802307128906	how_face	1.0	F_412.jpg
66.8524899482727	0.6659200191497803	how_face	1.0	F_593.jpg
78.15669989585876	1.218790054321289	how_hand	1.0	H_136.jpg
79.6906099319458	1.0181500911712646	how_hand	1.0	H_038.jpg
81.02444005012512	1.0442698001861572	how_hand	1.0	H_189.jpg
82.37493991851807	0.8266699314117432	how_hand	1.0	H_077.jpg
83.50869989395142	0.6513199806213379	how_hand	1.0	H_443.jpg
84.47571992874146	0.7431299686431885	how_hand	1.0	H_012.jpg
85.52611994743347	0.5092899799346924	how_hand	1.0	H_362.jpg
86.34309005737305	0.7592699527740479	how_hand	1.0	H_170.jpg
100.63174986839294	0.9202401638031006	why_hand	1.0	H_077.jpg
101.86554002761841	0.7361500263214111	why_hand	1.0	H_349.jpg
102.91594004631042	0.8022599220275879	why_hand	1.0	H_474.jpg
104.03302001953125	0.9351699352264404	why_hand	0.0	H_024.jpg
105.28347992897034	0.7851500511169434	why_hand	1.0	H_012.jpg
106.38388991355896	0.835319995880127	why_hand	1.0	H_159.jpg
107.51764988899231	0.7346601486206055	why_hand	1.0	H_111.jpg
108.568039894104	0.8517000675201416	why_hand	1.0	H_091.jpg
118.50507998466492		why_face	0.0	F_598.jpg
120.5558500289917	0.8186099529266357	why_face	1.0	F_760.jpg
121.68959999084473	0.8350799083709717	why_face	1.0	F_582.jpg
122.84002995491028	0.8786098957061768	why_face	1.0	F_412.jpg
124.02380990982056	1.7602500915527344	why_face	0.0	F_083.jpg
126.05789995193481	1.2522499561309814	why_face	1.0	F_776.jpg
127.62514996528625	0.8269100189208984	why_face	1.0	F_618.jpg
128.75889992713928	0.9186000823974609	why_face	1.0	F_695.jpg
136.04496002197266	1.2404398918151855	how_face	1.0	F_590.jpg
137.59553003311157	0.7019100189208984	how_face	1.0	F_433.jpg
138.61258006095886	0.6229798793792725	how_face	1.0	F_716.jpg
139.54625988006592	0.7681300640106201	how_face	1.0	F_779.jpg
140.62999987602234	1.3383500576019287	how_face	1.0	F_760.jpg
142.28061985969543	0.7543201446533203	how_face	1.0	F_111.jpg
143.34767985343933	1.7241201400756836	how_face	0.0	F_110.jpg
145.3817698955536	0.9365801811218262	how_face	1.0	F_798.jpg
155.1520800590515	1.0014498233795166	why_face	1.0	F_716.jpg
156.46923995018005	0.6179699897766113	why_face	1.0	F_139.jpg
157.4029200077057	0.684999942779541	why_face	1.0	F_712.jpg
158.40329003334045	0.6685400009155273	why_face	1.0	F_433.jpg
159.38699007034302	0.7346198558807373	why_face	1.0	F_403.jpg
160.43738985061646	0.6851701736450195	why_face	1.0	F_844.jpg
161.43775987625122	0.6474201679229736	why_face	1.0	F_743.jpg
162.38810992240906	0.651669979095459	why_face	1.0	F_758.jpg
172.9920699596405	0.6102299690246582	how_face	1.0	F_844.jpg
173.90908002853394	0.46855998039245605	how_face	1.0	F_776.jpg
174.6926999092102	0.5351901054382324	how_face	1.0	F_544.jpg
175.5430200099945	0.4426999092102051	how_face	1.0	F_692.jpg
176.29329991340637	0.4921000003814697	how_face	1.0	F_584.jpg
177.09360003471375	0.4685699939727783	how_face	1.0	F_403.jpg
177.87721991539001	0.49118995666503906	how_face	1.0	F_086.jpg
178.6775200366974	0.5345900058746338	how_face	1.0	F_648.jpg
190.88207006454468	0.6862399578094482	how_hand	1.0	H_019.jpg
191.8824498653412	1.3357501029968262	how_hand	1.0	H_024.jpg
193.53306007385254	0.6852898597717285	how_hand	1.0	H_130.jpg
194.53342986106873	0.5523099899291992	how_hand	1.0	H_502.jpg
195.40041995048523	0.6853399276733398	how_hand	1.0	H_261.jpg
196.40079998970032	0.5511898994445801	how_hand	1.0	H_332.jpg
197.26778984069824	0.6511201858520508	how_hand	1.0	H_126.jpg
198.21813988685608	0.8016800880432129	how_hand	1.0	H_483.jpg
208.67203998565674	0.7630000114440918	why_hand	1.0	H_261.jpg
209.73910999298096	0.6130900382995605	why_hand	1.0	H_483.jpg
210.65611004829407	0.5455598831176758	why_hand	1.0	H_132.jpg
211.5064299106598	0.679419994354248	why_hand	1.0	H_126.jpg
212.49012994766235	0.7449100017547607	why_hand	1.0	H_136.jpg
213.54051995277405	1.2278199195861816	why_hand	1.0	H_502.jpg
215.07442998886108	0.6106898784637451	why_hand	1.0	H_003.jpg
215.99144005775452	0.5439598560333252	why_hand	1.0	H_170.jpg
226.74545001983643	0.9403500556945801	why_face	1.0	F_544.jpg
227.9959099292755	0.5846400260925293	why_face	1.0	F_086.jpg
228.89625000953674	0.5724999904632568	why_face	1.0	F_798.jpg
229.77990984916687	0.5555300712585449	why_face	1.0	F_111.jpg
230.64689993858337	0.5684599876403809	why_face	1.0	F_774.jpg
231.53056001663208	1.0550899505615234	why_face	1.0	F_754.jpg
232.89773988723755	0.9205601215362549	why_face	1.0	F_128.jpg
234.131530046463		why_face	0.0	F_584.jpg
245.78587985038757	0.7517001628875732	how_face	1.0	F_128.jpg
246.8529498577118	0.6180300712585449	how_face	1.0	F_618.jpg
247.78662991523743	0.534600019454956	how_face	1.0	F_598.jpg
248.6369400024414	0.5182499885559082	how_face	1.0	F_743.jpg
249.47058987617493	0.5012199878692627	how_face	1.0	F_774.jpg
250.2875599861145	0.8518099784851074	how_face	1.0	F_582.jpg
251.45465993881226	0.6685299873352051	how_face	1.0	F_754.jpg
252.43835997581482	0.7682600021362305	how_face	1.0	F_129.jpg
264.576220035553	1.0588598251342773	how_hand	1.0	H_167.jpg
265.94339990615845	0.6513199806213379	how_hand	1.0	H_091.jpg
266.9104199409485	0.9416100978851318	how_hand	1.0	H_627.jpg
268.1608898639679	0.5513401031494141	how_hand	1.0	H_027.jpg
269.0278799533844	0.5411100387573242	how_hand	1.0	H_111.jpg
269.8782000541687	0.6571300029754639	how_hand	1.0	H_159.jpg
270.8452298641205	1.2731201648712158	how_hand	1.0	H_581.jpg
272.4291498661041	0.5018601417541504	how_hand	1.0	H_349.jpg
283.3665599822998	1.4184398651123047	why_hand	0.0	H_443.jpg
285.10053992271423	1.5845301151275635	why_hand	1.0	H_006.jpg
286.984580039978	1.5848298072814941	why_hand	1.0	H_581.jpg
288.88528990745544	0.7513599395751953	why_hand	1.0	H_532.jpg
289.95234990119934	0.8332300186157227	why_hand	1.0	H_027.jpg
291.0861098766327	1.2014200687408447	why_hand	0.0	H_038.jpg
292.6033399105072	0.9686200618743896	why_hand	1.0	H_332.jpg
293.8871500492096	0.8014400005340576	why_hand	1.0	H_189.jpg
304.8579099178314	0.6682901382446289	how_face	1.0	F_759.jpg
305.841609954834	0.5770800113677979	how_face	1.0	F_412.jpg
306.7252700328827	0.5101199150085449	how_face	1.0	F_593.jpg
307.5422399044037	0.6601099967956543	how_face	1.0	F_712.jpg
308.50926995277405	0.7351100444793701	how_face	1.0	F_695.jpg
309.55965995788574	0.575969934463501	how_face	1.0	F_139.jpg
310.44333004951477	0.6421999931335449	how_face	1.0	F_083.jpg
311.393679857254	0.6079599857330322	how_face	1.0	F_758.jpg
322.64788007736206	1.0538098812103271	why_face	1.0	F_593.jpg
324.0150499343872	1.2874400615692139	why_face	1.0	F_129.jpg
325.6156499385834	0.6867201328277588	why_face	1.0	F_759.jpg
326.61601996421814	0.7029199600219727	why_face	1.0	F_692.jpg
327.63306999206543	0.4857299327850342	why_face	1.0	F_779.jpg
328.4333698749542	0.5848300457000732	why_face	1.0	F_590.jpg
329.33369994163513	0.46867990493774414	why_face	1.0	F_648.jpg
330.1173300743103	0.66867995262146	why_face	1.0	F_110.jpg
340.53787994384766	0.41381001472473145	why_hand	1.0	H_261.jpg
341.2548198699951	0.45168018341064453	why_hand	1.0	H_170.jpg
342.02177000045776	0.5513100624084473	why_hand	1.0	H_483.jpg
342.8887598514557	0.45136022567749023	why_hand	1.0	H_132.jpg
343.65570998191833	0.6353499889373779	why_hand	1.0	H_136.jpg
344.6060700416565	0.562690019607544	why_hand	1.0	H_003.jpg
345.4730598926544	0.5351800918579102	why_hand	1.0	H_126.jpg
346.3233699798584	0.6453099250793457	why_hand	1.0	H_502.jpg
362.01255989074707	0.7228600978851318	how_hand	1.0	H_003.jpg
363.04627990722656	0.6062400341033936	how_hand	1.0	H_364.jpg
363.9632799625397	0.5554299354553223	how_hand	1.0	H_532.jpg
364.8302800655365	0.671259880065918	how_hand	1.0	H_006.jpg
365.8139798641205	0.7377800941467285	how_hand	1.0	H_438.jpg
366.8643698692322	0.6376199722290039	how_hand	1.0	H_007.jpg
367.81471991539	0.8515000343322754	how_hand	1.0	H_474.jpg
368.98181986808777	0.5871200561523438	how_hand	0.0	H_132.jpg
379.8525400161743	0.4850199222564697	how_face	1.0	F_403.jpg
380.6528398990631	0.4678201675415039	how_face	1.0	F_648.jpg
381.4364700317383	0.4492499828338623	how_face	1.0	F_776.jpg
382.18674993515015	0.567889928817749	how_face	1.0	F_584.jpg
383.07041001319885	0.40179991722106934	how_face	1.0	F_844.jpg
383.787339925766	0.4480299949645996	how_face	1.0	F_692.jpg
384.53762006759644	0.4350299835205078	how_face	1.0	F_086.jpg
385.2878999710083	0.5679900646209717	how_face	1.0	F_544.jpg
398.5261700153351	0.6759598255157471	why_face	1.0	F_403.jpg
399.50987005233765	0.4512598514556885	why_face	1.0	F_844.jpg
400.27682995796204	0.5351600646972656	why_face	1.0	F_712.jpg
401.12715005874634	0.5678999423980713	why_face	1.0	F_758.jpg
402.01080989837646	0.5245800018310547	why_face	1.0	F_433.jpg
402.84444999694824	0.6242499351501465	why_face	1.0	F_716.jpg
403.7781300544739	0.6575498580932617	why_face	1.0	F_139.jpg
404.74515986442566	0.556840181350708	why_face	1.0	F_743.jpg
416.74963998794556	0.7693600654602051	why_hand	0.0	H_024.jpg
417.83336997032166	0.5518100261688232	why_hand	1.0	H_349.jpg
418.70036005973816	0.7016699314117432	why_hand	1.0	H_077.jpg
419.71740984916687	0.7351000308990479	why_hand	1.0	H_474.jpg
420.76779985427856	0.7019100189208984	why_hand	1.0	H_091.jpg
421.78484988212585	0.7682101726531982	why_hand	1.0	H_159.jpg
422.8685898780823	0.5514299869537354	why_hand	1.0	H_111.jpg
423.7355799674988	0.651710033416748	why_hand	1.0	H_012.jpg
434.8230400085449	0.8289098739624023	how_hand	1.0	H_111.jpg
435.95679998397827	0.5517399311065674	how_hand	1.0	H_027.jpg
436.8237900733948	0.5679299831390381	how_hand	1.0	H_091.jpg
437.7074499130249	0.7612500190734863	how_hand	1.0	H_167.jpg
438.7745199203491	0.6685700416564941	how_hand	1.0	H_581.jpg
439.7582199573517	0.7272799015045166	how_hand	1.0	H_159.jpg
440.7919399738312	0.8102900981903076	how_hand	1.0	H_349.jpg
441.909019947052	0.7180700302124023	how_hand	1.0	H_627.jpg
452.32957005500793	0.6894598007202148	why_hand	1.0	H_438.jpg
453.32994985580444	0.7723801136016846	why_hand	1.0	H_364.jpg
454.4136800765991	0.4550797939300537	why_hand	1.0	H_362.jpg
455.1806399822235	0.4881000518798828	why_hand	1.0	H_019.jpg
455.980929851532	0.4852900505065918	why_hand	1.0	H_167.jpg
456.78122997283936	0.4712200164794922	why_hand	1.0	H_007.jpg
457.56485986709595	0.553490161895752	why_hand	1.0	H_627.jpg
458.43184995651245	0.6037299633026123	why_hand	1.0	H_130.jpg
471.3866798877716	1.2188000679016113	how_hand	1.0	H_126.jpg
472.9205799102783	0.5147800445556641	how_hand	1.0	H_130.jpg
473.7375600337982	0.5346298217773438	how_hand	1.0	H_483.jpg
474.5878698825836	0.5145101547241211	how_hand	1.0	H_024.jpg
475.4048399925232	0.46789002418518066	how_hand	1.0	H_332.jpg
476.1884698867798	0.4178500175476074	how_hand	1.0	H_019.jpg
476.922080039978	0.48454999923706055	how_hand	1.0	H_261.jpg
477.7223799228668	0.5184600353240967	how_hand	1.0	H_502.jpg
488.92655992507935	0.642509937286377	how_face	1.0	F_618.jpg
489.8769099712372	0.5023601055145264	how_face	1.0	F_754.jpg
490.6938798427582	0.5750701427459717	how_face	1.0	F_129.jpg
491.5775399208069	0.46785998344421387	how_face	1.0	F_598.jpg
492.36117005348206	0.473829984664917	how_face	1.0	F_128.jpg
493.1447899341583	1.3235900402069092	how_face	1.0	F_582.jpg
494.7787399291992	0.5396199226379395	how_face	1.0	F_774.jpg
495.6290500164032	0.73471999168396	how_face	1.0	F_743.jpg
507.8836200237274	0.6183798313140869	why_face	1.0	F_798.jpg
508.8172998428345	0.5682902336120605	why_face	1.0	F_086.jpg
509.7009699344635	0.5184099674224854	why_face	1.0	F_544.jpg
510.5346100330353	0.5178899765014648	why_face	1.0	F_754.jpg
511.3682498931885	1.0515100955963135	why_face	1.0	F_111.jpg
512.7354300022125	0.6513800621032715	why_face	1.0	F_584.jpg
513.7024600505829	0.6515498161315918	why_face	1.0	F_128.jpg
514.6694898605347	0.7679800987243652	why_face	1.0	F_774.jpg
525.4068200588226	0.7853999137878418	why_hand	1.0	H_581.jpg
526.5072400569916	0.6612498760223389	why_hand	0.0	H_443.jpg
527.474259853363	0.6682901382446289	why_hand	1.0	H_332.jpg
528.4579598903656	0.7278201580047607	why_hand	1.0	H_027.jpg
529.4916799068451	0.5349700450897217	why_hand	1.0	H_532.jpg
530.3420000076294	0.40161991119384766	why_hand	1.0	H_189.jpg
531.0589299201965	0.5761699676513672	why_hand	1.0	H_006.jpg
531.9426000118256	0.6426599025726318	why_hand	0.0	H_038.jpg
543.6136100292206	0.7551298141479492	how_hand	1.0	H_443.jpg
544.6806800365448	0.7880399227142334	how_hand	1.0	H_038.jpg
545.7810900211334	0.6705899238586426	how_hand	1.0	H_136.jpg
546.764790058136	0.5845599174499512	how_hand	1.0	H_012.jpg
547.6651198863983	0.5705101490020752	how_hand	1.0	H_362.jpg
548.5487899780273	0.5363099575042725	how_hand	1.0	H_189.jpg
549.3991000652313	1.2367098331451416	how_hand	1.0	H_170.jpg
550.949679851532	0.7023801803588867	how_hand	1.0	H_077.jpg
561.5036199092865	0.8180501461029053	how_face	1.0	F_716.jpg
562.6373698711395	0.6185200214385986	how_face	1.0	F_798.jpg
563.5710599422455	0.6012899875640869	how_face	1.0	F_760.jpg
564.4880599975586	0.48506999015808105	how_face	1.0	F_110.jpg
565.2883598804474	0.7020301818847656	how_face	1.0	F_779.jpg
566.3054099082947	0.7347800731658936	how_face	1.0	F_590.jpg
567.3557999134064	0.5962300300598145	how_face	1.0	F_111.jpg
568.2561399936676	0.5959298610687256	how_face	1.0	F_433.jpg
583.9786698818207	0.9016900062561035	why_face	1.0	F_083.jpg
585.1957900524139	0.6725599765777588	why_face	1.0	F_582.jpg
586.1794898509979	0.538830041885376	why_face	1.0	F_618.jpg
587.0298099517822	0.6059300899505615	why_face	1.0	F_776.jpg
587.9468100070953	0.8052699565887451	why_face	1.0	F_598.jpg
589.0638999938965	0.8854498863220215	why_face	1.0	F_760.jpg
590.2643399238586	0.770820140838623	why_face	1.0	F_412.jpg
591.3480799198151	0.837360143661499	why_face	1.0	F_695.jpg
6.132259845733643	1.0	buttonpress		H_007.jpg
7.199120044708252	1.0	buttonpress		H_532.jpg
8.235130071640015	1.0	buttonpress		H_474.jpg
9.535619974136353	1.0	buttonpress		H_438.jpg
10.687609910964966	1.0	buttonpress		H_364.jpg
11.684069871902466	1.0	buttonpress		H_006.jpg
12.552119970321655	1.0	buttonpress		H_003.jpg
13.918149948120117	1.0	buttonpress		H_132.jpg
23.421030044555664	1.0	buttonpress		H_627.jpg
24.488009929656982	1.0	buttonpress		H_438.jpg
25.72181987762451	1.0	buttonpress		H_364.jpg
26.705229997634888	1.0	buttonpress		H_130.jpg
27.968250036239624	1.0	buttonpress		H_362.jpg
29.252140045166016	1.0	buttonpress		H_007.jpg
30.235559940338135	1.0	buttonpress		H_167.jpg
31.290729999542236	1.0	buttonpress		H_019.jpg
42.45222997665405	1.0	buttonpress		F_779.jpg
44.17912006378174	1.0	buttonpress		F_593.jpg
45.53497004508972	1.0	buttonpress		F_110.jpg
46.5353798866272	1.0	buttonpress		F_590.jpg
47.71836996078491	1.0	buttonpress		F_692.jpg
48.61890006065369	1.0	buttonpress		F_759.jpg
49.568300008773804	1.0	buttonpress		F_648.jpg
50.535029888153076	1.0	buttonpress		F_129.jpg
61.26832985877991	1.0	buttonpress		F_139.jpg
62.16881990432739	1.0	buttonpress		F_712.jpg
63.08594989776611	1.0	buttonpress		F_695.jpg
63.98645997047424	1.0	buttonpress		F_758.jpg
64.81940007209778	1.0	buttonpress		F_083.jpg
65.68704986572266	1.0	buttonpress		F_759.jpg
66.5367500782013	1.0	buttonpress		F_412.jpg
67.51840996742249	1.0	buttonpress		F_593.jpg
79.37548995018005	1.0	buttonpress		H_136.jpg
80.70876002311707	1.0	buttonpress		H_038.jpg
82.06870985031128	1.0	buttonpress		H_189.jpg
83.20160984992981	1.0	buttonpress		H_077.jpg
84.16001987457275	1.0	buttonpress		H_443.jpg
85.21884989738464	1.0	buttonpress		H_012.jpg
86.03540992736816	1.0	buttonpress		H_362.jpg
87.1023600101471	1.0	buttonpress		H_170.jpg
101.55199003219604	1.0	buttonpress		H_077.jpg
102.60169005393982	1.0	buttonpress		H_349.jpg
103.71819996833801	1.0	buttonpress		H_474.jpg
104.96818995475769	1.0	buttonpress		H_024.jpg
106.06862998008728	1.0	buttonpress		H_012.jpg
107.21920990943909	1.0	buttonpress		H_159.jpg
108.25231003761292	1.0	buttonpress		H_111.jpg
109.41973996162415	1.0	buttonpress		H_091.jpg
	1.0	buttonpress		F_598.jpg
121.37445998191833	1.0	buttonpress		F_760.jpg
122.5246798992157	1.0	buttonpress		F_582.jpg
123.71863985061646	1.0	buttonpress		F_412.jpg
125.78406000137329	1.0	buttonpress		F_083.jpg
127.3101499080658	1.0	buttonpress		F_776.jpg
128.45205998420715	1.0	buttonpress		F_618.jpg
129.67750000953674	1.0	buttonpress		F_695.jpg
137.28539991378784	1.0	buttonpress		F_590.jpg
138.29744005203247	1.0	buttonpress		F_433.jpg
139.23555994033813	1.0	buttonpress		F_716.jpg
140.31438994407654	1.0	buttonpress		F_779.jpg
141.96834993362427	1.0	buttonpress		F_760.jpg
143.03494000434875	1.0	buttonpress		F_111.jpg
145.07179999351501	1.0	buttonpress		F_110.jpg
146.31835007667542	1.0	buttonpress		F_798.jpg
156.15352988243103	1.0	buttonpress		F_716.jpg
157.08720993995667	1.0	buttonpress		F_139.jpg
158.08791995048523	1.0	buttonpress		F_712.jpg
159.07183003425598	1.0	buttonpress		F_433.jpg
160.12160992622375	1.0	buttonpress		F_403.jpg
161.12256002426147	1.0	buttonpress		F_844.jpg
162.0851800441742	1.0	buttonpress		F_743.jpg
163.03977990150452	1.0	buttonpress		F_758.jpg
173.60229992866516	1.0	buttonpress		F_844.jpg
174.3776400089264	1.0	buttonpress		F_776.jpg
175.22789001464844	1.0	buttonpress		F_544.jpg
175.9857199192047	1.0	buttonpress		F_692.jpg
176.78539991378784	1.0	buttonpress		F_584.jpg
177.56217002868652	1.0	buttonpress		F_403.jpg
178.36840987205505	1.0	buttonpress		F_086.jpg
179.21211004257202	1.0	buttonpress		F_648.jpg
191.56831002235413	1.0	buttonpress		H_019.jpg
193.218199968338	1.0	buttonpress		H_024.jpg
194.21834993362427	1.0	buttonpress		H_130.jpg
195.08573985099792	1.0	buttonpress		H_502.jpg
196.08575987815857	1.0	buttonpress		H_261.jpg
196.9519898891449	1.0	buttonpress		H_332.jpg
197.9189100265503	1.0	buttonpress		H_126.jpg
199.0198199748993	1.0	buttonpress		H_483.jpg
209.43503999710083	1.0	buttonpress		H_261.jpg
210.35220003128052	1.0	buttonpress		H_483.jpg
211.20166993141174	1.0	buttonpress		H_132.jpg
212.18584990501404	1.0	buttonpress		H_126.jpg
213.23503994941711	1.0	buttonpress		H_136.jpg
214.76833987236023	1.0	buttonpress		H_502.jpg
215.68511986732483	1.0	buttonpress		H_003.jpg
216.53539991378784	1.0	buttonpress		H_170.jpg
227.685800075531	1.0	buttonpress		F_544.jpg
228.58054995536804	1.0	buttonpress		F_086.jpg
229.46875	1.0	buttonpress		F_798.jpg
230.33543992042542	1.0	buttonpress		F_111.jpg
231.21535992622375	1.0	buttonpress		F_774.jpg
232.5856499671936	1.0	buttonpress		F_754.jpg
233.8183000087738	1.0	buttonpress		F_128.jpg
	1.0	buttonpress		F_584.jpg
246.53758001327515	1.0	buttonpress		F_128.jpg
247.47097992897034	1.0	buttonpress		F_618.jpg
248.32122993469238	1.0	buttonpress		F_598.jpg
249.15518999099731	1.0	buttonpress		F_743.jpg
249.9718098640442	1.0	buttonpress		F_774.jpg
251.1393699645996	1.0	buttonpress		F_582.jpg
252.12318992614746	1.0	buttonpress		F_754.jpg
253.20661997795105	1.0	buttonpress		F_129.jpg
265.63507986068726	1.0	buttonpress		H_167.jpg
266.5947198867798	1.0	buttonpress		H_091.jpg
267.8520300388336	1.0	buttonpress		H_627.jpg
268.7122299671173	1.0	buttonpress		H_027.jpg
269.5689899921417	1.0	buttonpress		H_111.jpg
270.53533005714417	1.0	buttonpress		H_159.jpg
272.1183500289917	1.0	buttonpress		H_581.jpg
272.9310100078583	1.0	buttonpress		H_349.jpg
284.7849998474121	1.0	buttonpress		H_443.jpg
286.6850700378418	1.0	buttonpress		H_006.jpg
288.5694098472595	1.0	buttonpress		H_581.jpg
289.63664984703064	1.0	buttonpress		H_532.jpg
290.78557991981506	1.0	buttonpress		H_027.jpg
292.28752994537354	1.0	buttonpress		H_038.jpg
293.5719599723816	1.0	buttonpress		H_332.jpg
294.68859004974365	1.0	buttonpress		H_189.jpg
305.52620005607605	1.0	buttonpress		F_759.jpg
306.4186899662018	1.0	buttonpress		F_412.jpg
307.23538994789124	1.0	buttonpress		F_593.jpg
308.20234990119934	1.0	buttonpress		F_712.jpg
309.2443799972534	1.0	buttonpress		F_695.jpg
310.13562989234924	1.0	buttonpress		F_139.jpg
311.0855300426483	1.0	buttonpress		F_083.jpg
312.00163984298706	1.0	buttonpress		F_758.jpg
323.7016899585724	1.0	buttonpress		F_593.jpg
325.3024899959564	1.0	buttonpress		F_129.jpg
326.30237007141113	1.0	buttonpress		F_759.jpg
327.3189399242401	1.0	buttonpress		F_692.jpg
328.11879992485046	1.0	buttonpress		F_779.jpg
329.0181999206543	1.0	buttonpress		F_590.jpg
329.8023798465729	1.0	buttonpress		F_648.jpg
330.78601002693176	1.0	buttonpress		F_110.jpg
340.9516899585724	1.0	buttonpress		H_261.jpg
341.70650005340576	1.0	buttonpress		H_170.jpg
342.5730800628662	1.0	buttonpress		H_483.jpg
343.3401200771332	1.0	buttonpress		H_132.jpg
344.2910599708557	1.0	buttonpress		H_136.jpg
345.16876006126404	1.0	buttonpress		H_003.jpg
346.00823998451233	1.0	buttonpress		H_126.jpg
346.96867990493774	1.0	buttonpress		H_502.jpg
362.7354199886322	1.0	buttonpress		H_003.jpg
363.65251994132996	1.0	buttonpress		H_364.jpg
364.518709897995	1.0	buttonpress		H_532.jpg
365.5015399456024	1.0	buttonpress		H_006.jpg
366.5517599582672	1.0	buttonpress		H_438.jpg
367.5019898414612	1.0	buttonpress		H_007.jpg
368.6662199497223	1.0	buttonpress		H_474.jpg
369.5689399242401	1.0	buttonpress		H_132.jpg
380.3375599384308	1.0	buttonpress		F_403.jpg
381.1206600666046	1.0	buttonpress		F_648.jpg
381.88572001457214	1.0	buttonpress		F_776.jpg
382.7546398639679	1.0	buttonpress		F_584.jpg
383.4722099304199	1.0	buttonpress		F_844.jpg
384.2353699207306	1.0	buttonpress		F_692.jpg
384.97265005111694	1.0	buttonpress		F_086.jpg
385.8558900356293	1.0	buttonpress		F_544.jpg
399.20212984085083	1.0	buttonpress		F_403.jpg
399.96112990379333	1.0	buttonpress		F_844.jpg
400.8119900226593	1.0	buttonpress		F_712.jpg
401.6950500011444	1.0	buttonpress		F_758.jpg
402.5353899002075	1.0	buttonpress		F_433.jpg
403.4686999320984	1.0	buttonpress		F_716.jpg
404.43567991256714	1.0	buttonpress		F_139.jpg
405.30200004577637	1.0	buttonpress		F_743.jpg
417.51900005340576	1.0	buttonpress		H_024.jpg
418.3851799964905	1.0	buttonpress		H_349.jpg
419.4020299911499	1.0	buttonpress		H_077.jpg
420.4525098800659	1.0	buttonpress		H_474.jpg
421.46970987319946	1.0	buttonpress		H_091.jpg
422.55306005477905	1.0	buttonpress		H_159.jpg
423.420019865036	1.0	buttonpress		H_111.jpg
424.3872900009155	1.0	buttonpress		H_012.jpg
435.6519498825073	1.0	buttonpress		H_111.jpg
436.50853991508484	1.0	buttonpress		H_027.jpg
437.3917200565338	1.0	buttonpress		H_091.jpg
438.4686999320984	1.0	buttonpress		H_167.jpg
439.4430899620056	1.0	buttonpress		H_581.jpg
440.4854998588562	1.0	buttonpress		H_159.jpg
441.6022300720215	1.0	buttonpress		H_349.jpg
442.6270899772644	1.0	buttonpress		H_627.jpg
453.01902985572815	1.0	buttonpress		H_438.jpg
454.1023299694061	1.0	buttonpress		H_364.jpg
454.8687598705292	1.0	buttonpress		H_362.jpg
455.6687400341034	1.0	buttonpress		H_019.jpg
456.4662199020386	1.0	buttonpress		H_167.jpg
457.25244998931885	1.0	buttonpress		H_007.jpg
458.1183500289917	1.0	buttonpress		H_627.jpg
459.03557991981506	1.0	buttonpress		H_130.jpg
472.6054799556732	1.0	buttonpress		H_126.jpg
473.435359954834	1.0	buttonpress		H_130.jpg
474.27218985557556	1.0	buttonpress		H_483.jpg
475.10238003730774	1.0	buttonpress		H_024.jpg
475.8727300167084	1.0	buttonpress		H_332.jpg
476.6063199043274	1.0	buttonpress		H_019.jpg
477.4066300392151	1.0	buttonpress		H_261.jpg
478.2408399581909	1.0	buttonpress		H_502.jpg
489.5690698623657	1.0	buttonpress		F_618.jpg
490.3792700767517	1.0	buttonpress		F_754.jpg
491.26894998550415	1.0	buttonpress		F_129.jpg
492.0453999042511	1.0	buttonpress		F_598.jpg
492.835000038147	1.0	buttonpress		F_128.jpg
494.46837997436523	1.0	buttonpress		F_582.jpg
495.31835985183716	1.0	buttonpress		F_774.jpg
496.36377000808716	1.0	buttonpress		F_743.jpg
508.5019998550415	1.0	buttonpress		F_798.jpg
509.38559007644653	1.0	buttonpress		F_086.jpg
510.219379901886	1.0	buttonpress		F_544.jpg
511.05250000953674	1.0	buttonpress		F_754.jpg
512.4197599887848	1.0	buttonpress		F_111.jpg
513.3868100643158	1.0	buttonpress		F_584.jpg
514.3540098667145	1.0	buttonpress		F_128.jpg
515.437469959259	1.0	buttonpress		F_774.jpg
526.1922199726105	1.0	buttonpress		H_581.jpg
527.1684899330139	1.0	buttonpress		H_443.jpg
528.1425499916077	1.0	buttonpress		H_332.jpg
529.1857800483704	1.0	buttonpress		H_027.jpg
530.0266499519348	1.0	buttonpress		H_532.jpg
530.7436199188232	1.0	buttonpress		H_189.jpg
531.6350998878479	1.0	buttonpress		H_006.jpg
532.5852599143982	1.0	buttonpress		H_038.jpg
544.3687398433685	1.0	buttonpress		H_443.jpg
545.468719959259	1.0	buttonpress		H_038.jpg
546.4516799449921	1.0	buttonpress		H_136.jpg
547.3493499755859	1.0	buttonpress		H_012.jpg
548.2356300354004	1.0	buttonpress		H_362.jpg
549.0850999355316	1.0	buttonpress		H_189.jpg
550.6358098983765	1.0	buttonpress		H_170.jpg
551.6520600318909	1.0	buttonpress		H_077.jpg
562.3216700553894	1.0	buttonpress		F_716.jpg
563.2558898925781	1.0	buttonpress		F_798.jpg
564.1723499298096	1.0	buttonpress		F_760.jpg
564.9731299877167	1.0	buttonpress		F_110.jpg
565.9903900623322	1.0	buttonpress		F_779.jpg
567.0401899814606	1.0	buttonpress		F_590.jpg
567.9520299434662	1.0	buttonpress		F_111.jpg
568.8520698547363	1.0	buttonpress		F_433.jpg
584.8803598880768	1.0	buttonpress		F_083.jpg
585.8683500289917	1.0	buttonpress		F_582.jpg
586.7183198928833	1.0	buttonpress		F_618.jpg
587.6357400417328	1.0	buttonpress		F_776.jpg
588.7520799636841	1.0	buttonpress		F_598.jpg
589.9493498802185	1.0	buttonpress		F_760.jpg
591.0351600646973	1.0	buttonpress		F_412.jpg
592.1854400634766	1.0	buttonpress		F_695.jpg
