onset	duration	trial_type	pmod_accuracy
6.86474132537842	0.2	cue_valid	1
10.8995780944824	0.2	cue_valid	1
34.058215379715	0.2	cue_valid	1
41.527667760849	0.2	cue_valid	1
52.0649302005768	0.2	cue_valid	1
87.7115569114685	0.2	cue_valid	1
95.181009054184	0.2	cue_valid	1
100.449641466141	0.2	cue_valid	1
112.187351226807	0.2	cue_valid	1
115.655311107635	0.2	cue_valid	1
126.992872238159	0.2	cue_valid	1
136.529762506485	0.2	cue_valid	1
140.097759485245	0.2	cue_valid	1
148.767659187317	0.2	cue_valid	1
154.703206300735	0.2	cue_valid	1
157.771015882492	0.2	cue_valid	1
171.776239156723	0.2	cue_valid	1
176.644721269608	0.2	cue_valid	1
180.712905168533	0.2	cue_valid	1
188.182357549667	0.2	cue_valid	1
197.319098472595	0.2	cue_valid	1
203.287991285324	0.2	cue_valid	1
216.426223993301	0.2	cue_valid	1
223.495527267456	0.2	cue_valid	1
230.931633234024	0.2	cue_valid	1
235.600041151047	0.2	cue_valid	1
246.637490272522	0.2	cue_valid	1
252.106196403503	0.2	cue_valid	1
257.975051879883	0.2	cue_valid	1
264.043980836868	0.2	cue_valid	1
274.981394290924	0.2	cue_valid	1
278.349315881729	0.2	cue_valid	1
282.117388248444	0.2	cue_valid	1
289.586840391159	0.2	cue_valid	1
318.297547340393	0.2	cue_valid	1
344.273901462555	0.2	cue_valid	1
348.642196178436	0.2	cue_valid	1
352.610342979431	0.2	cue_valid	1
359.746336698532	0.2	cue_valid	1
366.782295942307	0.2	cue_valid	1
370.850478172302	0.2	cue_valid	1
381.887928724289	0.2	cue_valid	1
385.455925941467	0.2	cue_valid	1
388.723810434341	0.2	cue_valid	1
405.229966163635	0.2	cue_valid	1
419.735375165939	0.2	cue_valid	1
426.971407413483	0.2	cue_valid	1
434.440858840942	0.2	cue_valid	1
437.408633232117	0.2	cue_valid	1
442.077039718628	0.2	cue_valid	1
445.14485168457	0.2	cue_valid	1
458.983345508575	0.2	cue_valid	1
462.151193618774	0.2	cue_valid	1
472.988568305969	0.2	cue_valid	1
479.357610225677	0.2	cue_valid	1
495.863765716553	0.2	cue_valid	1
503.333218574524	0.2	cue_valid	1
519.239149808884	0.2	cue_valid	1
526.708600521088	0.2	cue_valid	1
535.845342159271	0.2	cue_valid	1
543.314794301987	0.2	cue_valid	1
562.688687086105	0.2	cue_valid	1
568.924345254898	0.2	cue_valid	1
581.529045581818	0.2	cue_valid	1
586.397528171539	0.2	cue_valid	1
595.734343528748	0.2	cue_valid	1
18.3857033252716	0.2	cue_invalid	1
21.8536632061005	0.2	cue_invalid	1
25.7217736244202	0.2	cue_invalid	1
29.606555223465	0.2	cue_invalid	1
48.9971194267273	0.2	cue_invalid	1
55.0327026844025	0.2	cue_invalid	1
58.4006245136261	0.2	cue_invalid	1
65.6700036525726	0.2	cue_invalid	1
69.338038444519	0.2	cue_invalid	1
72.6059234142303	0.2	cue_invalid	1
80.7756373882294	0.2	cue_invalid	1
84.2435977458954	0.2	cue_invalid	1
106.818682193756	0.2	cue_invalid	1
122.42450261116	0.2	cue_invalid	1
133.161839008331	0.2	cue_invalid	1
151.735433578491	0.2	cue_invalid	1
165.240469694138	0.2	cue_invalid	1
168.408317327499	0.2	cue_invalid	1
191.750355958939	0.2	cue_invalid	1
210.757442951202	0.2	cue_invalid	1
226.563337087631	0.2	cue_invalid	1
239.168038129807	0.2	cue_invalid	1
271.513433933258	0.2	cue_invalid	1
297.056292295456	0.2	cue_invalid	1
301.624663591385	0.2	cue_invalid	1
305.492772817612	0.2	cue_invalid	1
308.860694885254	0.2	cue_invalid	1
314.929625272751	0.2	cue_invalid	1
321.865544319153	0.2	cue_invalid	1
329.334995985031	0.2	cue_invalid	1
336.804449319839	0.2	cue_invalid	1
356.278378248215	0.2	cue_invalid	1
362.914184808731	0.2	cue_invalid	1
374.818625450134	0.2	cue_invalid	1
396.193263292313	0.2	cue_invalid	1
399.561186790466	0.2	cue_invalid	1
408.397814035416	0.2	cue_invalid	1
412.26592373848	0.2	cue_invalid	1
423.603485107422	0.2	cue_invalid	1
453.814751625061	0.2	cue_invalid	1
465.519116163254	0.2	cue_invalid	1
482.525459289551	0.2	cue_invalid	1
489.99491071701	0.2	cue_invalid	1
510.802670717239	0.2	cue_invalid	1
516.07130074501	0.2	cue_invalid	1
531.977233409882	0.2	cue_invalid	1
550.784246921539	0.2	cue_invalid	1
553.852056741714	0.2	cue_invalid	1
559.520838499069	0.2	cue_invalid	1
565.856534004211	0.2	cue_invalid	1
572.092192411423	0.2	cue_invalid	1
575.560153961182	0.2	cue_invalid	1
590.265636920929	0.2	cue_invalid	1
599.502414941788	0.2	cue_invalid	1
7.08148837089539	0.414578676223755	target_response	1
11.0996532440186	0.364433765411377	target_response	1
18.585777759552	0.390601396560669	target_response	1
22.0537385940552	0.364313364028931	target_response	1
25.9218473434448	0.363156795501709	target_response	1
29.8066284656525	0.319469690322876	target_response	1
34.2582890987396	0.309016942977905	target_response	1
41.7277421951294	0.368286848068237	target_response	1
49.1971943378448	0.327313661575317	target_response	1
52.26500415802	0.318289995193481	target_response	1
55.2327785491943	0.329288482666016	target_response	1
58.6007001399994	0.307364940643311	target_response	1
65.8700778484344	0.31695818901062	target_response	1
69.538113117218	0.305341958999634	target_response	1
72.8059985637665	0.313822507858276	target_response	1
80.9757113456726	0.315905809402466	target_response	1
84.4436709880829	0.29892897605896	target_response	1
87.9116318225861	0.283424139022827	target_response	1
95.3810834884644	0.294805526733398	target_response	1
100.649714946747	0.254882097244263	target_response	1
107.018756389618	0.289637565612793	target_response	1
112.387424230576	0.332716703414917	target_response	1
115.855385065079	0.32764196395874	target_response	1
122.624576091766	0.271450996398926	target_response	1
127.192945957184	0.298159122467041	target_response	1
133.361914396286	0.292145729064941	target_response	1
136.729836463928	0.248804569244385	target_response	1
140.297834873199	0.259927272796631	target_response	1
148.967733860016	0.318457126617432	target_response	1
151.935508012772	0.321620941162109	target_response	1
154.90328001976	0.301347970962524	target_response	1
157.971091270447	0.261190891265869	target_response	1
165.440543413162	0.350610733032227	target_response	1
168.608390808105	0.316904306411743	target_response	1
171.976314306259	0.30481481552124	target_response	1
176.844795942307	0.258415222167969	target_response	1
180.912979841232	0.226046323776245	target_response	1
188.382432699203	0.296950340270996	target_response	1
191.950428724289	0.320639371871948	target_response	1
197.519173145294	0.315010786056519	target_response	1
203.488065719604	0.327191352844238	target_response	1
210.957518339157	0.296735763549805	target_response	1
216.626297950745	0.292687177658081	target_response	1
223.695600986481	0.255646944046021	target_response	1
226.763412475586	0.3080894947052	target_response	1
231.131708621979	0.266272306442261	target_response	1
235.800115346909	0.293940782546997	target_response	1
239.368112802505	0.313801288604736	target_response	1
246.837564945221	0.276508092880249	target_response	1
252.306271076202	0.270921945571899	target_response	1
258.175126791	0.320250272750854	target_response	1
264.244056463242	0.319700479507446	target_response	1
271.71350812912	0.283244848251343	target_response	1
275.181468248367	0.338608741760254	target_response	1
278.549391031265	0.3316969871521	target_response	1
282.31746339798	0.241771697998047	target_response	1
289.786915302277	0.288195848464966	target_response	1
297.256367444992	0.337738513946533	target_response	1
301.824737548828	0.35456657409668	target_response	1
305.692847251892	0.327657699584961	target_response	1
309.060769796371	0.281267166137695	target_response	1
315.129699707031	0.308977365493774	target_response	1
318.497622013092	0.422959089279175	target_response	1
322.065618753433	0.297592401504517	target_response	1
329.535070896149	0.381696224212646	target_response	1
337.00452375412	0.297515392303467	target_response	1
344.473975419998	0.363125562667847	target_response	1
348.842271089554	0.323580980300903	target_response	1
352.810418844223	0.196223258972168	target_response	1
356.478452205658	0.355904817581177	target_response	1
359.946412086487	0.370748996734619	target_response	1
363.114260911942	0.339929103851318	target_response	1
366.982369184494	0.318169832229614	target_response	1
371.050553560257	0.258244514465332	target_response	1
375.01870059967	0.322445392608643	target_response	1
382.088002920151	0.336053133010864	target_response	1
385.656000375748	0.389034748077393	target_response	1
388.923885583878	0.316123485565186	target_response	1
396.393337011337	0.307661056518555	target_response	1
399.76126074791	0.325026273727417	target_response	1
405.43004155159	0.331020593643188	target_response	1
408.597889184952	0.374257802963257	target_response	1
412.465998411179	0.348365545272827	target_response	1
419.935450553894	0.333276510238647	target_response	1
423.803559064865	0.458149909973145	target_response	1
427.1714823246	0.300640821456909	target_response	1
434.640934467316	0.307118654251099	target_response	1
437.60870718956	0.267501831054688	target_response	1
442.27711558342	0.281351566314697	target_response	1
445.344927072525	0.285130977630615	target_response	1
454.01482629776	0.311307668685913	target_response	1
459.183419942856	0.302888154983521	target_response	1
462.351267814636	0.345172166824341	target_response	1
465.71919131279	0.346596717834473	target_response	1
473.18864274025	0.299550294876099	target_response	1
479.557684659958	0.289836406707764	target_response	1
482.725533246994	0.392223834991455	target_response	1
490.194985628128	0.306929349899292	target_response	1
496.06384062767	0.271863460540771	target_response	1
503.53329372406	0.295871257781982	target_response	1
511.002744197845	0.344973802566528	target_response	1
516.271375894547	0.397699117660522	target_response	1
519.439224004745	0.362800121307373	target_response	1
526.90867805481	0.276916980743408	target_response	1
532.177308320999	0.329111814498901	target_response	1
536.045417070389	0.310708045959473	target_response	1
543.514869451523	0.262299537658691	target_response	1
550.98432135582	0.311952590942383	target_response	1
554.052132368088	0.330075740814209	target_response	1
559.72091293335	0.295222997665405	target_response	1
562.888761281967	0.33929181098938	target_response	1
566.05660867691	0.359505414962769	target_response	1
569.124418735504	0.376723289489746	target_response	1
572.292267084122	0.354122877120972	target_response	1
575.760226726532	0.286335229873657	target_response	1
581.729120016098	0.38494610786438	target_response	1
586.597602367401	0.302981615066528	target_response	1
590.465711593628	0.314336538314819	target_response	1
595.934417009354	0.326812028884888	target_response	1
599.70248913765	0.393610954284668	target_response	1
