onset	duration	trial_type	pmod_accuracy
18.0207753181458	0.737929773330688	cue_valid	1
35.2438657283783	0.6322953224182131	cue_valid	1
38.6117873191833	0.7077672004699711	cue_valid	1
44.9808294773102	0.705940675735474	cue_valid	1
48.148677110672	0.712102842330933	cue_valid	1
64.1546456813812	0.76514048576355	cue_valid	1
67.2224571704865	0.623024415969849	cue_valid	1
81.6278295516968	0.6287359714508061	cue_valid	1
87.0965354442596	0.604612302780151	cue_valid	1
104.002840042114	0.57052059173584	cue_valid	1
114.806869506836	0.7010566711425781	cue_valid	1
121.576060295105	0.590186071395874	cue_valid	1
125.144057035446	0.6011874198913569	cue_valid	1
130.21261382103	0.7071020126342771	cue_valid	1
138.048870563507	0.690729808807373	cue_valid	1
148.786207199097	0.719164562225342	cue_valid	1
168.160097837448	0.607785415649414	cue_valid	1
192.502510309219	0.648757648468018	cue_valid	1
196.670731067657	0.695841979980469	cue_valid	1
203.940109491348	0.6622435569763181	cue_valid	1
208.708553552628	0.607021045684814	cue_valid	1
215.744511604309	0.634408903121948	cue_valid	1
230.783452510834	0.605640840530396	cue_valid	1
234.551524162292	0.566097211837769	cue_valid	1
242.387780666351	0.6508440494537351	cue_valid	1
251.724595546722	0.578031015396118	cue_valid	1
259.360776662827	0.546766948699951	cue_valid	1
266.430078983307	0.559133720397949	cue_valid	1
276.967342376709	0.596439790725708	cue_valid	1
288.404940366745	0.636627388000488	cue_valid	1
302.610238313675	0.642697763442993	cue_valid	1
320.48356962204	0.8579828262329101	cue_valid	1
327.319453477859	0.621805620193481	cue_valid	1
340.524377346039	0.7041272640228271	cue_valid	1
385.674548387527	0.83801646232605	cue_valid	1
388.642321109772	0.5917710781097409	cue_valid	1
395.911699295044	0.726914834976196	cue_valid	1
403.381151199341	0.619964551925659	cue_valid	1
410.217034101486	0.5065464496612551	cue_valid	1
419.887307405472	0.606312704086304	cue_valid	1
436.060003519058	0.6536776542663569	cue_valid	1
442.529082775116	0.680507373809814	cue_valid	1
457.467988491058	0.580656003952026	cue_valid	1
460.435761213303	0.552173805236816	cue_valid	1
474.107527017593	0.737165403366089	cue_valid	1
477.475449323654	0.5655428886413569	cue_valid	1
487.145721673965	0.6648635387420649	cue_valid	1
490.513644933701	0.5974087238311769	cue_valid	1
493.781530857086	0.562062454223633	cue_valid	1
504.218755483627	0.62557168006897	cue_valid	1
531.395556926727	0.762222480773926	cue_valid	1
546.701265096664	0.6835536479949951	cue_valid	1
556.738340854645	0.567366790771484	cue_valid	1
584.882169961929	0.5704719543457031	cue_valid	1
599.187505483627	0.6070982933044431	cue_valid	1
6.06631731987	0.694740962982178	cue_invalid	1
9.36754775047302	0.652206611633301	cue_invalid	1
14.7528903484344	0.853632640838623	cue_invalid	1
24.0897045135498	0.7716404914855961	cue_invalid	1
31.5758299827576	0.770673704147339	cue_invalid	1
57.818950176239	0.842011880874634	cue_invalid	1
60.8867604732513	0.629020881652832	cue_invalid	1
74.8919830322266	0.6987461566925051	cue_invalid	1
78.5600183010101	0.687457275390625	cue_invalid	1
96.7668077945709	0.7135326385498051	cue_invalid	1
100.234767436981	0.643222045898438	cue_invalid	1
107.670874834061	0.676739883422852	cue_invalid	1
110.938759803772	0.620111656188965	cue_invalid	1
134.280798435211	0.6751865863800051	cue_invalid	1
141.416791915894	0.731121015548706	cue_invalid	1
154.154876232147	0.6857146739959721	cue_invalid	1
161.624328374863	0.7232541561126711	cue_invalid	1
165.192324876785	0.718198013305664	cue_invalid	1
173.328692436218	0.710853052139282	cue_invalid	1
176.696616411209	0.721914720535278	cue_invalid	1
182.765545368195	0.650353622436523	cue_invalid	1
189.234624147415	0.71893162727356	cue_invalid	1
212.176511526108	0.7554442405700681	cue_invalid	1
225.414783000946	0.7118162631988529	cue_invalid	1
238.619708538055	0.650523614883423	cue_invalid	1
246.355926513672	0.673572969436646	cue_invalid	1
255.492667198181	0.64213080406189	cue_invalid	1
273.899531364441	0.73810715675354	cue_invalid	1
280.93548822403	0.669540596008301	cue_invalid	1
295.874393224716	0.6956743717193601	cue_invalid	1
299.042241573334	0.7785350799560551	cue_invalid	1
305.678049564362	0.7114922523498539	cue_invalid	1
308.945934534073	0.7362439155578611	cue_invalid	1
316.415385961533	0.7181818008422851	cue_invalid	1
323.551380872726	0.756341648101807	cue_invalid	1
330.787413597107	0.633490037918091	cue_invalid	1
334.0552983284	0.6641869068145749	cue_invalid	1
347.993829250336	0.6593205451965329	cue_invalid	1
353.362497806549	0.669444990158081	cue_invalid	1
356.930495262146	0.632799577713013	cue_invalid	1
359.898268938065	0.626103830337524	cue_invalid	1
363.266191244125	0.628824901580811	cue_invalid	1
368.534823179245	0.667214107513428	cue_invalid	1
376.004275798798	0.613061618804932	cue_invalid	1
407.149223566055	0.6217116832733149	cue_invalid	1
424.455677032471	0.631419849395752	cue_invalid	1
429.824345350266	0.682261657714844	cue_invalid	1
432.792119264603	0.635757637023926	cue_invalid	1
449.998535871506	0.65937705039978	cue_invalid	1
463.703646421432	0.669059944152832	cue_invalid	1
466.9715321064	0.62869758605957	cue_invalid	1
470.739604473114	0.630990695953369	cue_invalid	1
497.449564933777	0.647400331497192	cue_invalid	1
510.687835216522	0.64334077835083	cue_invalid	1
517.156913757324	0.750783634185791	cue_invalid	1
523.926105260849	0.622004699707031	cue_invalid	1
537.664561510086	0.639222097396851	cue_invalid	1
542.733118772507	0.695464324951172	cue_invalid	1
550.069186925888	0.634348821640015	cue_invalid	1
564.207794189453	0.592364501953125	cue_invalid	1
571.777283191681	0.6335939884185791	cue_invalid	1
575.24524307251	0.645687055587769	cue_invalid	1
581.614285469055	0.659410905838013	cue_invalid	1
587.849944353104	0.622727584838867	cue_invalid	1
591.718052148819	0.649525117874146	cue_invalid	1
