src_subject_id,session_id,run_id,param_counterbalance_ver,param_block_num,param_trial_num,param_cond_type_num,param_cond_type_string,param_normative_response,param_ques_type_string,param_image_num,param_image_filename,param_trigger_onset,param_start_biopac,event01_fixation,event01_fixation_dur,event01_blockquestion_onset,event01_block_isi_blacksreen,event01_blockquestion_dur,event02_image_onset,event02_image_dur,event03_response_onset,event03_response_key,event03_response_keyname,event03_RT,event04_shortquestion_onset,param_end_instruct_onset,param_experiment_duration,RAW_e1_fixation,RAW_e1_fixation_biopac,RAW_e1_blockquestion_onset,RAW_e1_blockquestion_onset_biopac,RAW_e1_block_isi_blacksreen,RAW_e2_image_onset,RAW_e2_image_onset_biopac,RAW_e3_response_onset,RAW_e4_shortquestion_onset,RAW_param_end_instruct_onset,accuracy
99,4,1,3,1,1,4,c4_HowHand,1,reaching?,107,H_007.jpg,1643048188.89131,1643048188.90404,0.0467917823791502,0.0279033184051514,0.080137720108032,2.11422943115234,2.03409171104431,2.26428555488586,1.63394165039062,3.89970110893249,1,left,1.6111159324646,3.89822720527649,604.472194662094,607.232194662094,1643048191.6981,1643048191.70247,1643048191.73144,1643048191.73395,1643048193.76554,1643048193.91559,1643048193.9187,1643048195.55101,1643048195.54953,1643048796.1235,1
99,4,1,3,1,2,4,c4_HowHand,2,reaching?,108,H_532.jpg,1643048188.89131,1643048188.90404,0.0467917823791502,0.0279033184051514,0.080137720108032,2.11422943115234,0.3,4.21501182556152,0.0166740417480469,4.23314713478088,1,left,0.000525951385498047,4.23168586730957,604.472194662094,607.232194662094,1643048191.6981,1643048191.70247,1643048191.73144,1643048191.73395,1643048193.76554,1643048195.86632,1643048195.86753,1643048195.88445,1643048195.88299,1643048796.1235,0
99,4,1,3,1,3,4,c4_HowHand,1,reaching?,109,H_474.jpg,1643048188.89131,1643048188.90404,0.0467917823791502,0.0279033184051514,0.080137720108032,2.11422943115234,0.3,4.5484704875946,0.93368124961853,5.48353003501892,1,left,0.922937870025635,5.48215173721313,604.472194662094,607.232194662094,1643048191.6981,1643048191.70247,1643048191.73144,1643048191.73395,1643048193.76554,1643048196.19978,1643048196.20152,1643048197.13484,1643048197.13346,1643048796.1235,1
99,4,1,3,1,4,4,c4_HowHand,2,reaching?,105,H_438.jpg,1643048188.89131,1643048188.90404,0.0467917823791502,0.0279033184051514,0.080137720108032,2.11422943115234,0.3,5.79893707275391,1.43386745452881,7.23479508399963,3,right,1.41352391242981,7.23280452728272,604.472194662094,607.232194662094,1643048191.6981,1643048191.70247,1643048191.73144,1643048191.73395,1643048193.76554,1643048197.45024,1643048197.45209,1643048198.8861,1643048198.88411,1643048796.1235,0
99,4,1,3,1,5,4,c4_HowHand,1,reaching?,110,H_364.jpg,1643048188.89131,1643048188.90404,0.0467917823791502,0.0279033184051514,0.080137720108032,2.11422943115234,0.3,7.54959010124207,0.0166726112365723,7.56929801940918,3,right,0.000641107559204102,7.56626271247864,604.472194662094,607.232194662094,1643048191.6981,1643048191.70247,1643048191.73144,1643048191.73395,1643048193.76554,1643048199.2009,1643048199.20323,1643048199.2206,1643048199.21757,1643048796.1235,0
99,4,1,3,1,6,4,c4_HowHand,1,reaching?,106,H_006.jpg,1643048188.89131,1643048188.90404,0.0467917823791502,0.0279033184051514,0.080137720108032,2.11422943115234,0.3,7.88304828643799,1.18377304077148,9.06787919044495,1,left,1.16210508346558,9.06682132720947,604.472194662094,607.232194662094,1643048191.6981,1643048191.70247,1643048191.73144,1643048191.73395,1643048193.76554,1643048199.53435,1643048199.53606,1643048200.71919,1643048200.71813,1643048796.1235,1
99,4,1,3,1,7,4,c4_HowHand,1,reaching?,111,H_003.jpg,1643048188.89131,1643048188.90404,0.0467917823791502,0.0279033184051514,0.080137720108032,2.11422943115234,0.3,9.3836071395874,1.00037288665771,10.3850500488281,1,left,0.978845834732056,10.3839800262451,604.472194662094,607.232194662094,1643048191.6981,1643048191.70247,1643048191.73144,1643048191.73395,1643048193.76554,1643048201.03491,1643048201.03656,1643048202.03636,1643048202.03529,1643048796.1235,1
99,4,1,3,1,8,4,c4_HowHand,2,reaching?,112,H_132.jpg,1643048188.89131,1643048188.90404,0.0467917823791502,0.0279033184051514,0.080137720108032,2.11422943115234,0.3,10.7007648849487,1.18377494812012,11.8855941200256,1,left,1.17103505134583,11.8845398330688,604.472194662094,607.232194662094,1643048191.6981,1643048191.70247,1643048191.73144,1643048191.73395,1643048193.76554,1643048202.35207,1643048202.35416,1643048203.5369,1643048203.53585,1643048796.1235,0
99,4,1,3,2,1,2,c2_WhyHand,1,healthy?,21,H_627.jpg,1643048188.89131,1643048188.90404,12.1346323394775,5.39653873443604,17.5366477870941,19.6374304199219,2.10078263282776,19.787486782074,1.73397994041443,21.6874079608917,1,left,1.86182494163513,21.5214667224884,604.472194662094,607.232194662094,1643048203.78594,1643048203.78753,1643048209.18795,1643048209.20149,1643048211.28874,1643048211.43879,1643048211.45201,1643048213.33871,1643048213.17277,1643048796.1235,1
99,4,1,3,2,2,2,c2_WhyHand,1,healthy?,18,H_438.jpg,1643048188.89131,1643048188.90404,12.1346323394775,5.39653873443604,17.5366477870941,19.6374304199219,0.3,21.838251581192,0.0166728496551514,21.8561441802978,1,left,0.000216007232666016,21.8549244308472,604.472194662094,607.232194662094,1643048203.78594,1643048203.78753,1643048209.18795,1643048209.20149,1643048211.28874,1643048213.48956,1643048213.49084,1643048213.50745,1643048213.50623,1643048796.1235,1
99,4,1,3,2,3,2,c2_WhyHand,1,healthy?,23,H_364.jpg,1643048188.89131,1643048188.90404,12.1346323394775,5.39653873443604,17.5366477870941,19.6374304199219,0.3,22.1717090511322,1.65061521530151,23.823428144455,1,left,1.63493585586548,23.8223242664337,604.472194662094,607.232194662094,1643048203.78594,1643048203.78753,1643048209.18795,1643048209.20149,1643048211.28874,1643048213.82301,1643048213.82501,1643048215.47473,1643048215.47363,1643048796.1235,1
99,4,1,3,2,4,2,c2_WhyHand,2,healthy?,22,H_130.jpg,1643048188.89131,1643048188.90404,12.1346323394775,5.39653873443604,17.5366477870941,19.6374304199219,0.3,24.1391103172302,1.35050249099731,25.5000140571594,1,left,1.33698081970215,25.4896128082275,604.472194662094,607.232194662094,1643048203.78594,1643048203.78753,1643048209.18795,1643048209.20149,1643048211.28874,1643048215.79042,1643048215.79184,1643048217.15132,1643048217.14092,1643048796.1235,0
99,4,1,3,2,5,2,c2_WhyHand,1,healthy?,17,H_362.jpg,1643048188.89131,1643048188.90404,12.1346323394775,5.39653873443604,17.5366477870941,19.6374304199219,0.3,25.806397190094,0.0166735649108887,25.8245379829407,1,left,0.000297784805297852,25.8230707550049,604.472194662094,607.232194662094,1643048203.78594,1643048203.78753,1643048209.18795,1643048209.20149,1643048211.28874,1643048217.4577,1643048217.4592,1643048217.47584,1643048217.47438,1643048796.1235,1
99,4,1,3,2,6,2,c2_WhyHand,2,healthy?,20,H_007.jpg,1643048188.89131,1643048188.90404,12.1346323394775,5.39653873443604,17.5366477870941,19.6374304199219,0.3,26.1398558521271,1.36717700958252,27.516780128479,3,right,1.35063791275024,27.5070328617096,604.472194662094,607.232194662094,1643048203.78594,1643048203.78753,1643048209.18795,1643048209.20149,1643048211.28874,1643048217.79116,1643048217.79317,1643048219.16809,1643048219.15834,1643048796.1235,0
99,4,1,3,2,7,2,c2_WhyHand,1,healthy?,19,H_167.jpg,1643048188.89131,1643048188.90404,12.1346323394775,5.39653873443604,17.5366477870941,19.6374304199219,0.3,27.8238167667389,0.933681964874268,28.7660770320892,1,left,0.919908046722412,28.7574987316132,604.472194662094,607.232194662094,1643048203.78594,1643048203.78753,1643048209.18795,1643048209.20149,1643048211.28874,1643048219.47512,1643048219.47645,1643048220.41738,1643048220.4088,1643048796.1235,1
99,4,1,3,2,8,2,c2_WhyHand,2,healthy?,24,H_019.jpg,1643048188.89131,1643048188.90404,12.1346323394775,5.39653873443604,17.5366477870941,19.6374304199219,0.3,29.0742840671539,1.56725072860718,30.6498091125488,3,right,1.55216503143311,30.6415347957611,604.472194662094,607.232194662094,1643048203.78594,1643048203.78753,1643048209.18795,1643048209.20149,1643048211.28874,1643048220.72559,1643048220.72722,1643048222.30112,1643048222.29284,1643048796.1235,0
99,4,1,3,3,1,1,c1_WhyFace,1,admiring?,4,F_779.jpg,1643048188.89131,1643048188.90404,30.7582447433472,5.88084125518799,36.6437728309631,38.7445571327209,2.10078430175781,38.8946127796173,0.7669517993927,39.6665351295471,1,left,0.754610061645508,39.66156457901,604.472194662094,607.232194662094,1643048222.40955,1643048222.41837,1643048228.29508,1643048228.30219,1643048230.39586,1643048230.54592,1643048230.55153,1643048231.31784,1643048231.31287,1643048796.1235,1
99,4,1,3,3,2,1,c1_WhyFace,1,admiring?,1,F_593.jpg,1643048188.89131,1643048188.90404,30.7582447433472,5.88084125518799,36.6437728309631,38.7445571327209,0.3,39.9783496761322,0.933681964874268,40.9159600639343,1,left,0.911375045776367,40.9120316410065,604.472194662094,607.232194662094,1643048222.40955,1643048222.41837,1643048228.29508,1643048228.30219,1643048230.39586,1643048231.62966,1643048231.63465,1643048232.56727,1643048232.56334,1643048796.1235,1
99,4,1,3,3,3,1,c1_WhyFace,2,admiring?,3,F_110.jpg,1643048188.89131,1643048188.90404,30.7582447433472,5.88084125518799,36.6437728309631,38.7445571327209,0.3,41.2288157844543,1.43386888504028,42.6666231060028,3,right,1.41708993911743,42.6626846694946,604.472194662094,607.232194662094,1643048222.40955,1643048222.41837,1643048228.29508,1643048228.30219,1643048230.39586,1643048232.88012,1643048232.88463,1643048234.31793,1643048234.31399,1643048796.1235,0
99,4,1,3,3,4,1,c1_WhyFace,1,admiring?,8,F_590.jpg,1643048188.89131,1643048188.90404,30.7582447433472,5.88084125518799,36.6437728309631,38.7445571327209,0.3,42.9794685745239,1.23379302024841,44.2161919975281,1,left,1.21469283103943,44.2132615947723,604.472194662094,607.232194662094,1643048222.40955,1643048222.41837,1643048228.29508,1643048228.30219,1643048230.39586,1643048234.63077,1643048234.63462,1643048235.8675,1643048235.86457,1643048796.1235,1
99,4,1,3,3,5,1,c1_WhyFace,2,admiring?,6,F_692.jpg,1643048188.89131,1643048188.90404,30.7582447433472,5.88084125518799,36.6437728309631,38.7445571327209,0.3,44.530048122406,1.13375520706177,45.6659641170502,3,right,1.11135601997375,45.6638033294678,604.472194662094,607.232194662094,1643048222.40955,1643048222.41837,1643048228.29508,1643048228.30219,1643048230.39586,1643048236.18135,1643048236.18467,1643048237.31727,1643048237.31511,1643048796.1235,0
99,4,1,3,3,6,1,c1_WhyFace,1,admiring?,5,F_759.jpg,1643048188.89131,1643048188.90404,30.7582447433472,5.88084125518799,36.6437728309631,38.7445571327209,0.3,45.9805874729157,0.85031795501709,46.8329901599884,1,left,0.838119983673096,46.8309054279327,604.472194662094,607.232194662094,1643048222.40955,1643048222.41837,1643048228.29508,1643048228.30219,1643048230.39586,1643048237.63189,1643048237.63446,1643048238.4843,1643048238.48221,1643048796.1235,1
99,4,1,3,3,7,1,c1_WhyFace,1,admiring?,7,F_648.jpg,1643048188.89131,1643048188.90404,30.7582447433472,5.88084125518799,36.6437728309631,38.7445571327209,0.3,47.1476888561249,0.800300359725952,47.9497029685974,1,left,0.77728009223938,47.9479892158508,604.472194662094,607.232194662094,1643048222.40955,1643048222.41837,1643048228.29508,1643048228.30219,1643048230.39586,1643048238.79899,1643048238.80085,1643048239.60101,1643048239.5993,1643048796.1235,1
99,4,1,3,3,8,1,c1_WhyFace,2,admiring?,2,F_129.jpg,1643048188.89131,1643048188.90404,30.7582447433472,5.88084125518799,36.6437728309631,38.7445571327209,0.3,48.2647738361359,0.850316762924194,49.1161119842529,3,right,0.834296941757202,49.1150905990601,604.472194662094,607.232194662094,1643048222.40955,1643048222.41837,1643048228.29508,1643048228.30219,1643048230.39586,1643048239.91608,1643048239.91799,1643048240.76742,1643048240.7664,1643048796.1235,0
99,4,1,3,4,1,3,c3_HowFace,1,smiling?,119,F_139.jpg,1643048188.89131,1643048188.90404,49.1984546089172,6.40475654602051,55.6175141239166,57.718298664093,2.10078454017639,57.8683543109894,0.800298690795898,58.6696250343323,1,left,0.788520097732544,58.6686530017853,604.472194662094,607.232194662094,1643048240.84976,1643048240.85104,1643048247.26882,1643048247.27091,1643048249.3696,1643048249.51966,1643048249.52148,1643048250.32093,1643048250.31996,1643048796.1235,1
99,4,1,3,4,2,3,c3_HowFace,2,smiling?,113,F_712.jpg,1643048188.89131,1643048188.90404,49.1984546089172,6.40475654602051,55.6175141239166,57.718298664093,0.3,58.9854378604889,0.0166728496551514,59.0040299797058,1,left,0.000322103500366211,59.002110710144,604.472194662094,607.232194662094,1643048240.84976,1643048240.85104,1643048247.26882,1643048247.27091,1643048249.3696,1643048250.63674,1643048250.6383,1643048250.65534,1643048250.65342,1643048796.1235,0
99,4,1,3,4,3,3,c3_HowFace,1,smiling?,115,F_695.jpg,1643048188.89131,1643048188.90404,49.1984546089172,6.40475654602051,55.6175141239166,57.718298664093,0.3,59.3188958072662,1.7173068523407,NaN,0,NA,0,61.0362026596069,604.472194662094,607.232194662094,1643048240.84976,1643048240.85104,1643048247.26882,1643048247.27091,1643048249.3696,1643048250.9702,1643048250.97186,NaN,1643048252.68751,1643048796.1235,0
99,4,1,3,4,4,3,c3_HowFace,2,smiling?,120,F_758.jpg,1643048188.89131,1643048188.90404,49.1984546089172,6.40475654602051,55.6175141239166,57.718298664093,0.3,61.3529877567291,1.3671760559082,62.7217950725555,3,right,1.3441469669342,62.7201638126373,604.472194662094,607.232194662094,1643048240.84976,1643048240.85104,1643048247.26882,1643048247.27091,1643048249.3696,1643048253.00429,1643048253.00618,1643048254.3731,1643048254.37147,1643048796.1235,0
99,4,1,3,4,5,3,c3_HowFace,1,smiling?,116,F_083.jpg,1643048188.89131,1643048188.90404,49.1984546089172,6.40475654602051,55.6175141239166,57.718298664093,0.3,63.0369486713409,0.700260877609253,63.7492871189117,1,left,0.689866065979004,63.7372095489502,604.472194662094,607.232194662094,1643048240.84976,1643048240.85104,1643048247.26882,1643048247.27091,1643048249.3696,1643048254.68825,1643048254.69008,1643048255.40059,1643048255.38852,1643048796.1235,1
99,4,1,3,4,6,3,c3_HowFace,1,smiling?,118,F_759.jpg,1643048188.89131,1643048188.90404,49.1984546089172,6.40475654602051,55.6175141239166,57.718298664093,0.3,64.0539951229095,0.650241851806641,64.7165989780426,1,left,0.639689207077026,64.7042369747162,604.472194662094,607.232194662094,1643048240.84976,1643048240.85104,1643048247.26882,1643048247.27091,1643048249.3696,1643048255.7053,1643048255.70723,1643048256.3679,1643048256.35554,1643048796.1235,1
99,4,1,3,4,7,3,c3_HowFace,2,smiling?,114,F_412.jpg,1643048188.89131,1643048188.90404,49.1984546089172,6.40475654602051,55.6175141239166,57.718298664093,0.3,65.0210225486755,0.900335550308228,65.9330940151215,3,right,0.893295049667358,65.9213580989838,604.472194662094,607.232194662094,1643048240.84976,1643048240.85104,1643048247.26882,1643048247.27091,1643048249.3696,1643048256.67233,1643048256.67386,1643048257.5844,1643048257.57266,1643048796.1235,0
99,4,1,3,4,8,3,c3_HowFace,1,smiling?,117,F_593.jpg,1643048188.89131,1643048188.90404,49.1984546089172,6.40475654602051,55.6175141239166,57.718298664093,0.3,66.238143196106,1.05039048194885,67.3001010322571,1,left,1.03992795944214,67.2885336780548,604.472194662094,607.232194662094,1643048240.84976,1643048240.85104,1643048247.26882,1643048247.27091,1643048249.3696,1643048257.88945,1643048257.89138,1643048258.95141,1643048258.93984,1643048796.1235,1
99,4,1,3,5,1,4,c4_HowHand,1,lifting?,56,H_136.jpg,1643048188.89131,1643048188.90404,67.3718988800049,5.76201224327087,73.1407167816162,75.2415015602112,2.10078477859497,75.3915567302704,1.0337176322937,76.4333619976044,3,right,1.0151219367981,76.4252743625641,604.472194662094,607.232194662094,1643048259.0232,1643048259.03592,1643048264.79202,1643048264.80205,1643048266.89281,1643048267.04286,1643048267.05166,1643048268.08467,1643048268.07658,1643048796.1235,0
99,4,1,3,5,2,4,c4_HowHand,2,lifting?,51,H_038.jpg,1643048188.89131,1643048188.90404,67.3718988800049,5.76201224327087,73.1407167816162,75.2415015602112,0.3,76.7420596981049,1.70063376426697,78.4493360424042,3,right,1.68879699707031,78.4426934623718,604.472194662094,607.232194662094,1643048259.0232,1643048259.03592,1643048264.79202,1643048264.80205,1643048266.89281,1643048268.39337,1643048268.39514,1643048270.10064,1643048270.094,1643048796.1235,0
99,4,1,3,5,3,4,c4_HowHand,1,lifting?,52,H_189.jpg,1643048188.89131,1643048188.90404,67.3718988800049,5.76201224327087,73.1407167816162,75.2415015602112,0.3,78.7594790363312,1.16710162162781,79.9333209896088,1,left,1.1568820476532,79.926580657959,604.472194662094,607.232194662094,1643048259.0232,1643048259.03592,1643048264.79202,1643048264.80205,1643048266.89281,1643048270.41078,1643048270.41267,1643048271.58463,1643048271.57789,1643048796.1235,1
99,4,1,3,5,4,4,c4_HowHand,2,lifting?,53,H_077.jpg,1643048188.89131,1643048188.90404,67.3718988800049,5.76201224327087,73.1407167816162,75.2415015602112,0.3,80.2433657550812,1.01704573631287,81.2659740352631,3,right,1.0055251121521,81.260411491394,604.472194662094,607.232194662094,1643048259.0232,1643048259.03592,1643048264.79202,1643048264.80205,1643048266.89281,1643048271.89467,1643048271.89665,1643048272.91728,1643048272.91172,1643048796.1235,0
99,4,1,3,5,5,4,c4_HowHand,1,lifting?,50,H_443.jpg,1643048188.89131,1643048188.90404,67.3718988800049,5.76201224327087,73.1407167816162,75.2415015602112,0.3,81.5771961116791,1.1004102230072,82.6787090206146,1,left,1.07852387428284,82.6776063346863,604.472194662094,607.232194662094,1643048259.0232,1643048259.03592,1643048264.79202,1643048264.80205,1643048266.89281,1643048273.2285,1643048273.23042,1643048274.33001,1643048274.32891,1643048796.1235,1
99,4,1,3,5,6,4,c4_HowHand,2,lifting?,55,H_012.jpg,1643048188.89131,1643048188.90404,67.3718988800049,5.76201224327087,73.1407167816162,75.2415015602112,0.3,82.994391670227,0.950353860855103,83.9464020633697,3,right,0.923827886581421,83.9447455310821,604.472194662094,607.232194662094,1643048259.0232,1643048259.03592,1643048264.79202,1643048264.80205,1643048266.89281,1643048274.6457,1643048274.65148,1643048275.59771,1643048275.59605,1643048796.1235,0
99,4,1,3,5,7,4,c4_HowHand,1,lifting?,49,H_362.jpg,1643048188.89131,1643048188.90404,67.3718988800049,5.76201224327087,73.1407167816162,75.2415015602112,0.3,84.2615313434601,0.950353384017944,85.216704120636,1,left,0.940819978713989,85.211884727478,604.472194662094,607.232194662094,1643048259.0232,1643048259.03592,1643048264.79202,1643048264.80205,1643048266.89281,1643048275.91284,1643048275.91469,1643048276.86801,1643048276.86319,1643048796.1235,1
99,4,1,3,5,8,4,c4_HowHand,1,lifting?,54,H_170.jpg,1643048188.89131,1643048188.90404,67.3718988800049,5.76201224327087,73.1407167816162,75.2415015602112,0.3,85.5286700630188,0.917008876800537,86.4493191146851,1,left,0.893101930618286,86.4456789398193,604.472194662094,607.232194662094,1643048259.0232,1643048259.03592,1643048264.79202,1643048264.80205,1643048266.89281,1643048277.17998,1643048277.18449,1643048278.10063,1643048278.09698,1643048796.1235,1
99,4,1,3,6,1,2,c2_WhyHand,1,helping?,38,H_077.jpg,1643048188.89131,1643048188.90404,86.5457155609131,9.06920647621155,95.6324369812012,97.7332217597961,2.10078477859497,97.8832781219482,1.06706357002258,98.9513080024719,1,left,1.05550408363342,98.9503416919708,604.472194662094,607.232194662094,1643048278.19702,1643048278.19868,1643048287.28374,1643048287.2857,1643048289.38453,1643048289.53458,1643048289.53649,1643048290.60261,1643048290.60165,1643048796.1235,1
99,4,1,3,6,2,2,c2_WhyHand,1,helping?,36,H_349.jpg,1643048188.89131,1643048188.90404,86.5457155609131,9.06920647621155,95.6324369812012,97.7332217597961,0.3,99.267126789093,0.0166730880737305,99.2851900959015,1,left,0.000349044799804688,99.2837998771667,604.472194662094,607.232194662094,1643048278.19702,1643048278.19868,1643048287.28374,1643048287.2857,1643048289.38453,1643048290.91843,1643048290.92037,1643048290.9365,1643048290.93511,1643048796.1235,1
99,4,1,3,6,3,2,c2_WhyHand,1,helping?,37,H_474.jpg,1643048188.89131,1643048188.90404,86.5457155609131,9.06920647621155,95.6324369812012,97.7332217597961,0.3,99.6005847358704,1.71730613708496,101.351855983734,1,left,1.73017091751099,101.317890872955,604.472194662094,607.232194662094,1643048278.19702,1643048278.19868,1643048287.28374,1643048287.2857,1643048289.38453,1643048291.25189,1643048291.25376,1643048293.00316,1643048292.9692,1643048796.1235,1
99,4,1,3,6,4,2,c2_WhyHand,1,helping?,39,H_024.jpg,1643048188.89131,1643048188.90404,86.5457155609131,9.06920647621155,95.6324369812012,97.7332217597961,0.3,101.634675254822,1.00037407875061,102.636836042404,3,right,0.978874921798706,102.635049333572,604.472194662094,607.232194662094,1643048278.19702,1643048278.19868,1643048287.28374,1643048287.2857,1643048289.38453,1643048293.28598,1643048293.28789,1643048294.28814,1643048294.28636,1643048796.1235,0
99,4,1,3,6,5,2,c2_WhyHand,2,helping?,40,H_012.jpg,1643048188.89131,1643048188.90404,86.5457155609131,9.06920647621155,95.6324369812012,97.7332217597961,0.3,102.951833238602,0.950355291366577,103.916542043686,3,right,0.941671133041382,103.902188529968,604.472194662094,607.232194662094,1643048278.19702,1643048278.19868,1643048287.28374,1643048287.2857,1643048289.38453,1643048294.60314,1643048294.60492,1643048295.56785,1643048295.55349,1643048796.1235,0
99,4,1,3,6,6,2,c2_WhyHand,2,helping?,35,H_159.jpg,1643048188.89131,1643048188.90404,86.5457155609131,9.06920647621155,95.6324369812012,97.7332217597961,0.3,104.218972434998,1.15042924880981,105.370436182022,3,right,1.12754702568054,105.369401683807,604.472194662094,607.232194662094,1643048278.19702,1643048278.19868,1643048287.28374,1643048287.2857,1643048289.38453,1643048295.87028,1643048295.87216,1643048297.02174,1643048297.02071,1643048796.1235,0
99,4,1,3,6,7,2,c2_WhyHand,1,helping?,34,H_111.jpg,1643048188.89131,1643048188.90404,86.5457155609131,9.06920647621155,95.6324369812012,97.7332217597961,0.3,105.686186542511,1.05039191246033,106.737622013092,1,left,1.03434991836548,106.736578454971,604.472194662094,607.232194662094,1643048278.19702,1643048278.19868,1643048287.28374,1643048287.2857,1643048289.38453,1643048297.33749,1643048297.33905,1643048298.38893,1643048298.38788,1643048796.1235,1
99,4,1,3,6,8,2,c2_WhyHand,2,helping?,33,H_091.jpg,1643048188.89131,1643048188.90404,86.5457155609131,9.06920647621155,95.6324369812012,97.7332217597961,0.3,107.053363552094,1.40052080154419,108.455517997742,3,right,1.37694096565247,108.453884353638,604.472194662094,607.232194662094,1643048278.19702,1643048278.19868,1643048287.28374,1643048287.2857,1643048289.38453,1643048298.70467,1643048298.70661,1643048300.10682,1643048300.10519,1643048796.1235,0
99,4,1,3,7,1,1,c1_WhyFace,1,proud?,104,F_598.jpg,1643048188.89131,1643048188.90404,108.52057718277,4.96929097175598,113.505769481659,115.606553068161,2.10078358650208,115.756609430313,1.35050344467163,117.11690114975,1,left,1.33699512481689,117.107112874985,604.472194662094,607.232194662094,1643048300.17188,1643048300.1735,1643048305.15708,1643048305.15894,1643048307.25786,1643048307.40792,1643048307.40954,1643048308.76821,1643048308.75842,1643048796.1235,1
99,4,1,3,7,2,1,c1_WhyFace,2,proud?,102,F_760.jpg,1643048188.89131,1643048188.90404,108.52057718277,4.96929097175598,113.505769481659,115.606553068161,0.3,117.423897256851,0.0166738033294678,117.450011959076,1,left,0.000391006469726562,117.440571060181,604.472194662094,607.232194662094,1643048300.17188,1643048300.1735,1643048305.15708,1643048305.15894,1643048307.25786,1643048309.0752,1643048309.07699,1643048309.10132,1643048309.09188,1643048796.1235,0
99,4,1,3,7,3,1,c1_WhyFace,1,proud?,97,F_582.jpg,1643048188.89131,1643048188.90404,108.52057718277,4.96929097175598,113.505769481659,115.606553068161,0.3,117.757355680466,1.58392429351807,119.342682113647,1,left,1.56269311904907,119.341279973984,604.472194662094,607.232194662094,1643048300.17188,1643048300.1735,1643048305.15708,1643048305.15894,1643048307.25786,1643048309.40866,1643048309.41074,1643048310.99399,1643048310.99259,1643048796.1235,1
99,4,1,3,7,4,1,c1_WhyFace,2,proud?,98,F_412.jpg,1643048188.89131,1643048188.90404,108.52057718277,4.96929097175598,113.505769481659,115.606553068161,0.3,119.65806435585,0.866989374160767,120.53344201088,3,right,0.853167057037354,120.525053730011,604.472194662094,607.232194662094,1643048300.17188,1643048300.1735,1643048305.15708,1643048305.15894,1643048307.25786,1643048311.30937,1643048311.31097,1643048312.18475,1643048312.17636,1643048796.1235,0
99,4,1,3,7,5,1,c1_WhyFace,1,proud?,101,F_083.jpg,1643048188.89131,1643048188.90404,108.52057718277,4.96929097175598,113.505769481659,115.606553068161,0.3,120.841838588715,1.00037336349487,121.843468179703,1,left,0.981498956680298,121.842211952209,604.472194662094,607.232194662094,1643048300.17188,1643048300.1735,1643048305.15708,1643048305.15894,1643048307.25786,1643048312.49314,1643048312.49521,1643048313.49477,1643048313.49352,1643048796.1235,1
99,4,1,3,7,6,1,c1_WhyFace,2,proud?,100,F_776.jpg,1643048188.89131,1643048188.90404,108.52057718277,4.96929097175598,113.505769481659,115.606553068161,0.3,122.158996810913,1.38384866714478,123.550229063034,3,right,1.37411880493164,123.542845478058,604.472194662094,607.232194662094,1643048300.17188,1643048300.1735,1643048305.15708,1643048305.15894,1643048307.25786,1643048313.8103,1643048313.81189,1643048315.20153,1643048315.19415,1643048796.1235,0
99,4,1,3,7,7,1,c1_WhyFace,1,proud?,103,F_618.jpg,1643048188.89131,1643048188.90404,108.52057718277,4.96929097175598,113.505769481659,115.606553068161,0.3,123.859630336761,1.03371953964233,124.894500961304,1,left,1.01535391807556,124.893349876404,604.472194662094,607.232194662094,1643048300.17188,1643048300.1735,1643048305.15708,1643048305.15894,1643048307.25786,1643048315.51094,1643048315.51242,1643048316.54581,1643048316.54466,1643048796.1235,1
99,4,1,3,7,8,1,c1_WhyFace,1,proud?,99,F_695.jpg,1643048188.89131,1643048188.90404,108.52057718277,4.96929097175598,113.505769481659,115.606553068161,0.3,125.210134496689,1.48388624191284,126.699447145462,1,left,1.47339916229248,126.694020738602,604.472194662094,607.232194662094,1643048300.17188,1643048300.1735,1643048305.15708,1643048305.15894,1643048307.25786,1643048316.86144,1643048316.86349,1643048318.35075,1643048318.34533,1643048796.1235,1
99,4,1,3,8,1,3,c3_HowFace,1,looking to side?,72,F_590.jpg,1643048188.89131,1643048188.90404,126.760712614059,4.25916457176208,131.028970470428,133.129754772186,2.10078430175781,133.279810419083,1.66728806495667,134.949557056427,1,left,1.64691400527954,134.947098484039,604.472194662094,607.232194662094,1643048318.41202,1643048318.41777,1643048322.68028,1643048322.6846,1643048324.78106,1643048324.93112,1643048324.93476,1643048326.60086,1643048326.5984,1643048796.1235,1
99,4,1,3,8,2,3,c3_HowFace,1,looking to side?,71,F_433.jpg,1643048188.89131,1643048188.90404,126.760712614059,4.25916457176208,131.028970470428,133.129754772186,0.3,135.26388381958,0.800297975540161,136.066258182526,1,left,0.78472900390625,136.06418179512,604.472194662094,607.232194662094,1643048318.41202,1643048318.41777,1643048322.68028,1643048322.6846,1643048324.78106,1643048326.91519,1643048326.91789,1643048327.71756,1643048327.71549,1643048796.1235,1
99,4,1,3,8,3,3,c3_HowFace,1,looking to side?,67,F_716.jpg,1643048188.89131,1643048188.90404,126.760712614059,4.25916457176208,131.028970470428,133.129754772186,0.3,136.380966415405,0.800299406051636,137.182705154419,1,left,0.778229951858521,137.181265821457,604.472194662094,607.232194662094,1643048318.41202,1643048318.41777,1643048322.68028,1643048322.6846,1643048324.78106,1643048328.03227,1643048328.03457,1643048328.83401,1643048328.83257,1643048796.1235,1
99,4,1,3,8,4,3,c3_HowFace,2,looking to side?,70,F_779.jpg,1643048188.89131,1643048188.90404,126.760712614059,4.25916457176208,131.028970470428,133.129754772186,0.3,137.498050680161,1.03371858596802,138.533502092361,1,left,1.01156997680664,138.531769266129,604.472194662094,607.232194662094,1643048318.41202,1643048318.41777,1643048322.68028,1643048322.6846,1643048324.78106,1643048329.14936,1643048329.15114,1643048330.18481,1643048330.18308,1643048796.1235,0
99,4,1,3,8,5,3,c3_HowFace,1,looking to side?,68,F_760.jpg,1643048188.89131,1643048188.90404,126.760712614059,4.25916457176208,131.028970470428,133.129754772186,0.3,138.848553886414,1.28381133079529,140.133463134766,1,left,1.26188588142395,140.132365217209,604.472194662094,607.232194662094,1643048318.41202,1643048318.41777,1643048322.68028,1643048322.6846,1643048324.78106,1643048330.49986,1643048330.50177,1643048331.78477,1643048331.78367,1643048796.1235,1
99,4,1,3,8,6,3,c3_HowFace,2,looking to side?,66,F_111.jpg,1643048188.89131,1643048188.90404,126.760712614059,4.25916457176208,131.028970470428,133.129754772186,0.3,140.449151268005,1.06706476211548,141.517510166168,3,right,1.04579901695251,141.516216030121,604.472194662094,607.232194662094,1643048318.41202,1643048318.41777,1643048322.68028,1643048322.6846,1643048324.78106,1643048332.10046,1643048332.10212,1643048333.16882,1643048333.16752,1643048796.1235,0
99,4,1,3,8,7,3,c3_HowFace,1,looking to side?,69,F_110.jpg,1643048188.89131,1643048188.90404,126.760712614059,4.25916457176208,131.028970470428,133.129754772186,0.3,141.833000888824,1.38384890556335,143.218338003159,3,right,1.36430406570435,143.216849794388,604.472194662094,607.232194662094,1643048318.41202,1643048318.41777,1643048322.68028,1643048322.6846,1643048324.78106,1643048333.48431,1643048333.48592,1643048334.86964,1643048334.86816,1643048796.1235,0
99,4,1,3,8,8,3,c3_HowFace,2,looking to side?,65,F_798.jpg,1643048188.89131,1643048188.90404,126.760712614059,4.25916457176208,131.028970470428,133.129754772186,0.3,143.533634176254,1.01704621315002,144.552365055084,3,right,0.994986057281494,144.550680389404,604.472194662094,607.232194662094,1643048318.41202,1643048318.41777,1643048322.68028,1643048322.6846,1643048324.78106,1643048335.18494,1643048335.18668,1643048336.20367,1643048336.20199,1643048796.1235,0
99,4,1,3,9,1,1,c1_WhyFace,1,argument?,43,F_716.jpg,1643048188.89131,1643048188.90404,144.617371549606,5.510582447052,150.136096467972,152.23688076973,2.10078430175781,152.38693570137,1.25046706199646,153.638869991302,1,left,1.23438215255737,153.637402763367,604.472194662094,607.232194662094,1643048336.26868,1643048336.27026,1643048341.7874,1643048341.78913,1643048343.88819,1643048344.03824,1643048344.04004,1643048345.29018,1643048345.28871,1643048796.1235,1
99,4,1,3,9,2,1,c1_WhyFace,2,argument?,44,F_139.jpg,1643048188.89131,1643048188.90404,144.617371549606,5.510582447052,150.136096467972,152.23688076973,0.3,153.954187860489,1.25046563148499,155.20580696106,3,right,1.23253202438354,155.204653491974,604.472194662094,607.232194662094,1643048336.26868,1643048336.27026,1643048341.7874,1643048341.78913,1643048343.88819,1643048345.60549,1643048345.60747,1643048346.85711,1643048346.85596,1643048796.1235,0
99,4,1,3,9,3,1,c1_WhyFace,1,argument?,41,F_712.jpg,1643048188.89131,1643048188.90404,144.617371549606,5.510582447052,150.136096467972,152.23688076973,0.3,155.521438827515,0.816971302032471,156.340102186203,1,left,0.796903133392334,156.338410129547,604.472194662094,607.232194662094,1643048336.26868,1643048336.27026,1643048341.7874,1643048341.78913,1643048343.88819,1643048347.17274,1643048347.17438,1643048347.99141,1643048347.98972,1643048796.1235,1
99,4,1,3,9,4,1,c1_WhyFace,2,argument?,45,F_433.jpg,1643048188.89131,1643048188.90404,144.617371549606,5.510582447052,150.136096467972,152.23688076973,0.3,156.655195226669,0.783624649047852,157.449916114807,3,right,0.770882844924927,157.438819875717,604.472194662094,607.232194662094,1643048336.26868,1643048336.27026,1643048341.7874,1643048341.78913,1643048343.88819,1643048348.3065,1643048348.30867,1643048349.10122,1643048349.09013,1643048796.1235,0
99,4,1,3,9,5,1,c1_WhyFace,1,argument?,42,F_403.jpg,1643048188.89131,1643048188.90404,144.617371549606,5.510582447052,150.136096467972,152.23688076973,0.3,157.755604734421,0.750279664993286,158.507117977142,1,left,0.729763984680176,158.505884399414,604.472194662094,607.232194662094,1643048336.26868,1643048336.27026,1643048341.7874,1643048341.78913,1643048343.88819,1643048349.40691,1643048349.40845,1643048350.15842,1643048350.15719,1643048796.1235,1
99,4,1,3,9,6,1,c1_WhyFace,2,argument?,46,F_844.jpg,1643048188.89131,1643048188.90404,144.617371549606,5.510582447052,150.136096467972,152.23688076973,0.3,158.822669973373,0.733607053756714,159.566833963394,1,left,0.726228952407837,159.55627702713,604.472194662094,607.232194662094,1643048336.26868,1643048336.27026,1643048341.7874,1643048341.78913,1643048343.88819,1643048350.47398,1643048350.47533,1643048351.21814,1643048351.20758,1643048796.1235,0
99,4,1,3,9,7,1,c1_WhyFace,1,argument?,47,F_743.jpg,1643048188.89131,1643048188.90404,144.617371549606,5.510582447052,150.136096467972,152.23688076973,0.3,159.873060693741,0.716933965682983,160.599436035156,1,left,0.711347103118896,160.589994659424,604.472194662094,607.232194662094,1643048336.26868,1643048336.27026,1643048341.7874,1643048341.78913,1643048343.88819,1643048351.52437,1643048351.52542,1643048352.25074,1643048352.2413,1643048796.1235,1
99,4,1,3,9,8,1,c1_WhyFace,1,argument?,48,F_758.jpg,1643048188.89131,1643048188.90404,144.617371549606,5.510582447052,150.136096467972,152.23688076973,0.3,160.906780233383,0.883662223815918,161.791508188248,1,left,0.865900993347168,161.790442457199,604.472194662094,607.232194662094,1643048336.26868,1643048336.27026,1643048341.7874,1643048341.78913,1643048343.88819,1643048352.55809,1643048352.55993,1643048353.44281,1643048353.44175,1643048796.1235,1
99,4,1,3,10,1,3,c3_HowFace,1,open mouth?,80,F_844.jpg,1643048188.89131,1643048188.90404,161.857135286331,6.1108078956604,167.976083030701,170.076866855621,2.10078382492065,170.226922502518,0.616896152496338,170.849308958054,1,left,0.602998971939087,170.843818655014,604.472194662094,607.232194662094,1643048353.50844,1643048353.51003,1643048359.62739,1643048359.63498,1643048361.72817,1643048361.87823,1643048361.88495,1643048362.50061,1643048362.49512,1643048796.1235,1
99,4,1,3,10,2,3,c3_HowFace,1,open mouth?,74,F_776.jpg,1643048188.89131,1643048188.90404,161.857135286331,6.1108078956604,167.976083030701,170.076866855621,0.3,171.160603752136,0.600223541259766,171.765933980942,1,left,0.59302806854248,171.760827293396,604.472194662094,607.232194662094,1643048353.50844,1643048353.51003,1643048359.62739,1643048359.63498,1643048361.72817,1643048362.81191,1643048362.81392,1643048363.41724,1643048363.41213,1643048796.1235,1
99,4,1,3,10,3,3,c3_HowFace,2,open mouth?,76,F_544.jpg,1643048188.89131,1643048188.90404,161.857135286331,6.1108078956604,167.976083030701,170.076866855621,0.3,172.077612867355,0.750279664993286,172.833243122101,3,right,0.737834930419922,172.827892532349,604.472194662094,607.232194662094,1643048353.50844,1643048353.51003,1643048359.62739,1643048359.63498,1643048361.72817,1643048363.72892,1643048363.73031,1643048364.48455,1643048364.4792,1643048796.1235,0
99,4,1,3,10,4,3,c3_HowFace,1,open mouth?,78,F_692.jpg,1643048188.89131,1643048188.90404,161.857135286331,6.1108078956604,167.976083030701,170.076866855621,0.3,173.144676675797,0.633570432662964,173.779424180985,1,left,0.611026048660278,173.778247108459,604.472194662094,607.232194662094,1643048353.50844,1643048353.51003,1643048359.62739,1643048359.63498,1643048361.72817,1643048364.79598,1643048364.79745,1643048365.43073,1643048365.42955,1643048796.1235,1
99,4,1,3,10,5,3,c3_HowFace,2,open mouth?,77,F_584.jpg,1643048188.89131,1643048188.90404,161.857135286331,6.1108078956604,167.976083030701,170.076866855621,0.3,174.095031490326,0.78362512588501,174.883221139908,3,right,0.768026828765869,174.878656616211,604.472194662094,607.232194662094,1643048353.50844,1643048353.51003,1643048359.62739,1643048359.63498,1643048361.72817,1643048365.74634,1643048365.748,1643048366.53453,1643048366.52996,1643048796.1235,0
99,4,1,3,10,6,3,c3_HowFace,1,open mouth?,73,F_403.jpg,1643048188.89131,1643048188.90404,161.857135286331,6.1108078956604,167.976083030701,170.076866855621,0.3,175.195441713333,0.733607292175293,175.930489053726,1,left,0.708483934402466,175.929049005508,604.472194662094,607.232194662094,1643048353.50844,1643048353.51003,1643048359.62739,1643048359.63498,1643048361.72817,1643048366.84675,1643048366.85127,1643048367.58179,1643048367.58035,1643048796.1235,1
99,4,1,3,10,7,3,c3_HowFace,1,open mouth?,75,F_086.jpg,1643048188.89131,1643048188.90404,161.857135286331,6.1108078956604,167.976083030701,170.076866855621,0.3,176.245833625793,0.750279903411865,176.999981155396,1,left,0.729049205780029,176.996113529205,604.472194662094,607.232194662094,1643048353.50844,1643048353.51003,1643048359.62739,1643048359.63498,1643048361.72817,1643048367.89714,1643048367.90114,1643048368.65129,1643048368.64742,1643048796.1235,1
99,4,1,3,10,8,3,c3_HowFace,2,open mouth?,79,F_648.jpg,1643048188.89131,1643048188.90404,161.857135286331,6.1108078956604,167.976083030701,170.076866855621,0.3,177.312897911072,0.733606815338135,178.049328079224,3,right,0.721750020980835,178.04650472641,604.472194662094,607.232194662094,1643048353.50844,1643048353.51003,1643048359.62739,1643048359.63498,1643048361.72817,1643048368.9642,1643048368.96799,1643048369.70063,1643048369.69781,1643048796.1235,0
99,4,1,3,11,1,4,c4_HowHand,1,pressing button?,88,H_019.jpg,1643048188.89131,1643048188.90404,178.113197078705,7.74479198455811,185.866088142395,187.966871967316,2.10078382492065,188.116927614212,0.766952514648438,188.885061016083,1,left,0.753630876541138,188.88388012886,604.472194662094,607.232194662094,1643048369.7645,1643048369.76713,1643048377.51739,1643048377.51921,1643048379.61818,1643048379.76823,1643048379.77016,1643048380.53637,1643048380.53519,1643048796.1235,1
99,4,1,3,11,2,4,c4_HowHand,2,pressing button?,87,H_024.jpg,1643048188.89131,1643048188.90404,178.113197078705,7.74479198455811,185.866088142395,187.966871967316,0.3,189.200664749146,0.0166730880737305,189.218835105896,1,left,0.000257015228271484,189.217337837219,604.472194662094,607.232194662094,1643048369.7645,1643048369.76713,1643048377.51739,1643048377.51921,1643048379.61818,1643048380.85197,1643048380.85355,1643048380.87014,1643048380.86864,1643048796.1235,0
99,4,1,3,11,3,4,c4_HowHand,2,pressing button?,85,H_130.jpg,1643048188.89131,1643048188.90404,178.113197078705,7.74479198455811,185.866088142395,187.966871967316,0.3,189.534121742249,1.00037407875061,190.536226978302,3,right,0.985568046569824,190.534495820999,604.472194662094,607.232194662094,1643048369.7645,1643048369.76713,1643048377.51739,1643048377.51921,1643048379.61818,1643048381.18543,1643048381.18728,1643048382.18753,1643048382.1858,1643048796.1235,0
99,4,1,3,11,4,4,c4_HowHand,1,pressing button?,83,H_502.jpg,1643048188.89131,1643048188.90404,178.113197078705,7.74479198455811,185.866088142395,187.966871967316,0.3,190.85127948761,0.750279426574707,191.603440036774,1,left,0.732613086700439,191.601558914185,604.472194662094,607.232194662094,1643048369.7645,1643048369.76713,1643048377.51739,1643048377.51921,1643048379.61818,1643048382.50259,1643048382.50425,1643048383.25475,1643048383.25286,1643048796.1235,1
99,4,1,3,11,5,4,c4_HowHand,2,pressing button?,81,H_261.jpg,1643048188.89131,1643048188.90404,178.113197078705,7.74479198455811,185.866088142395,187.966871967316,0.3,191.918344726563,0.883662462234497,192.803116073608,3,right,0.861449956893921,192.802007188797,604.472194662094,607.232194662094,1643048369.7645,1643048369.76713,1643048377.51739,1643048377.51921,1643048379.61818,1643048383.56965,1643048383.57111,1643048384.45442,1643048384.45331,1643048796.1235,0
99,4,1,3,11,6,4,c4_HowHand,1,pressing button?,86,H_332.jpg,1643048188.89131,1643048188.90404,178.113197078705,7.74479198455811,185.866088142395,187.966871967316,0.3,193.118791332245,0.600225448608398,193.720139017105,1,left,0.581760168075562,193.719016780853,604.472194662094,607.232194662094,1643048369.7645,1643048369.76713,1643048377.51739,1643048377.51921,1643048379.61818,1643048384.7701,1643048384.77209,1643048385.37144,1643048385.37032,1643048796.1235,1
99,4,1,3,11,7,4,c4_HowHand,1,pressing button?,82,H_126.jpg,1643048188.89131,1643048188.90404,178.113197078705,7.74479198455811,185.866088142395,187.966871967316,0.3,194.035801877975,0.650241851806641,194.687781085968,1,left,0.627032995223999,194.686043729782,604.472194662094,607.232194662094,1643048369.7645,1643048369.76713,1643048377.51739,1643048377.51921,1643048379.61818,1643048385.68711,1643048385.689,1643048386.33909,1643048386.33735,1643048796.1235,1
99,4,1,3,11,8,4,c4_HowHand,1,pressing button?,84,H_483.jpg,1643048188.89131,1643048188.90404,178.113197078705,7.74479198455811,185.866088142395,187.966871967316,0.3,195.002828588486,0.733607053756714,195.737500181198,1,left,0.716485023498535,195.736435642242,604.472194662094,607.232194662094,1643048369.7645,1643048369.76713,1643048377.51739,1643048377.51921,1643048379.61818,1643048386.65413,1643048386.65587,1643048387.38881,1643048387.38774,1643048796.1235,1
99,4,1,3,12,1,2,c2_WhyHand,1,competing?,9,H_261.jpg,1643048188.89131,1643048188.90404,195.836472978592,7.81143307685852,203.656055202484,205.756839027405,2.10078382492065,205.90689491272,1.10041069984436,207.016703119278,1,left,1.07790398597717,207.007305612564,604.472194662094,607.232194662094,1643048387.48778,1643048387.4891,1643048395.30736,1643048395.31842,1643048397.40814,1643048397.5582,1643048397.56813,1643048398.66801,1643048398.65861,1643048796.1235,1
99,4,1,3,12,2,2,c2_WhyHand,2,competing?,12,H_483.jpg,1643048188.89131,1643048188.90404,195.836472978592,7.81143307685852,203.656055202484,205.756839027405,0.3,207.324089756012,0.883662700653076,208.215993156433,3,right,0.867748022079468,208.207752456665,604.472194662094,607.232194662094,1643048387.48778,1643048387.4891,1643048395.30736,1643048395.31842,1643048397.40814,1643048398.9754,1643048398.97709,1643048399.8673,1643048399.85906,1643048796.1235,0
99,4,1,3,12,3,2,c2_WhyHand,1,competing?,14,H_132.jpg,1643048188.89131,1643048188.90404,195.836472978592,7.81143307685852,203.656055202484,205.756839027405,0.3,208.524536838532,0.750281095504761,209.283102025986,1,left,0.739521026611328,209.274817934036,604.472194662094,607.232194662094,1643048387.48778,1643048387.4891,1643048395.30736,1643048395.31842,1643048397.40814,1643048400.17584,1643048400.17755,1643048400.93441,1643048400.92612,1643048796.1235,1
99,4,1,3,12,4,2,c2_WhyHand,2,competing?,10,H_126.jpg,1643048188.89131,1643048188.90404,195.836472978592,7.81143307685852,203.656055202484,205.756839027405,0.3,209.591601839066,0.833644866943359,210.433402051926,3,right,0.82624888420105,210.425246706009,604.472194662094,607.232194662094,1643048387.48778,1643048387.4891,1643048395.30736,1643048395.31842,1643048397.40814,1643048401.24291,1643048401.2445,1643048402.08471,1643048402.07655,1643048796.1235,0
99,4,1,3,12,5,2,c2_WhyHand,1,competing?,16,H_136.jpg,1643048188.89131,1643048188.90404,195.836472978592,7.81143307685852,203.656055202484,205.756839027405,0.3,210.742032279968,0.750279426574707,211.494218101501,1,left,0.729695081710815,211.492311706543,604.472194662094,607.232194662094,1643048387.48778,1643048387.4891,1643048395.30736,1643048395.31842,1643048397.40814,1643048402.39334,1643048402.39531,1643048403.14552,1643048403.14362,1643048796.1235,1
99,4,1,3,12,6,2,c2_WhyHand,2,competing?,11,H_502.jpg,1643048188.89131,1643048188.90404,195.836472978592,7.81143307685852,203.656055202484,205.756839027405,0.3,211.809095611572,0.917008876800537,212.727267017365,3,right,0.899017095565796,212.726104488373,604.472194662094,607.232194662094,1643048387.48778,1643048387.4891,1643048395.30736,1643048395.31842,1643048397.40814,1643048403.4604,1643048403.46203,1643048404.37857,1643048404.37741,1643048796.1235,0
99,4,1,3,12,7,2,c2_WhyHand,1,competing?,13,H_003.jpg,1643048188.89131,1643048188.90404,195.836472978592,7.81143307685852,203.656055202484,205.756839027405,0.3,213.042889585495,0.70026159286499,213.749845972061,1,left,0.687710046768188,213.74315117836,604.472194662094,607.232194662094,1643048387.48778,1643048387.4891,1643048395.30736,1643048395.31842,1643048397.40814,1643048404.6942,1643048404.69592,1643048405.40115,1643048405.39446,1643048796.1235,1
99,4,1,3,12,8,2,c2_WhyHand,1,competing?,15,H_170.jpg,1643048188.89131,1643048188.90404,195.836472978592,7.81143307685852,203.656055202484,205.756839027405,0.3,214.059935560226,0.716933965682983,214.7787840271,1,left,0.698369026184082,214.776869525909,604.472194662094,607.232194662094,1643048387.48778,1643048387.4891,1643048395.30736,1643048395.31842,1643048397.40814,1643048405.71124,1643048405.713,1643048406.43009,1643048406.42818,1643048796.1235,1
99,4,1,3,13,1,1,c1_WhyFace,1,self-doubt?,29,F_544.jpg,1643048188.89131,1643048188.90404,214.860233774185,6.85771942138672,221.729461660385,223.830245962143,2.10078430175781,223.980301847458,1.28381133079529,225.266108026505,1,left,1.26715302467346,225.264113178253,604.472194662094,607.232194662094,1643048406.51154,1643048406.51804,1643048413.38077,1643048413.38491,1643048415.48155,1643048415.63161,1643048415.6347,1643048416.91741,1643048416.91542,1643048796.1235,1
99,4,1,3,13,2,1,c1_WhyFace,2,self-doubt?,27,F_086.jpg,1643048188.89131,1643048188.90404,214.860233774185,6.85771942138672,221.729461660385,223.830245962143,0.3,225.580898275375,0.900335550308228,226.482825984955,3,right,0.886558055877686,226.481233825684,604.472194662094,607.232194662094,1643048406.51154,1643048406.51804,1643048413.38077,1643048413.38491,1643048415.48155,1643048417.2322,1643048417.23431,1643048418.13413,1643048418.13254,1643048796.1235,0
99,4,1,3,13,3,1,c1_WhyFace,1,self-doubt?,25,F_798.jpg,1643048188.89131,1643048188.90404,214.860233774185,6.85771942138672,221.729461660385,223.830245962143,0.3,226.798018922806,0.716934442520142,227.515995969772,1,left,0.707664012908936,227.514953365326,604.472194662094,607.232194662094,1643048406.51154,1643048406.51804,1643048413.38077,1643048413.38491,1643048415.48155,1643048418.44932,1643048418.45136,1643048419.1673,1643048419.16626,1643048796.1235,1
99,4,1,3,13,4,1,c1_WhyFace,1,self-doubt?,26,F_111.jpg,1643048188.89131,1643048188.90404,214.860233774185,6.85771942138672,221.729461660385,223.830245962143,0.3,227.83173822403,0.733606338500977,228.56716012001,1,left,0.715309858322144,228.565344562531,604.472194662094,607.232194662094,1643048406.51154,1643048406.51804,1643048413.38077,1643048413.38491,1643048415.48155,1643048419.48304,1643048419.48465,1643048420.21847,1643048420.21665,1643048796.1235,1
99,4,1,3,13,5,1,c1_WhyFace,2,self-doubt?,31,F_774.jpg,1643048188.89131,1643048188.90404,214.860233774185,6.85771942138672,221.729461660385,223.830245962143,0.3,228.882129659653,0.750278949737549,229.634021987915,3,right,0.731544971466064,229.63240860939,604.472194662094,607.232194662094,1643048406.51154,1643048406.51804,1643048413.38077,1643048413.38491,1643048415.48155,1643048420.53344,1643048420.53502,1643048421.28533,1643048421.28371,1643048796.1235,0
99,4,1,3,13,6,1,c1_WhyFace,1,self-doubt?,28,F_754.jpg,1643048188.89131,1643048188.90404,214.860233774185,6.85771942138672,221.729461660385,223.830245962143,0.3,229.949193706512,0.866989850997925,230.817880144119,1,left,0.848397016525269,230.81618355751,604.472194662094,607.232194662094,1643048406.51154,1643048406.51804,1643048413.38077,1643048413.38491,1643048415.48155,1643048421.6005,1643048421.60216,1643048422.46919,1643048422.46749,1643048796.1235,1
99,4,1,3,13,7,1,c1_WhyFace,2,self-doubt?,32,F_128.jpg,1643048188.89131,1643048188.90404,214.860233774185,6.85771942138672,221.729461660385,223.830245962143,0.3,231.132968416214,0.950355529785156,232.08484410286,3,right,0.938544988632202,232.083323945999,604.472194662094,607.232194662094,1643048406.51154,1643048406.51804,1643048413.38077,1643048413.38491,1643048415.48155,1643048422.78427,1643048422.78593,1643048423.73615,1643048423.73463,1643048796.1235,0
99,4,1,3,13,8,1,c1_WhyFace,1,self-doubt?,30,F_584.jpg,1643048188.89131,1643048188.90404,214.860233774185,6.85771942138672,221.729461660385,223.830245962143,0.3,232.40010761261,1.21712064743042,233.619003047943,1,left,1.20186591148376,233.61722826004,604.472194662094,607.232194662094,1643048406.51154,1643048406.51804,1643048413.38077,1643048413.38491,1643048415.48155,1643048424.05141,1643048424.05317,1643048425.27031,1643048425.26853,1643048796.1235,1
99,4,1,3,14,1,3,c3_HowFace,1,looking at camera?,64,F_128.jpg,1643048188.89131,1643048188.90404,233.683920612335,7.08798241615295,240.786568870544,242.887353172302,2.10078430175781,243.03740858078,1.10040998458862,244.139245977402,1,left,1.08370804786682,244.137818565369,604.472194662094,607.232194662094,1643048425.33523,1643048425.33674,1643048432.43787,1643048432.44003,1643048434.53866,1643048434.68871,1643048434.69061,1643048435.79055,1643048435.78912,1643048796.1235,1
99,4,1,3,14,2,3,c3_HowFace,1,looking at camera?,60,F_618.jpg,1643048188.89131,1643048188.90404,233.683920612335,7.08798241615295,240.786568870544,242.887353172302,0.3,244.454603662491,0.600224018096924,245.055864086151,1,left,0.581935167312622,245.054827680588,604.472194662094,607.232194662094,1643048425.33523,1643048425.33674,1643048432.43787,1643048432.44003,1643048434.53866,1643048436.10591,1643048436.10772,1643048436.70717,1643048436.70613,1643048796.1235,1
99,4,1,3,14,3,3,c3_HowFace,1,looking at camera?,62,F_598.jpg,1643048188.89131,1643048188.90404,233.683920612335,7.08798241615295,240.786568870544,242.887353172302,0.3,245.371611347198,0.583552360534668,245.966394176483,1,left,0.569935083389282,245.955163707733,604.472194662094,607.232194662094,1643048425.33523,1643048425.33674,1643048432.43787,1643048432.44003,1643048434.53866,1643048437.02292,1643048437.0247,1643048437.6177,1643048437.60647,1643048796.1235,1
99,4,1,3,14,4,3,c3_HowFace,2,looking at camera?,63,F_743.jpg,1643048188.89131,1643048188.90404,233.683920612335,7.08798241615295,240.786568870544,242.887353172302,0.3,246.271947612762,0.666916608810425,246.94049905777,3,right,0.647067070007324,246.938864221573,604.472194662094,607.232194662094,1643048425.33523,1643048425.33674,1643048432.43787,1643048432.44003,1643048434.53866,1643048437.92325,1643048437.925,1643048438.5918,1643048438.59017,1643048796.1235,0
99,4,1,3,14,5,3,c3_HowFace,1,looking at camera?,61,F_774.jpg,1643048188.89131,1643048188.90404,233.683920612335,7.08798241615295,240.786568870544,242.887353172302,0.3,247.255648841858,0.700260877609253,247.966395130157,1,left,0.68872594833374,247.955909719467,604.472194662094,607.232194662094,1643048425.33523,1643048425.33674,1643048432.43787,1643048432.44003,1643048434.53866,1643048438.90695,1643048438.90839,1643048439.6177,1643048439.60722,1643048796.1235,1
99,4,1,3,14,6,3,c3_HowFace,2,looking at camera?,57,F_582.jpg,1643048188.89131,1643048188.90404,233.683920612335,7.08798241615295,240.786568870544,242.887353172302,0.3,248.272693624496,0.733607053756714,249.01599811554,1,left,0.726032018661499,249.006300678253,604.472194662094,607.232194662094,1643048425.33523,1643048425.33674,1643048432.43787,1643048432.44003,1643048434.53866,1643048439.924,1643048439.92555,1643048440.6673,1643048440.65761,1643048796.1235,0
99,4,1,3,14,7,3,c3_HowFace,2,looking at camera?,58,F_754.jpg,1643048188.89131,1643048188.90404,233.683920612335,7.08798241615295,240.786568870544,242.887353172302,0.3,249.323086013794,0.917008876800537,250.249760141373,3,right,0.910120010375977,250.240094890594,604.472194662094,607.232194662094,1643048425.33523,1643048425.33674,1643048432.43787,1643048432.44003,1643048434.53866,1643048440.97439,1643048440.9759,1643048441.90107,1643048441.8914,1643048796.1235,0
99,4,1,3,14,8,3,c3_HowFace,1,looking at camera?,59,F_129.jpg,1643048188.89131,1643048188.90404,233.683920612335,7.08798241615295,240.786568870544,242.887353172302,0.3,250.556879272461,0.750279664993286,251.316014995575,1,left,0.734776973724365,251.307158937454,604.472194662094,607.232194662094,1643048425.33523,1643048425.33674,1643048432.43787,1643048432.44003,1643048434.53866,1643048442.20819,1643048442.20995,1643048442.96732,1643048442.95846,1643048796.1235,1
99,4,1,3,15,1,4,c4_HowHand,1,both hands?,123,H_167.jpg,1643048188.89131,1643048188.90404,251.390522232056,8.17144393920898,259.576909770966,261.677692642212,2.10078287124634,261.827748765945,1.13375544548035,262.965990056992,1,left,1.12230396270752,262.961504211426,604.472194662094,607.232194662094,1643048443.04183,1643048443.04346,1643048451.22822,1643048451.2347,1643048453.329,1643048453.47905,1643048453.48093,1643048454.6173,1643048454.61281,1643048796.1235,1
99,4,1,3,15,2,4,c4_HowHand,2,both hands?,121,H_091.jpg,1643048188.89131,1643048188.90404,251.390522232056,8.17144393920898,259.576909770966,261.677692642212,0.3,263.278290023804,0.850317001342773,264.132706155777,3,right,0.839813947677612,264.128607025146,604.472194662094,607.232194662094,1643048443.04183,1643048443.04346,1643048451.22822,1643048451.2347,1643048453.329,1643048454.9296,1643048454.93116,1643048455.78401,1643048455.77991,1643048796.1235,0
99,4,1,3,15,3,4,c4_HowHand,2,both hands?,125,H_627.jpg,1643048188.89131,1643048188.90404,251.390522232056,8.17144393920898,259.576909770966,261.677692642212,0.3,264.445389976501,0.833645582199097,265.28255604744,3,right,0.824873924255371,265.279035558701,604.472194662094,607.232194662094,1643048443.04183,1643048443.04346,1643048451.22822,1643048451.2347,1643048453.329,1643048456.0967,1643048456.10067,1643048456.93386,1643048456.93034,1643048796.1235,0
99,4,1,3,15,4,4,c4_HowHand,1,both hands?,128,H_027.jpg,1643048188.89131,1643048188.90404,251.390522232056,8.17144393920898,259.576909770966,261.677692642212,0.3,265.595820417404,0.800298690795898,266.399471035004,1,left,0.780853986740112,266.3961191082,604.472194662094,607.232194662094,1643048443.04183,1643048443.04346,1643048451.22822,1643048451.2347,1643048453.329,1643048457.24713,1643048457.25135,1643048458.05078,1643048458.04743,1643048796.1235,1
99,4,1,3,15,5,4,c4_HowHand,1,both hands?,122,H_111.jpg,1643048188.89131,1643048188.90404,251.390522232056,8.17144393920898,259.576909770966,261.677692642212,0.3,266.712903728485,0.983700513839722,267.699848165512,1,left,0.971356868743896,267.696604242325,604.472194662094,607.232194662094,1643048443.04183,1643048443.04346,1643048451.22822,1643048451.2347,1643048453.329,1643048458.36421,1643048458.36769,1643048459.35115,1643048459.34791,1643048796.1235,1
99,4,1,3,15,6,4,c4_HowHand,2,both hands?,126,H_159.jpg,1643048188.89131,1643048188.90404,251.390522232056,8.17144393920898,259.576909770966,261.677692642212,0.3,268.01338886261,0.850317001342773,268.866000165939,3,right,0.826771020889282,268.863705863953,604.472194662094,607.232194662094,1643048443.04183,1643048443.04346,1643048451.22822,1643048451.2347,1643048453.329,1643048459.66469,1643048459.66793,1643048460.51731,1643048460.51501,1643048796.1235,0
99,4,1,3,15,7,4,c4_HowHand,1,both hands?,124,H_581.jpg,1643048188.89131,1643048188.90404,251.390522232056,8.17144393920898,259.576909770966,261.677692642212,0.3,269.180490961075,0.933681488037109,270.116003026962,1,left,0.917518854141235,270.114172449112,604.472194662094,607.232194662094,1643048443.04183,1643048443.04346,1643048451.22822,1643048451.2347,1643048453.329,1643048460.8318,1643048460.83394,1643048461.76731,1643048461.76548,1643048796.1235,1
99,4,1,3,15,8,4,c4_HowHand,1,both hands?,127,H_349.jpg,1643048188.89131,1643048188.90404,251.390522232056,8.17144393920898,259.576909770966,261.677692642212,0.3,270.430957784653,0.816970825195312,271.249677171707,1,left,0.799077987670898,271.247928609848,604.472194662094,607.232194662094,1643048443.04183,1643048443.04346,1643048451.22822,1643048451.2347,1643048453.329,1643048462.08226,1643048462.08453,1643048462.90098,1643048462.89923,1643048796.1235,1
99,4,1,3,16,1,2,c2_WhyHand,1,self-protection?,89,H_443.jpg,1643048188.89131,1643048188.90404,271.331292858124,7.0206151008606,278.367249717712,280.46803401947,2.10078430175781,280.618089904785,0.833643674850464,281.453109016418,1,left,0.8123619556427,281.451733579636,604.472194662094,607.232194662094,1643048462.9826,1643048462.98404,1643048470.01856,1643048470.02024,1643048472.11934,1643048472.2694,1643048472.27143,1643048473.10441,1643048473.10304,1643048796.1235,1
99,4,1,3,16,2,2,c2_WhyHand,2,self-protection?,90,H_006.jpg,1643048188.89131,1643048188.90404,271.331292858124,7.0206151008606,278.367249717712,280.46803401947,0.3,281.768518915176,1.03371858596802,282.816711177826,3,right,1.02599596977234,282.802237501144,604.472194662094,607.232194662094,1643048462.9826,1643048462.98404,1643048470.01856,1643048470.02024,1643048472.11934,1643048473.41982,1643048473.42167,1643048474.46802,1643048474.45354,1643048796.1235,0
99,4,1,3,16,3,2,c2_WhyHand,1,self-protection?,91,H_581.jpg,1643048188.89131,1643048188.90404,271.331292858124,7.0206151008606,278.367249717712,280.46803401947,0.3,283.119021883011,0.766952991485596,283.887030115128,1,left,0.745162010192871,283.885974874496,604.472194662094,607.232194662094,1643048462.9826,1643048462.98404,1643048470.01856,1643048470.02024,1643048472.11934,1643048474.77033,1643048474.77259,1643048475.53834,1643048475.53728,1643048796.1235,1
99,4,1,3,16,4,2,c2_WhyHand,2,self-protection?,92,H_532.jpg,1643048188.89131,1643048188.90404,271.331292858124,7.0206151008606,278.367249717712,280.46803401947,0.3,284.202759971619,0.917008399963379,285.120833148956,3,right,0.904622793197632,285.119768371582,604.472194662094,607.232194662094,1643048462.9826,1643048462.98404,1643048470.01856,1643048470.02024,1643048472.11934,1643048475.85407,1643048475.85569,1643048476.77214,1643048476.77107,1643048796.1235,0
99,4,1,3,16,5,2,c2_WhyHand,1,self-protection?,96,H_027.jpg,1643048188.89131,1643048188.90404,271.331292858124,7.0206151008606,278.367249717712,280.46803401947,0.3,285.436553468704,1.1504282951355,286.588773002625,1,left,1.12729692459106,286.58698176384,604.472194662094,607.232194662094,1643048462.9826,1643048462.98404,1643048470.01856,1643048470.02024,1643048472.11934,1643048477.08786,1643048477.08994,1643048478.24008,1643048478.23829,1643048796.1235,1
99,4,1,3,16,6,2,c2_WhyHand,1,self-protection?,93,H_038.jpg,1643048188.89131,1643048188.90404,271.331292858124,7.0206151008606,278.367249717712,280.46803401947,0.3,286.903766384125,0.866990327835083,287.771780004501,1,left,0.854039907455444,287.77075671196,604.472194662094,607.232194662094,1643048462.9826,1643048462.98404,1643048470.01856,1643048470.02024,1643048472.11934,1643048478.55507,1643048478.55676,1643048479.42309,1643048479.42206,1643048796.1235,1
99,4,1,3,16,7,2,c2_WhyHand,2,self-protection?,95,H_332.jpg,1643048188.89131,1643048188.90404,271.331292858124,7.0206151008606,278.367249717712,280.46803401947,0.3,288.087541570663,0.733607530593872,288.82224606514,3,right,0.719133853912354,288.821149101257,604.472194662094,607.232194662094,1643048462.9826,1643048462.98404,1643048470.01856,1643048470.02024,1643048472.11934,1643048479.73885,1643048479.74043,1643048480.47355,1643048480.47246,1643048796.1235,0
99,4,1,3,16,8,2,c2_WhyHand,1,self-protection?,94,H_189.jpg,1643048188.89131,1643048188.90404,271.331292858124,7.0206151008606,278.367249717712,280.46803401947,0.3,289.137933244705,1.3671760559082,290.51675819397,1,left,1.35575604438782,290.505109300613,604.472194662094,607.232194662094,1643048462.9826,1643048462.98404,1643048470.01856,1643048470.02024,1643048472.11934,1643048480.78924,1643048480.79092,1643048482.16806,1643048482.15642,1643048796.1235,1
99,4,1,3,17,1,3,c3_HowFace,1,smiling?,118,F_759.jpg,1643048188.89131,1643048188.90404,290.605146636963,9.22692847251892,299.841926088333,301.942708244324,2.1007821559906,302.092764844894,0.733606576919556,302.83276509285,1,left,0.710482120513916,302.826371421814,604.472194662094,607.232194662094,1643048482.25645,1643048482.25834,1643048491.49323,1643048491.50174,1643048493.59401,1643048493.74407,1643048493.75156,1643048494.48407,1643048494.47768,1643048796.1235,1
99,4,1,3,17,2,3,c3_HowFace,2,smiling?,114,F_412.jpg,1643048188.89131,1643048188.90404,290.605146636963,9.22692847251892,299.841926088333,301.942708244324,0.3,303.14315580368,0.750280857086182,303.899450054169,3,right,0.733716011047363,303.893436660767,604.472194662094,607.232194662094,1643048482.25645,1643048482.25834,1643048491.49323,1643048491.50174,1643048493.59401,1643048494.79446,1643048494.79634,1643048495.55076,1643048495.54474,1643048796.1235,0
99,4,1,3,17,3,3,c3_HowFace,1,smiling?,117,F_593.jpg,1643048188.89131,1643048188.90404,290.605146636963,9.22692847251892,299.841926088333,301.942708244324,0.3,304.210220804214,0.683588981628418,304.899729957581,1,left,0.676687955856323,304.893809785843,604.472194662094,607.232194662094,1643048482.25645,1643048482.25834,1643048491.49323,1643048491.50174,1643048493.59401,1643048495.86153,1643048495.86325,1643048496.55104,1643048496.54512,1643048796.1235,1
99,4,1,3,17,4,3,c3_HowFace,2,smiling?,113,F_712.jpg,1643048188.89131,1643048188.90404,290.605146636963,9.22692847251892,299.841926088333,301.942708244324,0.3,305.210593929291,0.0166728496551514,305.233041992188,1,left,0.000233888626098633,305.227266778946,604.472194662094,607.232194662094,1643048482.25645,1643048482.25834,1643048491.49323,1643048491.50174,1643048493.59401,1643048496.8619,1643048496.86346,1643048496.88435,1643048496.87857,1643048796.1235,0
99,4,1,3,17,5,3,c3_HowFace,1,smiling?,115,F_695.jpg,1643048188.89131,1643048188.90404,290.605146636963,9.22692847251892,299.841926088333,301.942708244324,0.3,305.544052114487,1.08373641967773,306.629290094376,1,left,1.06164598464966,306.627788534164,604.472194662094,607.232194662094,1643048482.25645,1643048482.25834,1643048491.49323,1643048491.50174,1643048493.59401,1643048497.19536,1643048497.19719,1643048498.2806,1643048498.27909,1643048796.1235,1
99,4,1,3,17,6,3,c3_HowFace,1,smiling?,119,F_139.jpg,1643048188.89131,1643048188.90404,290.605146636963,9.22692847251892,299.841926088333,301.942708244324,0.3,306.944571723938,0.967030048370361,307.916023960114,1,left,0.955578088760376,307.911601772308,604.472194662094,607.232194662094,1643048482.25645,1643048482.25834,1643048491.49323,1643048491.50174,1643048493.59401,1643048498.59588,1643048498.59732,1643048499.56733,1643048499.56291,1643048796.1235,1
99,4,1,3,17,7,3,c3_HowFace,1,smiling?,116,F_083.jpg,1643048188.89131,1643048188.90404,290.605146636963,9.22692847251892,299.841926088333,301.942708244324,0.3,308.228385438919,0.650242805480957,308.883460035324,1,left,0.629220962524414,308.8786282444,604.472194662094,607.232194662094,1643048482.25645,1643048482.25834,1643048491.49323,1643048491.50174,1643048493.59401,1643048499.87969,1643048499.88109,1643048500.53477,1643048500.52993,1643048796.1235,1
99,4,1,3,17,8,3,c3_HowFace,2,smiling?,120,F_758.jpg,1643048188.89131,1643048188.90404,290.605146636963,9.22692847251892,299.841926088333,301.942708244324,0.3,309.195413818359,0.733606576919556,309.933394184113,3,right,0.71409797668457,309.929020395279,604.472194662094,607.232194662094,1643048482.25645,1643048482.25834,1643048491.49323,1643048491.50174,1643048493.59401,1643048500.84672,1643048500.8514,1643048501.5847,1643048501.58033,1643048796.1235,0
99,4,1,3,18,1,1,c1_WhyFace,1,admiring?,1,F_593.jpg,1643048188.89131,1643048188.90404,310.012384643555,7.60960650444031,317.631892671585,319.732676496506,2.10078382492065,319.882732381821,0.816970825195312,320.700788011551,1,left,0.801085948944092,320.699703207016,604.472194662094,607.232194662094,1643048501.66369,1643048501.66804,1643048509.2832,1643048509.28517,1643048511.38398,1643048511.53404,1643048511.5359,1643048512.35209,1643048512.35101,1643048796.1235,1
99,4,1,3,18,2,1,c1_WhyFace,2,admiring?,2,F_129.jpg,1643048188.89131,1643048188.90404,310.012384643555,7.60960650444031,317.631892671585,319.732676496506,0.3,321.016489019394,1.10040950775146,322.118009080887,3,right,1.08061099052429,322.116898527145,604.472194662094,607.232194662094,1643048501.66369,1643048501.66804,1643048509.2832,1643048509.28517,1643048511.38398,1643048512.66779,1643048512.66924,1643048513.76932,1643048513.7682,1643048796.1235,0
99,4,1,3,18,3,1,c1_WhyFace,1,admiring?,5,F_759.jpg,1643048188.89131,1643048188.90404,310.012384643555,7.60960650444031,317.631892671585,319.732676496506,0.3,322.433683624268,0.950354099273682,323.3859441185,1,left,0.925535917282104,323.384037723541,604.472194662094,607.232194662094,1643048501.66369,1643048501.66804,1643048509.2832,1643048509.28517,1643048511.38398,1643048514.08499,1643048514.08656,1643048515.03725,1643048515.03534,1643048796.1235,1
99,4,1,3,18,4,1,c1_WhyFace,2,admiring?,6,F_692.jpg,1643048188.89131,1643048188.90404,310.012384643555,7.60960650444031,317.631892671585,319.732676496506,0.3,323.700823297501,0.983699560165405,324.685572137833,3,right,0.962615013122559,324.684522857666,604.472194662094,607.232194662094,1643048501.66369,1643048501.66804,1643048509.2832,1643048509.28517,1643048511.38398,1643048515.35213,1643048515.35432,1643048516.33688,1643048516.33583,1643048796.1235,0
99,4,1,3,18,5,1,c1_WhyFace,1,admiring?,4,F_779.jpg,1643048188.89131,1643048188.90404,310.012384643555,7.60960650444031,317.631892671585,319.732676496506,0.3,325.00130771637,0.700261354446411,325.703181972504,1,left,0.682163000106812,325.701569070816,604.472194662094,607.232194662094,1643048501.66369,1643048501.66804,1643048509.2832,1643048509.28517,1643048511.38398,1643048516.65261,1643048516.65412,1643048517.35449,1643048517.35287,1643048796.1235,1
99,4,1,3,18,6,1,c1_WhyFace,1,admiring?,8,F_590.jpg,1643048188.89131,1643048188.90404,310.012384643555,7.60960650444031,317.631892671585,319.732676496506,0.3,326.018353691101,0.716934204101562,326.736410131454,1,left,0.695916891098022,326.735287895203,604.472194662094,607.232194662094,1643048501.66369,1643048501.66804,1643048509.2832,1643048509.28517,1643048511.38398,1643048517.66966,1643048517.67231,1643048518.38772,1643048518.38659,1643048796.1235,1
99,4,1,3,18,7,1,c1_WhyFace,1,admiring?,7,F_648.jpg,1643048188.89131,1643048188.90404,310.012384643555,7.60960650444031,317.631892671585,319.732676496506,0.3,327.052072992325,0.683587789535522,327.749850978851,1,left,0.676321029663086,327.73566078186,604.472194662094,607.232194662094,1643048501.66369,1643048501.66804,1643048509.2832,1643048509.28517,1643048511.38398,1643048518.70338,1643048518.70502,1643048519.40116,1643048519.38697,1643048796.1235,1
99,4,1,3,18,8,1,c1_WhyFace,2,admiring?,3,F_110.jpg,1643048188.89131,1643048188.90404,310.012384643555,7.60960650444031,317.631892671585,319.732676496506,0.3,328.052446117401,0.766952753067017,328.833024015427,3,right,0.759365081787109,328.819398870468,604.472194662094,607.232194662094,1643048501.66369,1643048501.66804,1643048509.2832,1643048509.28517,1643048511.38398,1643048519.70375,1643048519.70523,1643048520.48433,1643048520.4707,1643048796.1235,0
99,4,1,3,19,1,2,c2_WhyHand,1,competing?,9,H_261.jpg,1643048188.89131,1643048188.90404,328.919435968399,6.5924961566925,335.521897306442,337.622680416107,2.10078310966492,337.772736778259,0.766952514648438,338.54979013443,1,left,0.755157947540283,338.539689292908,604.472194662094,607.232194662094,1643048520.57074,1643048520.57217,1643048527.1732,1643048527.18442,1643048529.27399,1643048529.42404,1643048529.42588,1643048530.2011,1643048530.191,1643048796.1235,1
99,4,1,3,19,2,2,c2_WhyHand,1,competing?,15,H_170.jpg,1643048188.89131,1643048188.90404,328.919435968399,6.5924961566925,335.521897306442,337.622680416107,0.3,338.856474866867,0.633570432662964,339.491152992249,1,left,0.61683201789856,339.49004529953,604.472194662094,607.232194662094,1643048520.57074,1643048520.57217,1643048527.1732,1643048527.18442,1643048529.27399,1643048530.50778,1643048530.50937,1643048531.14246,1643048531.14135,1643048796.1235,1
99,4,1,3,19,3,2,c2_WhyHand,2,competing?,12,H_483.jpg,1643048188.89131,1643048188.90404,328.919435968399,6.5924961566925,335.521897306442,337.622680416107,0.3,339.806828489304,0.800299167633057,340.616641988754,3,right,0.785224914550781,340.607127656937,604.472194662094,607.232194662094,1643048520.57074,1643048520.57217,1643048527.1732,1643048527.18442,1643048529.27399,1643048531.45813,1643048531.45993,1643048532.26795,1643048532.25843,1643048796.1235,0
99,4,1,3,19,4,2,c2_WhyHand,1,competing?,14,H_132.jpg,1643048188.89131,1643048188.90404,328.919435968399,6.5924961566925,335.521897306442,337.622680416107,0.3,340.923912992477,0.0166726112365723,340.95008014679,3,right,0.000335931777954102,340.940585603714,604.472194662094,607.232194662094,1643048520.57074,1643048520.57217,1643048527.1732,1643048527.18442,1643048529.27399,1643048532.57522,1643048532.57691,1643048532.60139,1643048532.59189,1643048796.1235,0
99,4,1,3,19,5,2,c2_WhyHand,1,competing?,16,H_136.jpg,1643048188.89131,1643048188.90404,328.919435968399,6.5924961566925,335.521897306442,337.622680416107,0.3,341.257370939255,1.35050249099731,342.616616001129,1,left,1.34067106246948,342.607873430252,604.472194662094,607.232194662094,1643048520.57074,1643048520.57217,1643048527.1732,1643048527.18442,1643048529.27399,1643048532.90868,1643048532.91065,1643048534.26792,1643048534.25918,1643048796.1235,1
99,4,1,3,19,6,2,c2_WhyHand,1,competing?,13,H_003.jpg,1643048188.89131,1643048188.90404,328.919435968399,6.5924961566925,335.521897306442,337.622680416107,0.3,342.924659004211,0.850316047668457,343.782700052261,1,left,0.841226100921631,343.77497505188,604.472194662094,607.232194662094,1643048520.57074,1643048520.57217,1643048527.1732,1643048527.18442,1643048529.27399,1643048534.57596,1643048534.57755,1643048535.43401,1643048535.42628,1643048796.1235,1
99,4,1,3,19,7,2,c2_WhyHand,2,competing?,10,H_126.jpg,1643048188.89131,1643048188.90404,328.919435968399,6.5924961566925,335.521897306442,337.622680416107,0.3,344.091760625839,1.23379349708557,345.332689037323,3,right,1.21795797348022,345.325554122925,604.472194662094,607.232194662094,1643048520.57074,1643048520.57217,1643048527.1732,1643048527.18442,1643048529.27399,1643048535.74307,1643048535.74477,1643048536.98399,1643048536.97686,1643048796.1235,0
99,4,1,3,19,8,2,c2_WhyHand,2,competing?,11,H_502.jpg,1643048188.89131,1643048188.90404,328.919435968399,6.5924961566925,335.521897306442,337.622680416107,0.3,345.642338266373,0.967027187347412,346.611142148972,3,right,0.949176073074341,346.60936545372,604.472194662094,607.232194662094,1643048520.57074,1643048520.57217,1643048527.1732,1643048527.18442,1643048529.27399,1643048537.29364,1643048537.29486,1643048538.26245,1643048538.26067,1643048796.1235,0
99,4,1,3,20,1,4,c4_HowHand,1,reaching?,111,H_003.jpg,1643048188.89131,1643048188.90404,346.676056613922,10.3159303665161,356.99657248497,359.097356548309,2.10078406333923,359.247412910461,0.666914939880371,359.916017999649,1,left,0.648537874221802,359.914327850342,604.472194662094,607.232194662094,1643048538.32736,1643048538.33461,1643048548.64788,1643048548.65151,1643048550.74866,1643048550.89872,1643048550.90151,1643048551.56732,1643048551.56563,1643048796.1235,1
99,4,1,3,20,2,4,c4_HowHand,1,reaching?,110,H_364.jpg,1643048188.89131,1643048188.90404,346.676056613922,10.3159303665161,356.99657248497,359.097356548309,0.3,360.231111755371,0.917009115219116,361.149638166428,1,left,0.908619165420532,361.14812087059,604.472194662094,607.232194662094,1643048538.32736,1643048538.33461,1643048548.64788,1643048548.65151,1643048550.74866,1643048551.88242,1643048551.88395,1643048552.80094,1643048552.79943,1643048796.1235,1
99,4,1,3,20,3,4,c4_HowHand,2,reaching?,108,H_532.jpg,1643048188.89131,1643048188.90404,346.676056613922,10.3159303665161,356.99657248497,359.097356548309,0.3,361.464905490875,0.850317478179932,362.316228141785,3,right,0.842806100845337,362.315222969055,604.472194662094,607.232194662094,1643048538.32736,1643048538.33461,1643048548.64788,1643048548.65151,1643048550.74866,1643048553.11621,1643048553.11811,1643048553.96753,1643048553.96653,1643048796.1235,0
99,4,1,3,20,4,4,c4_HowHand,1,reaching?,106,H_006.jpg,1643048188.89131,1643048188.90404,346.676056613922,10.3159303665161,356.99657248497,359.097356548309,0.3,362.63200758934,0.800297975540161,363.43341802597,1,left,0.778982877731323,363.43230556488,604.472194662094,607.232194662094,1643048538.32736,1643048538.33461,1643048548.64788,1643048548.65151,1643048550.74866,1643048554.28331,1643048554.28495,1643048555.08472,1643048555.08361,1643048796.1235,1
99,4,1,3,20,5,4,c4_HowHand,2,reaching?,105,H_438.jpg,1643048188.89131,1643048188.90404,346.676056613922,10.3159303665161,356.99657248497,359.097356548309,0.3,363.749092330933,1.71730661392212,365.472246160507,3,right,1.70249695777893,365.466398944855,604.472194662094,607.232194662094,1643048538.32736,1643048538.33461,1643048548.64788,1643048548.65151,1643048550.74866,1643048555.4004,1643048555.40202,1643048557.12355,1643048557.1177,1643048796.1235,0
99,4,1,3,20,6,4,c4_HowHand,1,reaching?,107,H_007.jpg,1643048188.89131,1643048188.90404,346.676056613922,10.3159303665161,356.99657248497,359.097356548309,0.3,365.783183326721,0.917008399963379,366.701290121079,1,left,0.900148153305054,366.700191726685,604.472194662094,607.232194662094,1643048538.32736,1643048538.33461,1643048548.64788,1643048548.65151,1643048550.74866,1643048557.43449,1643048557.43549,1643048558.3526,1643048558.3515,1643048796.1235,1
99,4,1,3,20,7,4,c4_HowHand,1,reaching?,109,H_474.jpg,1643048188.89131,1643048188.90404,346.676056613922,10.3159303665161,356.99657248497,359.097356548309,0.3,367.01697634697,0.95035457611084,367.969046106339,1,left,0.935409069061279,367.96733092308,604.472194662094,607.232194662094,1643048538.32736,1643048538.33461,1643048548.64788,1643048548.65151,1643048550.74866,1643048558.66828,1643048558.66923,1643048559.62035,1643048559.61864,1643048796.1235,1
99,4,1,3,20,8,4,c4_HowHand,2,reaching?,112,H_132.jpg,1643048188.89131,1643048188.90404,346.676056613922,10.3159303665161,356.99657248497,359.097356548309,0.3,368.284115781784,1.20044684410095,369.486325969696,3,right,1.18359184265137,369.484562625885,604.472194662094,607.232194662094,1643048538.32736,1643048538.33461,1643048548.64788,1643048548.65151,1643048550.74866,1643048559.93542,1643048559.93707,1643048561.13763,1643048561.13587,1643048796.1235,0
99,4,1,3,21,1,3,c3_HowFace,1,open mouth?,73,F_403.jpg,1643048188.89131,1643048188.90404,369.567927589417,5.2640745639801,374.836558332443,376.93734287262,2.10078454017639,377.087399234772,0.866989374160767,377.966293087006,1,left,0.846374034881592,377.954388608933,604.472194662094,607.232194662094,1643048561.21923,1643048561.22022,1643048566.48786,1643048566.5014,1643048568.58865,1643048568.73871,1643048568.75171,1643048569.6176,1643048569.60569,1643048796.1235,1
99,4,1,3,21,2,3,c3_HowFace,2,open mouth?,79,F_648.jpg,1643048188.89131,1643048188.90404,369.567927589417,5.2640745639801,374.836558332443,376.93734287262,0.3,378.271172275543,0.833645105361938,379.116397132874,3,right,0.8231041431427,379.104817380905,604.472194662094,607.232194662094,1643048561.21923,1643048561.22022,1643048566.48786,1643048566.5014,1643048568.58865,1643048569.92248,1643048569.92422,1643048570.7677,1643048570.75612,1643048796.1235,0
99,4,1,3,21,3,3,c3_HowFace,1,open mouth?,74,F_776.jpg,1643048188.89131,1643048188.90404,369.567927589417,5.2640745639801,374.836558332443,376.93734287262,0.3,379.421602239609,0.683588743209839,380.106348028183,1,left,0.668556213378906,380.105190982819,604.472194662094,607.232194662094,1643048561.21923,1643048561.22022,1643048566.48786,1643048566.5014,1643048568.58865,1643048571.07291,1643048571.07452,1643048571.75765,1643048571.7565,1643048796.1235,1
99,4,1,3,21,4,3,c3_HowFace,2,open mouth?,77,F_584.jpg,1643048188.89131,1643048188.90404,369.567927589417,5.2640745639801,374.836558332443,376.93734287262,0.3,380.421975364685,1.03371930122375,381.466016998291,3,right,1.02417206764221,381.455694665909,604.472194662094,607.232194662094,1643048561.21923,1643048561.22022,1643048566.48786,1643048566.5014,1643048568.58865,1643048572.07328,1643048572.07516,1643048573.11732,1643048573.107,1643048796.1235,0
99,4,1,3,21,5,3,c3_HowFace,1,open mouth?,80,F_844.jpg,1643048188.89131,1643048188.90404,369.567927589417,5.2640745639801,374.836558332443,376.93734287262,0.3,381.772479286194,0.70026159286499,382.474503030777,1,left,0.681490898132324,382.472740879059,604.472194662094,607.232194662094,1643048561.21923,1643048561.22022,1643048566.48786,1643048566.5014,1643048568.58865,1643048573.42379,1643048573.42507,1643048574.12581,1643048574.12405,1643048796.1235,1
99,4,1,3,21,6,3,c3_HowFace,1,open mouth?,78,F_692.jpg,1643048188.89131,1643048188.90404,369.567927589417,5.2640745639801,374.836558332443,376.93734287262,0.3,382.789525022507,0.866990327835083,383.657728185654,1,left,0.84589695930481,383.656515350342,604.472194662094,607.232194662094,1643048561.21923,1643048561.22022,1643048566.48786,1643048566.5014,1643048568.58865,1643048574.44083,1643048574.44247,1643048575.30903,1643048575.30782,1643048796.1235,1
99,4,1,3,21,7,3,c3_HowFace,1,open mouth?,75,F_086.jpg,1643048188.89131,1643048188.90404,369.567927589417,5.2640745639801,374.836558332443,376.93734287262,0.3,383.973299732208,0.800298929214478,384.783394088745,1,left,0.787896156311035,384.773598661423,604.472194662094,607.232194662094,1643048561.21923,1643048561.22022,1643048566.48786,1643048566.5014,1643048568.58865,1643048575.62461,1643048575.62604,1643048576.4347,1643048576.4249,1643048796.1235,1
99,4,1,3,21,8,3,c3_HowFace,2,open mouth?,76,F_544.jpg,1643048188.89131,1643048188.90404,369.567927589417,5.2640745639801,374.836558332443,376.93734287262,0.3,385.090382804871,0.866989850997925,385.966369142532,3,right,0.856921911239624,385.957372655869,604.472194662094,607.232194662094,1643048561.21923,1643048561.22022,1643048566.48786,1643048566.5014,1643048568.58865,1643048576.74169,1643048576.74341,1643048577.61768,1643048577.60868,1643048796.1235,0
99,4,1,3,22,1,1,c1_WhyFace,1,argument?,42,F_403.jpg,1643048188.89131,1643048188.90404,386.040738096237,7.46724605560303,393.526862611771,395.610973110199,2.08411049842834,395.761029233933,1.1004102230072,396.863188972473,1,left,1.07551693916321,396.86143945694,604.472194662094,607.232194662094,1643048577.69204,1643048577.70123,1643048585.17817,1643048585.17992,1643048587.26228,1643048587.41234,1643048587.41781,1643048588.51449,1643048588.51275,1643048796.1235,1
99,4,1,3,22,2,1,c1_WhyFace,2,argument?,46,F_844.jpg,1643048188.89131,1643048188.90404,386.040738096237,7.46724605560303,393.526862611771,395.610973110199,0.3,397.17822479248,0.0166714191436768,397.200075139999,1,left,0.00033879280090332,397.194896211624,604.472194662094,607.232194662094,1643048577.69204,1643048577.70123,1643048585.17817,1643048585.17992,1643048587.26228,1643048588.82953,1643048588.83139,1643048588.85138,1643048588.8462,1643048796.1235,0
99,4,1,3,22,3,1,c1_WhyFace,1,argument?,41,F_712.jpg,1643048188.89131,1643048188.90404,386.040738096237,7.46724605560303,393.526862611771,395.610973110199,0.3,397.511682500839,1.7173068523407,NaN,0,NA,0,399.22898935318,604.472194662094,607.232194662094,1643048577.69204,1643048577.70123,1643048585.17817,1643048585.17992,1643048587.26228,1643048589.16299,1643048589.1685,NaN,1643048590.8803,1643048796.1235,0
99,4,1,3,22,4,1,c1_WhyFace,1,argument?,48,F_758.jpg,1643048188.89131,1643048188.90404,386.040738096237,7.46724605560303,393.526862611771,395.610973110199,0.3,399.545773496628,1.0170464515686,400.566546192169,1,left,0.997043132781982,400.562819948196,604.472194662094,607.232194662094,1643048577.69204,1643048577.70123,1643048585.17817,1643048585.17992,1643048587.26228,1643048591.19708,1643048591.20114,1643048592.21785,1643048592.21413,1643048796.1235,1
99,4,1,3,22,5,1,c1_WhyFace,2,argument?,45,F_433.jpg,1643048188.89131,1643048188.90404,386.040738096237,7.46724605560303,393.526862611771,395.610973110199,0.3,400.879604568481,0.78362512588501,401.664254179001,3,right,0.759378910064697,401.663229694366,604.472194662094,607.232194662094,1643048577.69204,1643048577.70123,1643048585.17817,1643048585.17992,1643048587.26228,1643048592.53091,1643048592.53451,1643048593.31556,1643048593.31454,1643048796.1235,0
99,4,1,3,22,6,1,c1_WhyFace,1,argument?,43,F_716.jpg,1643048188.89131,1643048188.90404,386.040738096237,7.46724605560303,393.526862611771,395.610973110199,0.3,401.98001455307,0.766952753067017,402.749695053101,3,right,0.748345136642456,402.746967306137,604.472194662094,607.232194662094,1643048577.69204,1643048577.70123,1643048585.17817,1643048585.17992,1643048587.26228,1643048593.63132,1643048593.63466,1643048594.401,1643048594.39827,1643048796.1235,0
99,4,1,3,22,7,1,c1_WhyFace,2,argument?,44,F_139.jpg,1643048188.89131,1643048188.90404,386.040738096237,7.46724605560303,393.526862611771,395.610973110199,0.3,403.063751926422,1.11708354949951,404.182720174789,3,right,1.09679913520813,404.180835475922,604.472194662094,607.232194662094,1643048577.69204,1643048577.70123,1643048585.17817,1643048585.17992,1643048587.26228,1643048594.71506,1643048594.71793,1643048595.83403,1643048595.83214,1643048796.1235,0
99,4,1,3,22,8,1,c1_WhyFace,1,argument?,47,F_743.jpg,1643048188.89131,1643048188.90404,386.040738096237,7.46724605560303,393.526862611771,395.610973110199,0.3,404.497620811462,0.716933727264404,405.215960016251,1,left,0.708309888839722,405.214554538727,604.472194662094,607.232194662094,1643048577.69204,1643048577.70123,1643048585.17817,1643048585.17992,1643048587.26228,1643048596.14893,1643048596.15132,1643048596.86727,1643048596.86586,1643048796.1235,1
99,4,1,3,23,1,2,c2_WhyHand,1,helping?,39,H_024.jpg,1643048188.89131,1643048188.90404,405.281245698929,6.44676733016968,411.733652820587,413.834435453415,2.10078263282776,413.984491815567,1.71730661392212,NaN,0,NA,0,415.701798429489,604.472194662094,607.232194662094,1643048596.93255,1643048596.93387,1643048603.38496,1643048603.38712,1643048605.48574,1643048605.6358,1643048605.63759,NaN,1643048607.3531,1643048796.1235,0
99,4,1,3,23,2,2,c2_WhyHand,1,helping?,36,H_349.jpg,1643048188.89131,1643048188.90404,405.281245698929,6.44676733016968,411.733652820587,413.834435453415,0.3,416.018583526611,0.883663177490234,416.903448095322,1,left,0.863954067230225,416.902246704102,604.472194662094,607.232194662094,1643048596.93255,1643048596.93387,1643048603.38496,1643048603.38712,1643048605.48574,1643048607.66989,1643048607.6714,1643048608.55475,1643048608.55355,1643048796.1235,1
99,4,1,3,23,3,2,c2_WhyHand,1,helping?,38,H_077.jpg,1643048188.89131,1643048188.90404,405.281245698929,6.44676733016968,411.733652820587,413.834435453415,0.3,417.219031801224,0.983700513839722,418.216387023926,1,left,0.972968101501465,418.202732315063,604.472194662094,607.232194662094,1643048596.93255,1643048596.93387,1643048603.38496,1643048603.38712,1643048605.48574,1643048608.87034,1643048608.87204,1643048609.86769,1643048609.85404,1643048796.1235,1
99,4,1,3,23,4,2,c2_WhyHand,1,helping?,37,H_474.jpg,1643048188.89131,1643048188.90404,405.281245698929,6.44676733016968,411.733652820587,413.834435453415,0.3,418.519516458511,0.78362512588501,419.316110124588,1,left,0.772130012512207,419.303141584396,604.472194662094,607.232194662094,1643048596.93255,1643048596.93387,1643048603.38496,1643048603.38712,1643048605.48574,1643048610.17082,1643048610.17264,1643048610.96742,1643048610.95445,1643048796.1235,1
99,4,1,3,23,5,2,c2_WhyHand,2,helping?,33,H_091.jpg,1643048188.89131,1643048188.90404,405.281245698929,6.44676733016968,411.733652820587,413.834435453415,0.3,419.619926919937,0.850317239761353,420.483448972702,3,right,0.838808059692383,420.470244159698,604.472194662094,607.232194662094,1643048596.93255,1643048596.93387,1643048603.38496,1643048603.38712,1643048605.48574,1643048611.27123,1643048611.27278,1643048612.13475,1643048612.12155,1643048796.1235,0
99,4,1,3,23,6,2,c2_WhyHand,2,helping?,35,H_159.jpg,1643048188.89131,1643048188.90404,405.281245698929,6.44676733016968,411.733652820587,413.834435453415,0.3,420.787028779984,0.900335311889648,421.69942401886,3,right,0.889872074127197,421.687364091873,604.472194662094,607.232194662094,1643048596.93255,1643048596.93387,1643048603.38496,1643048603.38712,1643048605.48574,1643048612.43833,1643048612.44026,1643048613.35073,1643048613.33867,1643048796.1235,0
99,4,1,3,23,7,2,c2_WhyHand,1,helping?,34,H_111.jpg,1643048188.89131,1643048188.90404,405.281245698929,6.44676733016968,411.733652820587,413.834435453415,0.3,422.00414847374,0.833645105361938,422.839147081375,1,left,0.814085006713867,422.837793579102,604.472194662094,607.232194662094,1643048596.93255,1643048596.93387,1643048603.38496,1643048603.38712,1643048605.48574,1643048613.65545,1643048613.65702,1643048614.49045,1643048614.4891,1643048796.1235,1
99,4,1,3,23,8,2,c2_WhyHand,2,helping?,40,H_012.jpg,1643048188.89131,1643048188.90404,405.281245698929,6.44676733016968,411.733652820587,413.834435453415,0.3,423.154577722549,0.883662462234497,424.039888134003,3,right,0.866889953613281,424.038240184784,604.472194662094,607.232194662094,1643048596.93255,1643048596.93387,1643048603.38496,1643048603.38712,1643048605.48574,1643048614.80588,1643048614.80772,1643048615.69119,1643048615.68955,1643048796.1235,0
99,4,1,3,24,1,4,c4_HowHand,1,both hands?,122,H_111.jpg,1643048188.89131,1643048188.90404,424.12160610199,5.67668485641479,429.807059278488,431.90784286499,2.10078358650208,432.057898750305,0.78362512588501,432.849493970871,1,left,0.763911962509155,432.84152387619,604.472194662094,607.232194662094,1643048615.77291,1643048615.77469,1643048621.45837,1643048621.46843,1643048623.55915,1643048623.7092,1643048623.71842,1643048624.5008,1643048624.49283,1643048796.1235,1
99,4,1,3,24,2,4,c4_HowHand,1,both hands?,128,H_027.jpg,1643048188.89131,1643048188.90404,424.12160610199,5.67668485641479,429.807059278488,431.90784286499,0.3,433.158307542801,0.633570432662964,433.799548139572,1,left,0.625500917434692,433.791877975464,604.472194662094,607.232194662094,1643048615.77291,1643048615.77469,1643048621.45837,1643048621.46843,1643048623.55915,1643048624.80961,1643048624.81146,1643048625.45085,1643048625.44318,1643048796.1235,1
99,4,1,3,24,3,4,c4_HowHand,2,both hands?,121,H_091.jpg,1643048188.89131,1643048188.90404,424.12160610199,5.67668485641479,429.807059278488,431.90784286499,0.3,434.108664264679,0.683587074279785,434.799998989105,3,right,0.670890092849731,434.792251338959,604.472194662094,607.232194662094,1643048615.77291,1643048615.77469,1643048621.45837,1643048621.46843,1643048623.55915,1643048625.75997,1643048625.76132,1643048626.4513,1643048626.44356,1643048796.1235,0
99,4,1,3,24,4,4,c4_HowHand,1,both hands?,123,H_167.jpg,1643048188.89131,1643048188.90404,424.12160610199,5.67668485641479,429.807059278488,431.90784286499,0.3,435.109035720825,0.733607292175293,435.850000133514,1,left,0.715784788131714,435.842643013,604.472194662094,607.232194662094,1643048615.77291,1643048615.77469,1643048621.45837,1643048621.46843,1643048623.55915,1643048626.76034,1643048626.76255,1643048627.50131,1643048627.49395,1643048796.1235,1
99,4,1,3,24,5,4,c4_HowHand,1,both hands?,124,H_581.jpg,1643048188.89131,1643048188.90404,424.12160610199,5.67668485641479,429.807059278488,431.90784286499,0.3,436.159428110123,0.766952753067017,436.932759037018,1,left,0.749754190444946,436.92638086319,604.472194662094,607.232194662094,1643048615.77291,1643048615.77469,1643048621.45837,1643048621.46843,1643048623.55915,1643048627.81073,1643048627.81225,1643048628.58406,1643048628.57769,1643048796.1235,1
99,4,1,3,24,6,4,c4_HowHand,2,both hands?,126,H_159.jpg,1643048188.89131,1643048188.90404,424.12160610199,5.67668485641479,429.807059278488,431.90784286499,0.3,437.243165721893,0.766952276229858,438.011166086197,3,right,0.745602130889893,438.010117998123,604.472194662094,607.232194662094,1643048615.77291,1643048615.77469,1643048621.45837,1643048621.46843,1643048623.55915,1643048628.89447,1643048628.89628,1643048629.66247,1643048629.66142,1643048796.1235,0
99,4,1,3,24,7,4,c4_HowHand,1,both hands?,127,H_349.jpg,1643048188.89131,1643048188.90404,424.12160610199,5.67668485641479,429.807059278488,431.90784286499,0.3,438.326903095245,0.700260877609253,439.032740106583,1,left,0.687733173370361,439.027163972855,604.472194662094,607.232194662094,1643048615.77291,1643048615.77469,1643048621.45837,1643048621.46843,1643048623.55915,1643048629.97821,1643048629.98006,1643048630.68405,1643048630.67847,1643048796.1235,1
99,4,1,3,24,8,4,c4_HowHand,2,both hands?,125,H_627.jpg,1643048188.89131,1643048188.90404,424.12160610199,5.67668485641479,429.807059278488,431.90784286499,0.3,439.34394859314,0.750279426574707,440.099960079193,3,right,0.741652965545654,440.094228019714,604.472194662094,607.232194662094,1643048615.77291,1643048615.77469,1643048621.45837,1643048621.46843,1643048623.55915,1643048630.99525,1643048630.99694,1643048631.75127,1643048631.74553,1643048796.1235,0
99,4,1,3,25,1,2,c2_WhyHand,1,healthy?,18,H_438.jpg,1643048188.89131,1643048188.90404,440.177592744827,7.13739728927612,447.330260744095,449.431044330597,2.10078358650208,449.581099262238,0.816971778869629,450.400139083862,1,left,0.792649984359741,450.398071041107,604.472194662094,607.232194662094,1643048631.8289,1643048631.83436,1643048638.98157,1643048638.98445,1643048641.08235,1643048641.23241,1643048641.23403,1643048642.05145,1643048642.04938,1643048796.1235,1
99,4,1,3,25,2,2,c2_WhyHand,1,healthy?,23,H_364.jpg,1643048188.89131,1643048188.90404,440.177592744827,7.13739728927612,447.330260744095,449.431044330597,0.3,450.714855661392,0.800298929214478,451.516650190353,1,left,0.781256914138794,451.515154590607,604.472194662094,607.232194662094,1643048631.8289,1643048631.83436,1643048638.98157,1643048638.98445,1643048641.08235,1643048642.36616,1643048642.36801,1643048643.16796,1643048643.16646,1643048796.1235,1
99,4,1,3,25,3,2,c2_WhyHand,1,healthy?,17,H_362.jpg,1643048188.89131,1643048188.90404,440.177592744827,7.13739728927612,447.330260744095,449.431044330597,0.3,451.831938257217,0.983701467514038,452.817000141144,1,left,0.961795091629028,452.815639724731,604.472194662094,607.232194662094,1643048631.8289,1643048631.83436,1643048638.98157,1643048638.98445,1643048641.08235,1643048643.48324,1643048643.48473,1643048644.46831,1643048644.46695,1643048796.1235,1
99,4,1,3,25,4,2,c2_WhyHand,2,healthy?,24,H_019.jpg,1643048188.89131,1643048188.90404,440.177592744827,7.13739728927612,447.330260744095,449.431044330597,0.3,453.132424345016,0.917008638381958,454.050482978821,3,right,0.894768953323364,454.049432983398,604.472194662094,607.232194662094,1643048631.8289,1643048631.83436,1643048638.98157,1643048638.98445,1643048641.08235,1643048644.78373,1643048644.78526,1643048645.70179,1643048645.70074,1643048796.1235,0
99,4,1,3,25,5,2,c2_WhyHand,1,healthy?,19,H_167.jpg,1643048188.89131,1643048188.90404,440.177592744827,7.13739728927612,447.330260744095,449.431044330597,0.3,454.366217842102,0.833644151687622,455.201297035217,1,left,0.819976806640625,455.19986199379,604.472194662094,607.232194662094,1643048631.8289,1643048631.83436,1643048638.98157,1643048638.98445,1643048641.08235,1643048646.01752,1643048646.0192,1643048646.8526,1643048646.85117,1643048796.1235,1
99,4,1,3,25,6,2,c2_WhyHand,2,healthy?,20,H_007.jpg,1643048188.89131,1643048188.90404,440.177592744827,7.13739728927612,447.330260744095,449.431044330597,0.3,455.516646375656,0.95035457611084,456.468116035461,3,right,0.931594133377075,456.467000951767,604.472194662094,607.232194662094,1643048631.8289,1643048631.83436,1643048638.98157,1643048638.98445,1643048641.08235,1643048647.16795,1643048647.16955,1643048648.11942,1643048648.11831,1643048796.1235,0
99,4,1,3,25,7,2,c2_WhyHand,1,healthy?,21,H_627.jpg,1643048188.89131,1643048188.90404,440.177592744827,7.13739728927612,447.330260744095,449.431044330597,0.3,456.783785333633,0.917009353637695,457.716744174957,1,left,0.908576965332031,457.700794687271,604.472194662094,607.232194662094,1643048631.8289,1643048631.83436,1643048638.98157,1643048638.98445,1643048641.08235,1643048648.43509,1643048648.43695,1643048649.36805,1643048649.3521,1643048796.1235,1
99,4,1,3,25,8,2,c2_WhyHand,2,healthy?,22,H_130.jpg,1643048188.89131,1643048188.90404,440.177592744827,7.13739728927612,447.330260744095,449.431044330597,0.3,458.0175785923,0.850317478179932,458.869395961761,3,right,0.840192079544067,458.86789607048,604.472194662094,607.232194662094,1643048631.8289,1643048631.83436,1643048638.98157,1643048638.98445,1643048641.08235,1643048649.66888,1643048649.67044,1643048650.5207,1643048650.5192,1643048796.1235,0
99,4,1,3,26,1,4,c4_HowHand,1,pressing button?,82,H_126.jpg,1643048188.89131,1643048188.90404,458.951260318756,7.41771984100342,466.387367954254,468.471477499008,2.08410954475403,468.638206710815,0.850317478179932,469.49036406517,1,left,0.831695079803467,469.488524188995,604.472194662094,607.232194662094,1643048650.60257,1643048650.60358,1643048658.03867,1643048658.0406,1643048660.12278,1643048660.28951,1643048660.29148,1643048661.14167,1643048661.13983,1643048796.1235,1
99,4,1,3,26,2,4,c4_HowHand,2,pressing button?,85,H_130.jpg,1643048188.89131,1643048188.90404,458.951260318756,7.41771984100342,466.387367954254,468.471477499008,0.3,469.80530880928,0.683587789535522,470.500112047195,3,right,0.674544095993042,470.488896598816,604.472194662094,607.232194662094,1643048650.60257,1643048650.60358,1643048658.03867,1643048658.0406,1643048660.12278,1643048661.45661,1643048661.45805,1643048662.15142,1643048662.1402,1643048796.1235,0
99,4,1,3,26,3,4,c4_HowHand,1,pressing button?,84,H_483.jpg,1643048188.89131,1643048188.90404,458.951260318756,7.41771984100342,466.387367954254,468.471477499008,0.3,470.805681934357,0.683587789535522,471.490785112381,1,left,0.667744874954224,471.489269723892,604.472194662094,607.232194662094,1643048650.60257,1643048650.60358,1643048658.03867,1643048658.0406,1643048660.12278,1643048662.45699,1643048662.45881,1643048663.14209,1643048663.14058,1643048796.1235,1
99,4,1,3,26,4,4,c4_HowHand,2,pressing button?,87,H_024.jpg,1643048188.89131,1643048188.90404,458.951260318756,7.41771984100342,466.387367954254,468.471477499008,0.3,471.806055297852,0.650240898132324,472.466793050766,3,right,0.639404058456421,472.456296195984,604.472194662094,607.232194662094,1643048650.60257,1643048650.60358,1643048658.03867,1643048658.0406,1643048660.12278,1643048663.45736,1643048663.45936,1643048664.1181,1643048664.1076,1643048796.1235,0
99,4,1,3,26,5,4,c4_HowHand,1,pressing button?,86,H_332.jpg,1643048188.89131,1643048188.90404,458.951260318756,7.41771984100342,466.387367954254,468.471477499008,0.3,472.773081531525,0.633570432662964,473.416038980484,1,left,0.620642900466919,473.406651964188,604.472194662094,607.232194662094,1643048650.60257,1643048650.60358,1643048658.03867,1643048658.0406,1643048660.12278,1643048664.42439,1643048664.4261,1643048665.06734,1643048665.05796,1643048796.1235,1
99,4,1,3,26,6,4,c4_HowHand,1,pressing button?,88,H_019.jpg,1643048188.89131,1643048188.90404,458.951260318756,7.41771984100342,466.387367954254,468.471477499008,0.3,473.723436822891,0.666913509368896,474.399511089325,1,left,0.652379989624023,474.39035033226,604.472194662094,607.232194662094,1643048650.60257,1643048650.60358,1643048658.03867,1643048658.0406,1643048660.12278,1643048665.37474,1643048665.37643,1643048666.05082,1643048666.04166,1643048796.1235,1
99,4,1,3,26,7,4,c4_HowHand,2,pressing button?,81,H_261.jpg,1643048188.89131,1643048188.90404,458.951260318756,7.41771984100342,466.387367954254,468.471477499008,0.3,474.707136621475,0.73360538482666,475.442651023865,3,right,0.71422815322876,475.440742006302,604.472194662094,607.232194662094,1643048650.60257,1643048650.60358,1643048658.03867,1643048658.0406,1643048660.12278,1643048666.35844,1643048666.35994,1643048667.09396,1643048667.09205,1643048796.1235,0
99,4,1,3,26,8,4,c4_HowHand,1,pressing button?,83,H_502.jpg,1643048188.89131,1643048188.90404,458.951260318756,7.41771984100342,466.387367954254,468.471477499008,0.3,475.75752781868,0.633569955825806,476.392276992798,1,left,0.616283178329468,476.391097774506,604.472194662094,607.232194662094,1643048650.60257,1643048650.60358,1643048658.03867,1643048658.0406,1643048660.12278,1643048667.40883,1643048667.41032,1643048668.04358,1643048668.0424,1643048796.1235,1
99,4,1,3,27,1,3,c3_HowFace,1,looking at camera?,60,F_618.jpg,1643048188.89131,1643048188.90404,476.474461545944,7.42447257041931,483.910568466187,486.011351575851,2.10078310966492,486.161407938004,0.716934204101562,486.882776966095,1,left,0.705721139907837,486.878342142105,604.472194662094,607.232194662094,1643048668.12577,1643048668.12743,1643048675.56187,1643048675.56812,1643048677.66266,1643048677.81271,1643048677.81798,1643048678.53408,1643048678.52965,1643048796.1235,1
99,4,1,3,27,2,3,c3_HowFace,2,looking at camera?,58,F_754.jpg,1643048188.89131,1643048188.90404,476.474461545944,7.42447257041931,483.910568466187,486.011351575851,0.3,487.195127000809,1.03371906280518,488.232690086365,3,right,1.01794481277466,488.228846063614,604.472194662094,607.232194662094,1643048668.12577,1643048668.12743,1643048675.56187,1643048675.56812,1643048677.66266,1643048678.84643,1643048678.84791,1643048679.884,1643048679.88015,1643048796.1235,0
99,4,1,3,27,3,3,c3_HowFace,1,looking at camera?,59,F_129.jpg,1643048188.89131,1643048188.90404,476.474461545944,7.42447257041931,483.910568466187,486.011351575851,0.3,488.545631160736,0.666914224624634,489.21664308548,1,left,0.647661924362183,489.212545385361,604.472194662094,607.232194662094,1643048668.12577,1643048668.12743,1643048675.56187,1643048675.56812,1643048677.66266,1643048680.19694,1643048680.20101,1643048680.86795,1643048680.86385,1643048796.1235,1
99,4,1,3,27,4,3,c3_HowFace,1,looking at camera?,62,F_598.jpg,1643048188.89131,1643048188.90404,476.474461545944,7.42447257041931,483.910568466187,486.011351575851,0.3,489.529330482483,0.70025897026062,490.233227005005,1,left,0.682342052459717,490.229589452744,604.472194662094,607.232194662094,1643048668.12577,1643048668.12743,1643048675.56187,1643048675.56812,1643048677.66266,1643048681.18064,1643048681.18442,1643048681.88453,1643048681.8809,1643048796.1235,1
99,4,1,3,27,5,3,c3_HowFace,1,looking at camera?,64,F_128.jpg,1643048188.89131,1643048188.90404,476.474461545944,7.42447257041931,483.910568466187,486.011351575851,0.3,490.546376934052,0.833643913269043,491.383079996109,1,left,0.813454866409302,491.380020847321,604.472194662094,607.232194662094,1643048668.12577,1643048668.12743,1643048675.56187,1643048675.56812,1643048677.66266,1643048682.19768,1643048682.20133,1643048683.03439,1643048683.03133,1643048796.1235,1
99,4,1,3,27,6,3,c3_HowFace,2,looking at camera?,57,F_582.jpg,1643048188.89131,1643048188.90404,476.474461545944,7.42447257041931,483.910568466187,486.011351575851,0.3,491.696805706024,0.716933965682983,492.416028966904,1,left,0.696491003036499,492.413739671707,604.472194662094,607.232194662094,1643048668.12577,1643048668.12743,1643048675.56187,1643048675.56812,1643048677.66266,1643048683.34811,1643048683.35138,1643048684.06733,1643048684.06505,1643048796.1235,0
99,4,1,3,27,7,3,c3_HowFace,1,looking at camera?,61,F_774.jpg,1643048188.89131,1643048188.90404,476.474461545944,7.42447257041931,483.910568466187,486.011351575851,0.3,492.730524053574,0.816971778869629,493.550101985931,1,left,0.793481111526489,493.547495832443,604.472194662094,607.232194662094,1643048668.12577,1643048668.12743,1643048675.56187,1643048675.56812,1643048677.66266,1643048684.38183,1643048684.38452,1643048685.20141,1643048685.1988,1643048796.1235,1
99,4,1,3,27,8,3,c3_HowFace,2,looking at camera?,63,F_743.jpg,1643048188.89131,1643048188.90404,476.474461545944,7.42447257041931,483.910568466187,486.011351575851,0.3,493.86428021431,0.80030083656311,494.666371097565,3,right,0.785259008407593,494.664581050873,604.472194662094,607.232194662094,1643048668.12577,1643048668.12743,1643048675.56187,1643048675.56812,1643048677.66266,1643048685.51559,1643048685.51777,1643048686.31768,1643048686.31589,1643048796.1235,0
