src_subject_id,session_id,run_id,param_counterbalance_ver,param_block_num,param_trial_num,param_cond_type_num,param_cond_type_string,param_normative_response,param_ques_type_string,param_image_num,param_image_filename,param_trigger_onset,param_start_biopac,event01_fixation,event01_fixation_dur,event01_blockquestion_onset,event01_block_isi_blacksreen,event01_blockquestion_dur,event02_image_onset,event02_image_dur,event03_response_onset,event03_response_key,event03_response_keyname,event03_RT,event04_shortquestion_onset,param_end_instruct_onset,param_experiment_duration,RAW_e1_fixation,RAW_e1_fixation_biopac,RAW_e1_blockquestion_onset,RAW_e1_blockquestion_onset_biopac,RAW_e1_block_isi_blacksreen,RAW_e2_image_onset,RAW_e2_image_onset_biopac,RAW_e3_response_onset,RAW_e4_shortquestion_onset,RAW_param_end_instruct_onset,accuracy
73,4,2,3,1,1,4,c4_HowHand,1,reaching?,107,H_007.jpg,1633557776.65195,1633557776.65405,0.0252716445922849,0.0403733253479004,0.0752894783020017,2.10938333511353,2.03409385681152,2.25943826675415,1.71730732917786,3.99557589530945,1,left,1.71367092132568,3.97674559593201,604.467348566055,607.227348566055,1633557779.43722,1633557779.44305,1633557779.48723,1633557779.48983,1633557781.52133,1633557781.67138,1633557781.67403,1633557783.40752,1633557783.38869,1633558383.87929,1
73,4,2,3,1,2,4,c4_HowHand,2,reaching?,108,H_532.jpg,1633557776.65195,1633557776.65405,0.0252716445922849,0.0403733253479004,0.0752894783020017,2.10938333511353,0.3,4.29353021621704,1.71730661392212,6.03467487335205,1,left,1.71887106895447,6.01083683013916,604.467348566055,607.227348566055,1633557779.43722,1633557779.44305,1633557779.48723,1633557779.48983,1633557781.52133,1633557783.70548,1633557783.70795,1633557785.44662,1633557785.42278,1633558383.87929,0
73,4,2,3,1,3,4,c4_HowHand,1,reaching?,109,H_474.jpg,1633557776.65195,1633557776.65405,0.0252716445922849,0.0403733253479004,0.0752894783020017,2.10938333511353,0.3,6.32762168884277,1.71730661392212,8.142263879776,1,left,1.79142112731934,8.04492830276489,604.467348566055,607.227348566055,1633557779.43722,1633557779.44305,1633557779.48723,1633557779.48983,1633557781.52133,1633557785.73957,1633557785.74211,1633557787.55421,1633557787.45687,1633558383.87929,1
73,4,2,3,1,4,4,c4_HowHand,2,reaching?,105,H_438.jpg,1633557776.65195,1633557776.65405,0.0252716445922849,0.0403733253479004,0.0752894783020017,2.10938333511353,0.3,8.36171387672424,1.45054078102112,9.81456183433533,3,right,1.42982411384583,9.81225465774536,604.467348566055,607.227348566055,1633557779.43722,1633557779.44305,1633557779.48723,1633557779.48983,1633557781.52133,1633557787.77366,1633557787.77628,1633557789.22651,1633557789.2242,1633558383.87929,0
73,4,2,3,1,5,4,c4_HowHand,1,reaching?,110,H_364.jpg,1633557776.65195,1633557776.65405,0.0252716445922849,0.0403733253479004,0.0752894783020017,2.10938333511353,0.3,10.1290392780304,1.01704549789429,11.1489369773865,1,left,1.00605511665344,11.1460847759247,604.467348566055,607.227348566055,1633557779.43722,1633557779.44305,1633557779.48723,1633557779.48983,1633557781.52133,1633557789.54098,1633557789.54428,1633557790.56088,1633557790.55803,1633558383.87929,1
73,4,2,3,1,6,4,c4_HowHand,1,reaching?,106,H_006.jpg,1633557776.65195,1633557776.65405,0.0252716445922849,0.0403733253479004,0.0752894783020017,2.10938333511353,0.3,11.4628705883026,0.967027902603149,12.4325888061523,1,left,0.949357986450195,12.4298984909058,604.467348566055,607.227348566055,1633557779.43722,1633557779.44305,1633557779.48723,1633557779.48983,1633557781.52133,1633557790.87482,1633557790.87687,1633557791.84453,1633557791.84184,1633558383.87929,1
73,4,2,3,1,7,4,c4_HowHand,1,reaching?,111,H_003.jpg,1633557776.65195,1633557776.65405,0.0252716445922849,0.0403733253479004,0.0752894783020017,2.10938333511353,0.3,12.7466831111908,0.750278949737549,13.4986619853973,1,left,0.742933988571167,13.4969620609283,604.467348566055,607.227348566055,1633557779.43722,1633557779.44305,1633557779.48723,1633557779.48983,1633557781.52133,1633557792.15863,1633557792.16119,1633557792.91061,1633557792.90891,1633558383.87929,1
73,4,2,3,1,8,4,c4_HowHand,2,reaching?,112,H_132.jpg,1633557776.65195,1633557776.65405,0.0252716445922849,0.0403733253479004,0.0752894783020017,2.10938333511353,0.3,13.8137471580505,1.63394236564636,15.449990978241,3,right,1.61285400390625,15.4476895236969,604.467348566055,607.227348566055,1633557779.43722,1633557779.44305,1633557779.48723,1633557779.48983,1633557781.52133,1633557793.22569,1633557793.22797,1633557794.86194,1633557794.85963,1633558383.87929,0
73,4,2,3,2,1,2,c2_WhyHand,1,healthy?,21,H_627.jpg,1633557776.65195,1633557776.65405,15.5810725593567,1.94985032081604,17.5484726333618,19.6492564582825,2.10078382492065,19.782640209198,1.21711993217468,21.0013899707794,1,left,1.20535016059875,20.9997601413727,604.467348566055,607.227348566055,1633557794.99302,1633557794.99503,1633557796.96042,1633557796.96316,1633557799.0612,1633557799.19459,1633557799.1969,1633557800.41334,1633557800.41171,1633558383.87929,1
73,4,2,3,2,2,2,c2_WhyHand,1,healthy?,18,H_438.jpg,1633557776.65195,1633557776.65405,15.5810725593567,1.94985032081604,17.5484726333618,19.6492564582825,0.3,21.3165452384949,1.40052223205566,22.7190909290314,1,left,1.38333082199097,22.7170674705505,604.467348566055,607.227348566055,1633557794.99302,1633557794.99503,1633557796.96042,1633557796.96316,1633557799.0612,1633557800.72849,1633557800.7307,1633557802.13104,1633557802.12901,1633558383.87929,1
73,4,2,3,2,3,2,c2_WhyHand,1,healthy?,23,H_364.jpg,1633557776.65195,1633557776.65405,15.5810725593567,1.94985032081604,17.5484726333618,19.6492564582825,0.3,23.0338499450684,1.2004497051239,24.2359859848022,1,left,1.19093608856201,24.2342996501923,604.467348566055,607.227348566055,1633557794.99302,1633557794.99503,1633557796.96042,1633557796.96316,1633557799.0612,1633557802.4458,1633557802.44781,1633557803.64793,1633557803.64624,1633558383.87929,1
73,4,2,3,2,4,2,c2_WhyHand,2,healthy?,22,H_130.jpg,1633557776.65195,1633557776.65405,15.5810725593567,1.94985032081604,17.5484726333618,19.6492564582825,0.3,24.5510852241516,1.20044684410095,25.7532458209991,3,right,1.19255805015564,25.7515320682526,604.467348566055,607.227348566055,1633557794.99302,1633557794.99503,1633557796.96042,1633557796.96316,1633557799.0612,1633557803.96303,1633557803.96524,1633557805.16519,1633557805.16348,1633558383.87929,0
73,4,2,3,2,5,2,c2_WhyHand,1,healthy?,17,H_362.jpg,1633557776.65195,1633557776.65405,15.5810725593567,1.94985032081604,17.5484726333618,19.6492564582825,0.3,26.0683169269562,0.816971063613892,26.8868858718872,1,left,0.810581922531128,26.8852879905701,604.467348566055,607.227348566055,1633557794.99302,1633557794.99503,1633557796.96042,1633557796.96316,1633557799.0612,1633557805.48026,1633557805.48236,1633557806.29883,1633557806.29723,1633558383.87929,1
73,4,2,3,2,6,2,c2_WhyHand,2,healthy?,20,H_007.jpg,1633557776.65195,1633557776.65405,15.5810725593567,1.94985032081604,17.5484726333618,19.6492564582825,0.3,27.2020723724365,0.983701705932617,28.1877508068085,3,right,0.968403816223145,28.1857740783691,604.467348566055,607.227348566055,1633557794.99302,1633557794.99503,1633557796.96042,1633557796.96316,1633557799.0612,1633557806.61402,1633557806.61655,1633557807.5997,1633557807.59772,1633558383.87929,0
73,4,2,3,2,7,2,c2_WhyHand,1,healthy?,19,H_167.jpg,1633557776.65195,1633557776.65405,15.5810725593567,1.94985032081604,17.5484726333618,19.6492564582825,0.3,28.5025579833984,0.766952991485596,29.2719919586182,1,left,0.758004903793335,29.269510974884,604.467348566055,607.227348566055,1633557794.99302,1633557794.99503,1633557796.96042,1633557796.96316,1633557799.0612,1633557807.9145,1633557807.91683,1633557808.68394,1633557808.68146,1633558383.87929,1
73,4,2,3,2,8,2,c2_WhyHand,2,healthy?,24,H_019.jpg,1633557776.65195,1633557776.65405,15.5810725593567,1.94985032081604,17.5484726333618,19.6492564582825,0.3,29.5862958335876,0.950353622436523,30.5383849048614,3,right,0.932246923446655,30.5366494560242,604.467348566055,607.227348566055,1633557794.99302,1633557794.99503,1633557796.96042,1633557796.96316,1633557799.0612,1633557808.99824,1633557809.00055,1633557809.95033,1633557809.94859,1633558383.87929,0
73,4,2,3,3,1,1,c1_WhyFace,1,admiring?,4,F_779.jpg,1633557776.65195,1633557776.65405,30.6200144195557,6.01913046836853,36.6555991077423,38.7563817405701,2.10078263282776,38.906437625885,0.917008876800537,39.8255720043182,1,left,0.896553039550781,39.8234465026855,604.467348566055,607.227348566055,1633557810.03196,1633557810.03429,1633557816.06754,1633557816.07064,1633557818.16833,1633557818.31838,1633557818.32106,1633557819.23752,1633557819.23539,1633558383.87929,1
73,4,2,3,3,2,1,c1_WhyFace,1,admiring?,1,F_593.jpg,1633557776.65195,1633557776.65405,30.6200144195557,6.01913046836853,36.6555991077423,38.7563817405701,0.3,40.1402320766449,0.883661508560181,41.0257048511505,1,left,0.867150068283081,41.0238935852051,604.467348566055,607.227348566055,1633557810.03196,1633557810.03429,1633557816.06754,1633557816.07064,1633557818.16833,1633557819.55218,1633557819.55432,1633557820.43765,1633557820.43584,1633558383.87929,1
73,4,2,3,3,3,1,c1_WhyFace,2,admiring?,3,F_110.jpg,1633557776.65195,1633557776.65405,30.6200144195557,6.01913046836853,36.6555991077423,38.7563817405701,0.3,41.3406786823273,1.23379421234131,42.5764198207855,3,right,1.2182629108429,42.5744728946686,604.467348566055,607.227348566055,1633557810.03196,1633557810.03429,1633557816.06754,1633557816.07064,1633557818.16833,1633557820.75262,1633557820.75508,1633557821.98836,1633557821.98642,1633558383.87929,0
73,4,2,3,3,4,1,c1_WhyFace,1,admiring?,8,F_590.jpg,1633557776.65195,1633557776.65405,30.6200144195557,6.01913046836853,36.6555991077423,38.7563817405701,0.3,42.891257276535,0.96702766418457,43.8605949783325,1,left,0.9462890625,43.8582849407196,604.467348566055,607.227348566055,1633557810.03196,1633557810.03429,1633557816.06754,1633557816.07064,1633557818.16833,1633557822.3032,1633557822.30589,1633557823.27254,1633557823.27023,1633558383.87929,1
73,4,2,3,3,5,1,c1_WhyFace,2,admiring?,6,F_692.jpg,1633557776.65195,1633557776.65405,30.6200144195557,6.01913046836853,36.6555991077423,38.7563817405701,0.3,44.1750702762604,1.18377470970154,45.3610339069366,1,left,1.16081786155701,45.3588449859619,604.467348566055,607.227348566055,1633557810.03196,1633557810.03429,1633557816.06754,1633557816.07064,1633557818.16833,1633557823.58702,1633557823.58926,1633557824.77298,1633557824.77079,1633558383.87929,0
73,4,2,3,3,6,1,c1_WhyFace,1,admiring?,5,F_759.jpg,1633557776.65195,1633557776.65405,30.6200144195557,6.01913046836853,36.6555991077423,38.7563817405701,0.3,45.6756286525726,0.766953229904175,46.4445857906342,1,left,0.751616954803467,46.4425818824768,604.467348566055,607.227348566055,1633557810.03196,1633557810.03429,1633557816.06754,1633557816.07064,1633557818.16833,1633557825.08757,1633557825.08979,1633557825.85653,1633557825.85453,1633558383.87929,1
73,4,2,3,3,7,1,c1_WhyFace,1,admiring?,7,F_648.jpg,1633557776.65195,1633557776.65405,30.6200144195557,6.01913046836853,36.6555991077423,38.7563817405701,0.3,46.7593660259247,0.750281095504761,47.5112848186493,1,left,0.740467071533203,47.5096471214294,604.467348566055,607.227348566055,1633557810.03196,1633557810.03429,1633557816.06754,1633557816.07064,1633557818.16833,1633557826.17131,1633557826.17362,1633557826.92323,1633557826.92159,1633558383.87929,1
73,4,2,3,3,8,1,c1_WhyFace,2,admiring?,2,F_129.jpg,1633557776.65195,1633557776.65405,30.6200144195557,6.01913046836853,36.6555991077423,38.7563817405701,0.3,47.826430311203,1.20044898986816,49.0287327671051,3,right,1.18073701858521,49.0268793010712,604.467348566055,607.227348566055,1633557810.03196,1633557810.03429,1633557816.06754,1633557816.07064,1633557818.16833,1633557827.23838,1633557827.24123,1633557828.44068,1633557828.43882,1633558383.87929,0
73,4,2,3,4,1,3,c3_HowFace,1,smiling?,119,F_139.jpg,1633557776.65195,1633557776.65405,49.1102430725098,6.49294090270996,55.6126677894592,57.7134516143799,2.10078382492065,57.8635077381134,0.883663177490234,58.749153842926,1,left,0.865855932235718,58.7471709156036,604.467348566055,607.227348566055,1633557828.52219,1633557828.52519,1633557835.02461,1633557835.02737,1633557837.1254,1633557837.27545,1633557837.27811,1633557838.1611,1633557838.15912,1633558383.87929,1
73,4,2,3,4,2,3,c3_HowFace,2,smiling?,113,F_712.jpg,1633557776.65195,1633557776.65405,49.1102430725098,6.49294090270996,55.6126677894592,57.7134516143799,0.3,59.0639548206329,0.783625364303589,59.8499967956543,3,right,0.764806985855103,59.8475801849365,604.467348566055,607.227348566055,1633557828.52219,1633557828.52519,1633557835.02461,1633557835.02737,1633557837.1254,1633557838.4759,1633557838.47784,1633557839.26194,1633557839.25953,1633558383.87929,0
73,4,2,3,4,3,3,c3_HowFace,1,smiling?,115,F_695.jpg,1633557776.65195,1633557776.65405,49.1102430725098,6.49294090270996,55.6126677894592,57.7134516143799,0.3,60.1643659973145,0.666914701461792,60.8333299064636,1,left,0.647175788879395,60.8312806987762,604.467348566055,607.227348566055,1633557828.52219,1633557828.52519,1633557835.02461,1633557835.02737,1633557837.1254,1633557839.57631,1633557839.57866,1633557840.24528,1633557840.24323,1633558383.87929,1
73,4,2,3,4,4,3,c3_HowFace,2,smiling?,120,F_758.jpg,1633557776.65195,1633557776.65405,49.1102430725098,6.49294090270996,55.6126677894592,57.7134516143799,0.3,61.1480648422241,0.766953468322754,61.9171199703217,3,right,0.749820947647095,61.9150183105469,604.467348566055,607.227348566055,1633557828.52219,1633557828.52519,1633557835.02461,1633557835.02737,1633557837.1254,1633557840.56001,1633557840.56251,1633557841.32907,1633557841.32696,1633558383.87929,0
73,4,2,3,4,5,3,c3_HowFace,1,smiling?,116,F_083.jpg,1633557776.65195,1633557776.65405,49.1102430725098,6.49294090270996,55.6126677894592,57.7134516143799,0.3,62.2318031692505,0.633569955825806,62.8671638870239,1,left,0.61968207359314,62.8653731250763,604.467348566055,607.227348566055,1633557828.52219,1633557828.52519,1633557835.02461,1633557835.02737,1633557837.1254,1633557841.64375,1633557841.64595,1633557842.27911,1633557842.27732,1633558383.87929,1
73,4,2,3,4,6,3,c3_HowFace,1,smiling?,118,F_759.jpg,1633557776.65195,1633557776.65405,49.1102430725098,6.49294090270996,55.6126677894592,57.7134516143799,0.3,63.1821582221985,0.63356876373291,63.8174028301239,1,left,0.627477884292603,63.8157269859314,604.467348566055,607.227348566055,1633557828.52219,1633557828.52519,1633557835.02461,1633557835.02737,1633557837.1254,1633557842.5941,1633557842.596,1633557843.22935,1633557843.22767,1633558383.87929,1
73,4,2,3,4,7,3,c3_HowFace,2,smiling?,114,F_412.jpg,1633557776.65195,1633557776.65405,49.1102430725098,6.49294090270996,55.6126677894592,57.7134516143799,0.3,64.1325111293793,0.68358850479126,64.817987909317,3,right,0.667683839797974,64.8160996341705,604.467348566055,607.227348566055,1633557828.52219,1633557828.52519,1633557835.02461,1633557835.02737,1633557837.1254,1633557843.54446,1633557843.54673,1633557844.22993,1633557844.22804,1633558383.87929,0
73,4,2,3,4,8,3,c3_HowFace,1,smiling?,117,F_593.jpg,1633557776.65195,1633557776.65405,49.1102430725098,6.49294090270996,55.6126677894592,57.7134516143799,0.3,65.1328847312927,0.650243043899536,65.7854058647156,1,left,0.640578031539917,65.7831277751923,604.467348566055,607.227348566055,1633557828.52219,1633557828.52519,1633557835.02461,1633557835.02737,1633557837.1254,1633557844.54483,1633557844.54697,1633557845.19735,1633557845.19507,1633558383.87929,1
73,4,2,3,5,1,4,c4_HowHand,1,lifting?,56,H_136.jpg,1633557776.65195,1633557776.65405,65.866492023468,7.26694989204407,73.135868062973,75.236652841568,2.10078477859497,75.3867089653015,1.40052175521851,76.7891089820862,1,left,1.38012003898621,76.78723072052,604.467348566055,607.227348566055,1633557845.27844,1633557845.2823,1633557852.54781,1633557852.54987,1633557854.6486,1633557854.79865,1633557854.80104,1633557856.20105,1633557856.19918,1633558383.87929,1
73,4,2,3,5,2,4,c4_HowHand,2,lifting?,51,H_038.jpg,1633557776.65195,1633557776.65405,65.866492023468,7.26694989204407,73.135868062973,75.236652841568,0.3,77.1040165328979,1.16710114479065,78.27280377388,3,right,1.15880084037781,78.2711176776886,604.467348566055,607.227348566055,1633557845.27844,1633557845.2823,1633557852.54781,1633557852.54987,1633557854.6486,1633557856.51596,1633557856.51816,1633557857.68475,1633557857.68306,1633558383.87929,0
73,4,2,3,5,3,4,c4_HowHand,1,lifting?,52,H_189.jpg,1633557776.65195,1633557776.65405,65.866492023468,7.26694989204407,73.135868062973,75.236652841568,0.3,78.5879030132294,1.21711945533752,79.8067889118195,1,left,1.20211887359619,79.8050224685669,604.467348566055,607.227348566055,1633557845.27844,1633557845.2823,1633557852.54781,1633557852.54987,1633557854.6486,1633557857.99985,1633557858.00194,1633557859.21873,1633557859.21697,1633558383.87929,1
73,4,2,3,5,4,4,c4_HowHand,2,lifting?,53,H_077.jpg,1633557776.65195,1633557776.65405,65.866492023468,7.26694989204407,73.135868062973,75.236652841568,0.3,80.1218085193634,1.0670645236969,81.1910247707367,3,right,1.04924416542053,81.1888730430603,604.467348566055,607.227348566055,1633557845.27844,1633557845.2823,1633557852.54781,1633557852.54987,1633557854.6486,1633557859.53375,1633557859.53593,1633557860.60297,1633557860.60082,1633558383.87929,0
73,4,2,3,5,5,4,c4_HowHand,1,lifting?,50,H_443.jpg,1633557776.65195,1633557776.65405,65.866492023468,7.26694989204407,73.135868062973,75.236652841568,0.3,81.5056576633453,0.81697154045105,82.3242299461365,1,left,0.807536840438843,82.3226292037964,604.467348566055,607.227348566055,1633557845.27844,1633557845.2823,1633557852.54781,1633557852.54987,1633557854.6486,1633557860.9176,1633557860.9205,1633557861.73618,1633557861.73457,1633558383.87929,1
73,4,2,3,5,6,4,c4_HowHand,2,lifting?,55,H_012.jpg,1633557776.65195,1633557776.65405,65.866492023468,7.26694989204407,73.135868062973,75.236652841568,0.3,82.6394135856628,0.933681726455688,83.5747477912903,3,right,0.925628185272217,83.5730953121185,604.467348566055,607.227348566055,1633557845.27844,1633557845.2823,1633557852.54781,1633557852.54987,1633557854.6486,1633557862.05136,1633557862.05356,1633557862.98669,1633557862.98504,1633558383.87929,0
73,4,2,3,5,7,4,c4_HowHand,1,lifting?,49,H_362.jpg,1633557776.65195,1633557776.65405,65.866492023468,7.26694989204407,73.135868062973,75.236652841568,0.3,83.8898801708221,0.750279664993286,84.6424608135223,1,left,0.737478017807007,84.6401598358154,604.467348566055,607.227348566055,1633557845.27844,1633557845.2823,1633557852.54781,1633557852.54987,1633557854.6486,1633557863.30183,1633557863.30439,1633557864.05441,1633557864.0521,1633558383.87929,1
73,4,2,3,5,8,4,c4_HowHand,1,lifting?,54,H_170.jpg,1633557776.65195,1633557776.65405,65.866492023468,7.26694989204407,73.135868062973,75.236652841568,0.3,84.9569442176819,1.53390455245972,86.4930918121338,3,right,1.51349592208862,86.4908487701416,604.467348566055,607.227348566055,1633557845.27844,1633557845.2823,1633557852.54781,1633557852.54987,1633557854.6486,1633557864.36889,1633557864.37109,1633557865.90504,1633557865.90279,1633558383.87929,0
73,4,2,3,6,1,2,c2_WhyHand,1,helping?,38,H_077.jpg,1633557776.65195,1633557776.65405,86.5575423145294,9.05737161636353,95.6275908851623,97.7283737564087,2.10078287124634,97.8784296417236,1.10041093826294,98.9811499023437,1,left,1.08321499824524,98.9788405799866,604.467348566055,607.227348566055,1633557865.96949,1633557865.97162,1633557875.03954,1633557875.04233,1633557877.14032,1633557877.29037,1633557877.29325,1633557878.3931,1633557878.39079,1633558383.87929,1
73,4,2,3,6,2,2,c2_WhyHand,1,helping?,36,H_349.jpg,1633557776.65195,1633557776.65405,86.5575423145294,9.05737161636353,95.6275908851623,97.7283737564087,0.3,99.2956247234344,0.90033483505249,100.198003997803,1,left,0.893388986587524,100.195959558487,604.467348566055,607.227348566055,1633557865.96949,1633557865.97162,1633557875.03954,1633557875.04233,1633557877.14032,1633557878.70757,1633557878.71022,1633557879.60995,1633557879.6079,1633558383.87929,1
73,4,2,3,6,3,2,c2_WhyHand,1,helping?,37,H_474.jpg,1633557776.65195,1633557776.65405,86.5575423145294,9.05737161636353,95.6275908851623,97.7283737564087,0.3,100.512746086121,1.00037312507629,101.515527000427,1,left,0.980080127716064,101.513119211197,604.467348566055,607.227348566055,1633557865.96949,1633557865.97162,1633557875.03954,1633557875.04233,1633557877.14032,1633557879.92469,1633557879.92721,1633557880.92747,1633557880.92506,1633558383.87929,1
73,4,2,3,6,4,2,c2_WhyHand,1,helping?,39,H_024.jpg,1633557776.65195,1633557776.65405,86.5575423145294,9.05737161636353,95.6275908851623,97.7283737564087,0.3,101.829904546738,0.967025995254517,102.799518814087,3,right,0.946973085403442,102.796930541992,604.467348566055,607.227348566055,1633557865.96949,1633557865.97162,1633557875.03954,1633557875.04233,1633557877.14032,1633557881.24185,1633557881.24404,1633557882.21146,1633557882.20888,1633558383.87929,0
73,4,2,3,6,5,2,c2_WhyHand,2,helping?,40,H_012.jpg,1633557776.65195,1633557776.65405,86.5575423145294,9.05737161636353,95.6275908851623,97.7283737564087,0.3,103.113715400696,1.71730732917786,NaN,0,NA,0,104.831022729874,604.467348566055,607.227348566055,1633557865.96949,1633557865.97162,1633557875.03954,1633557875.04233,1633557877.14032,1633557882.52566,1633557882.52761,NaN,1633557884.24297,1633558383.87929,0
73,4,2,3,6,6,2,c2_WhyHand,2,helping?,35,H_159.jpg,1633557776.65195,1633557776.65405,86.5575423145294,9.05737161636353,95.6275908851623,97.7283737564087,0.3,105.147807826996,1.06706404685974,106.217093935013,3,right,1.05597805976868,106.214871873856,604.467348566055,607.227348566055,1633557865.96949,1633557865.97162,1633557875.03954,1633557875.04233,1633557877.14032,1633557884.55975,1633557884.56159,1633557885.62904,1633557885.62682,1633558383.87929,0
73,4,2,3,6,7,2,c2_WhyHand,1,helping?,34,H_111.jpg,1633557776.65195,1633557776.65405,86.5575423145294,9.05737161636353,95.6275908851623,97.7283737564087,0.3,106.531656970978,1.15042877197266,107.683718910217,1,left,1.14186787605286,107.68208574295,604.467348566055,607.227348566055,1633557865.96949,1633557865.97162,1633557875.03954,1633557875.04233,1633557877.14032,1633557885.9436,1633557885.94608,1633557887.09566,1633557887.09403,1633558383.87929,1
73,4,2,3,6,8,2,c2_WhyHand,2,helping?,33,H_091.jpg,1633557776.65195,1633557776.65405,86.5575423145294,9.05737161636353,95.6275908851623,97.7283737564087,0.3,107.998870601654,1.18377494812012,109.184463968277,3,right,1.16185688972473,109.182645549774,604.467348566055,607.227348566055,1633557865.96949,1633557865.97162,1633557875.03954,1633557875.04233,1633557877.14032,1633557887.41082,1633557887.41323,1633557888.59641,1633557888.59459,1633558383.87929,0
73,4,2,3,7,1,1,c1_WhyFace,1,proud?,104,F_598.jpg,1633557776.65195,1633557776.65405,109.249336948395,4.24061298370361,113.500922431946,115.601705780029,2.1007833480835,115.751761426926,1.05039215087891,116.803830852509,1,left,1.04040789604187,116.802153577805,604.467348566055,607.227348566055,1633557888.66128,1633557888.66299,1633557892.91287,1633557892.91485,1633557895.01365,1633557895.16371,1633557895.1662,1633557896.21578,1633557896.2141,1633558383.87929,1
73,4,2,3,7,2,1,c1_WhyFace,2,proud?,102,F_760.jpg,1633557776.65195,1633557776.65405,109.249336948395,4.24061298370361,113.500922431946,115.601705780029,0.3,117.118937482834,0.833643436431885,117.954781999588,3,right,0.820114135742188,117.952580919266,604.467348566055,607.227348566055,1633557888.66128,1633557888.66299,1633557892.91287,1633557892.91485,1633557895.01365,1633557896.53088,1633557896.53301,1633557897.36673,1633557897.36453,1633558383.87929,0
73,4,2,3,7,3,1,c1_WhyFace,1,proud?,97,F_582.jpg,1633557776.65195,1633557776.65405,109.249336948395,4.24061298370361,113.500922431946,115.601705780029,0.3,118.269366970062,0.733606815338135,119.005580892563,1,left,0.713949918746948,119.0029737854,604.467348566055,607.227348566055,1633557888.66128,1633557888.66299,1633557892.91287,1633557892.91485,1633557895.01365,1633557897.68131,1633557897.68387,1633557898.41753,1633557898.41492,1633558383.87929,1
73,4,2,3,7,4,1,c1_WhyFace,2,proud?,98,F_412.jpg,1633557776.65195,1633557776.65405,109.249336948395,4.24061298370361,113.500922431946,115.601705780029,0.3,119.319758644104,0.750280380249023,120.071834793091,3,right,0.741652011871338,120.070039024353,604.467348566055,607.227348566055,1633557888.66128,1633557888.66299,1633557892.91287,1633557892.91485,1633557895.01365,1633557898.7317,1633557898.73452,1633557899.48378,1633557899.48198,1633558383.87929,0
73,4,2,3,7,5,1,c1_WhyFace,1,proud?,101,F_083.jpg,1633557776.65195,1633557776.65405,109.249336948395,4.24061298370361,113.500922431946,115.601705780029,0.3,120.386823883057,0.833644390106201,121.222399940491,1,left,0.812716960906982,121.220468273163,604.467348566055,607.227348566055,1633557888.66128,1633557888.66299,1633557892.91287,1633557892.91485,1633557895.01365,1633557899.79877,1633557899.8011,1633557900.63435,1633557900.63241,1633558383.87929,1
73,4,2,3,7,6,1,c1_WhyFace,2,proud?,100,F_776.jpg,1633557776.65195,1633557776.65405,109.249336948395,4.24061298370361,113.500922431946,115.601705780029,0.3,121.537252893448,1.11708283424377,122.656073799133,3,right,1.10954213142395,122.654335727692,604.467348566055,607.227348566055,1633557888.66128,1633557888.66299,1633557892.91287,1633557892.91485,1633557895.01365,1633557900.9492,1633557900.95153,1633557902.06802,1633557902.06628,1633558383.87929,0
73,4,2,3,7,7,1,c1_WhyFace,1,proud?,103,F_618.jpg,1633557776.65195,1633557776.65405,109.249336948395,4.24061298370361,113.500922431946,115.601705780029,0.3,122.971120824814,1.06706500053406,124.04052781105,1,left,1.05824589729309,124.038185825348,604.467348566055,607.227348566055,1633557888.66128,1633557888.66299,1633557892.91287,1633557892.91485,1633557895.01365,1633557902.38307,1633557902.38521,1633557903.45247,1633557903.45013,1633558383.87929,1
73,4,2,3,7,8,1,c1_WhyFace,1,proud?,99,F_695.jpg,1633557776.65195,1633557776.65405,109.249336948395,4.24061298370361,113.500922431946,115.601705780029,0.3,124.354969968796,0.933681488037109,125.290724983215,1,left,0.921891927719116,125.288651456833,604.467348566055,607.227348566055,1633557888.66128,1633557888.66299,1633557892.91287,1633557892.91485,1633557895.01365,1633557903.76692,1633557903.76984,1633557904.70267,1633557904.7006,1633558383.87929,1
73,4,2,3,8,1,3,c3_HowFace,1,looking to side?,72,F_590.jpg,1633557776.65195,1633557776.65405,125.355344047546,5.66457080841064,131.024123659134,133.124904623032,2.10078096389771,133.274962892532,0.78362512588501,134.060660829544,1,left,0.774856090545654,134.058588018417,604.467348566055,607.227348566055,1633557904.76729,1633557904.76927,1633557910.43607,1633557910.43807,1633557912.53685,1633557912.68691,1633557912.68914,1633557913.47261,1633557913.47053,1633558383.87929,1
73,4,2,3,8,2,3,c3_HowFace,1,looking to side?,71,F_433.jpg,1633557776.65195,1633557776.65405,125.355344047546,5.66457080841064,131.024123659134,133.124904623032,0.3,134.375374546051,0.933680534362793,135.310846796036,1,left,0.916836023330688,135.309055080414,604.467348566055,607.227348566055,1633557904.76729,1633557904.76927,1633557910.43607,1633557910.43807,1633557912.53685,1633557913.78732,1633557913.78953,1633557914.72279,1633557914.721,1633558383.87929,1
73,4,2,3,8,3,3,c3_HowFace,1,looking to side?,67,F_716.jpg,1633557776.65195,1633557776.65405,125.355344047546,5.66457080841064,131.024123659134,133.124904623032,0.3,135.625839223862,0.983700275421143,136.611235847473,1,left,0.972298145294189,136.609539499283,604.467348566055,607.227348566055,1633557904.76729,1633557904.76927,1633557910.43607,1633557910.43807,1633557912.53685,1633557915.03778,1633557915.03991,1633557916.02318,1633557916.02148,1633558383.87929,1
73,4,2,3,8,4,3,c3_HowFace,2,looking to side?,70,F_779.jpg,1633557776.65195,1633557776.65405,125.355344047546,5.66457080841064,131.024123659134,133.124904623032,0.3,136.926324596405,0.983701705932617,137.912292947769,1,left,0.967162132263184,137.910026302338,604.467348566055,607.227348566055,1633557904.76729,1633557904.76927,1633557910.43607,1633557910.43807,1633557912.53685,1633557916.33827,1633557916.34096,1633557917.32424,1633557917.32197,1633558383.87929,0
73,4,2,3,8,5,3,c3_HowFace,1,looking to side?,68,F_760.jpg,1633557776.65195,1633557776.65405,125.355344047546,5.66457080841064,131.024123659134,133.124904623032,0.3,138.226810207367,1.05039191246033,139.279646863937,1,left,1.02892279624939,139.277202119827,604.467348566055,607.227348566055,1633557904.76729,1633557904.76927,1633557910.43607,1633557910.43807,1633557912.53685,1633557917.63876,1633557917.64096,1633557918.69159,1633557918.68915,1633558383.87929,1
73,4,2,3,8,6,3,c3_HowFace,2,looking to side?,66,F_111.jpg,1633557776.65195,1633557776.65405,125.355344047546,5.66457080841064,131.024123659134,133.124904623032,0.3,139.593986501694,0.917007923126221,140.513386955261,3,right,0.894365072250366,140.51099442482,604.467348566055,607.227348566055,1633557904.76729,1633557904.76927,1633557910.43607,1633557910.43807,1633557912.53685,1633557919.00593,1633557919.00854,1633557919.92533,1633557919.92294,1633558383.87929,0
73,4,2,3,8,7,3,c3_HowFace,1,looking to side?,69,F_110.jpg,1633557776.65195,1633557776.65405,125.355344047546,5.66457080841064,131.024123659134,133.124904623032,0.3,140.827779998779,1.01704597473145,141.846596946716,1,left,0.996777057647705,141.844825973511,604.467348566055,607.227348566055,1633557904.76729,1633557904.76927,1633557910.43607,1633557910.43807,1633557912.53685,1633557920.23973,1633557920.24181,1633557921.25854,1633557921.25677,1633558383.87929,1
73,4,2,3,8,8,3,c3_HowFace,2,looking to side?,65,F_798.jpg,1633557776.65195,1633557776.65405,125.355344047546,5.66457080841064,131.024123659134,133.124904623032,0.3,142.161611309052,1.00037240982056,143.164067974091,3,right,0.987343072891235,143.161983718872,604.467348566055,607.227348566055,1633557904.76729,1633557904.76927,1633557910.43607,1633557910.43807,1633557912.53685,1633557921.57356,1633557921.57604,1633557922.57601,1633557922.57393,1633558383.87929,0
73,4,2,3,9,1,1,c1_WhyFace,1,argument?,43,F_716.jpg,1633557776.65195,1633557776.65405,143.22867559433,6.89926838874817,150.131249895096,152.232032766342,2.10078287124634,152.382089128494,0.883662939071655,153.268325796127,1,left,0.861148118972778,153.265752067566,604.467348566055,607.227348566055,1633557922.64062,1633557922.64255,1633557929.5432,1633557929.54552,1633557931.64398,1633557931.79403,1633557931.79671,1633557932.68027,1633557932.6777,1633558383.87929,1
73,4,2,3,9,2,1,c1_WhyFace,2,argument?,44,F_139.jpg,1633557776.65195,1633557776.65405,143.22867559433,6.89926838874817,150.131249895096,152.232032766342,0.3,153.582536449432,0.716934204101562,154.301753988266,3,right,0.694192886352539,154.299470653534,604.467348566055,607.227348566055,1633557922.64062,1633557922.64255,1633557929.5432,1633557929.54552,1633557931.64398,1633557932.99448,1633557932.9967,1633557933.7137,1633557933.71142,1633558383.87929,0
73,4,2,3,9,3,1,c1_WhyFace,1,argument?,41,F_712.jpg,1633557776.65195,1633557776.65405,143.22867559433,6.89926838874817,150.131249895096,152.232032766342,0.3,154.616255512238,0.816972017288208,155.434912910461,1,left,0.803754091262817,155.433227529526,604.467348566055,607.227348566055,1633557922.64062,1633557922.64255,1633557929.5432,1633557929.54552,1633557931.64398,1633557934.0282,1633557934.0306,1633557934.84686,1633557934.84517,1633558383.87929,1
73,4,2,3,9,4,1,c1_WhyFace,2,argument?,45,F_433.jpg,1633557776.65195,1633557776.65405,143.22867559433,6.89926838874817,150.131249895096,152.232032766342,0.3,155.750011196136,0.80029821395874,156.552159776688,3,right,0.781783103942871,156.550309410095,604.467348566055,607.227348566055,1633557922.64062,1633557922.64255,1633557929.5432,1633557929.54552,1633557931.64398,1633557935.16196,1633557935.16452,1633557935.9641,1633557935.96225,1633558383.87929,0
73,4,2,3,9,5,1,c1_WhyFace,1,argument?,42,F_403.jpg,1633557776.65195,1633557776.65405,143.22867559433,6.89926838874817,150.131249895096,152.232032766342,0.3,156.867094268799,1.06706571578979,157.935714950562,1,left,1.0597288608551,157.934159984589,604.467348566055,607.227348566055,1633557922.64062,1633557922.64255,1633557929.5432,1633557929.54552,1633557931.64398,1633557936.27904,1633557936.28181,1633557937.34766,1633557937.34611,1633558383.87929,1
73,4,2,3,9,6,1,c1_WhyFace,2,argument?,46,F_844.jpg,1633557776.65195,1633557776.65405,143.22867559433,6.89926838874817,150.131249895096,152.232032766342,0.3,158.250943651199,0.967027902603149,159.219991912842,3,right,0.953239917755127,159.217971553802,604.467348566055,607.227348566055,1633557922.64062,1633557922.64255,1633557929.5432,1633557929.54552,1633557931.64398,1633557937.66289,1633557937.66517,1633557938.63194,1633557938.62992,1633558383.87929,0
73,4,2,3,9,7,1,c1_WhyFace,1,argument?,47,F_743.jpg,1633557776.65195,1633557776.65405,143.22867559433,6.89926838874817,150.131249895096,152.232032766342,0.3,159.534756412506,0.716933250427246,160.253377904892,1,left,0.70423412322998,160.251689662933,604.467348566055,607.227348566055,1633557922.64062,1633557922.64255,1633557929.5432,1633557929.54552,1633557931.64398,1633557938.9467,1633557938.94957,1633557939.66532,1633557939.66363,1633558383.87929,1
73,4,2,3,9,8,1,c1_WhyFace,1,argument?,48,F_758.jpg,1633557776.65195,1633557776.65405,143.22867559433,6.89926838874817,150.131249895096,152.232032766342,0.3,160.568475236893,0.950354814529419,161.520591964722,1,left,0.933924913406372,161.518830051422,604.467348566055,607.227348566055,1633557922.64062,1633557922.64255,1633557929.5432,1633557929.54552,1633557931.64398,1633557939.98042,1633557939.98286,1633557940.93254,1633557940.93078,1633558383.87929,1
73,4,2,3,10,1,3,c3_HowFace,1,open mouth?,80,F_844.jpg,1633557776.65195,1633557776.65405,161.585519542694,6.38252234458923,167.971235980988,170.072018613815,2.10078263282776,170.222074975967,1.21712064743042,171.441239824295,1,left,1.2073290348053,171.439195623398,604.467348566055,607.227348566055,1633557940.99746,1633557940.99962,1633557947.38318,1633557947.38531,1633557949.48396,1633557949.63402,1633557949.6366,1633557950.85318,1633557950.85114,1633558383.87929,1
73,4,2,3,10,2,3,c3_HowFace,1,open mouth?,74,F_776.jpg,1633557776.65195,1633557776.65405,161.585519542694,6.38252234458923,167.971235980988,170.072018613815,0.3,171.75598072052,0.66691517829895,172.424864997864,1,left,0.649760961532593,172.422895898819,604.467348566055,607.227348566055,1633557940.99746,1633557940.99962,1633557947.38318,1633557947.38531,1633557949.48396,1633557951.16793,1633557951.17057,1633557951.83681,1633557951.83484,1633558383.87929,1
73,4,2,3,10,3,3,c3_HowFace,2,open mouth?,76,F_544.jpg,1633557776.65195,1633557776.65405,161.585519542694,6.38252234458923,167.971235980988,170.072018613815,0.3,172.739680519104,0.800298452377319,173.54158495903,3,right,0.790134906768799,173.539978971481,604.467348566055,607.227348566055,1633557940.99746,1633557940.99962,1633557947.38318,1633557947.38531,1633557949.48396,1633557952.15163,1633557952.1541,1633557952.95353,1633557952.95192,1633558383.87929,0
73,4,2,3,10,4,3,c3_HowFace,1,open mouth?,78,F_692.jpg,1633557776.65195,1633557776.65405,161.585519542694,6.38252234458923,167.971235980988,170.072018613815,0.3,173.856764068604,0.600223302841187,174.459222784042,1,left,0.580574035644531,174.456987371445,604.467348566055,607.227348566055,1633557940.99746,1633557940.99962,1633557947.38318,1633557947.38531,1633557949.48396,1633557953.26871,1633557953.27091,1633557953.87117,1633557953.86893,1633558383.87929,1
73,4,2,3,10,5,3,c3_HowFace,2,open mouth?,77,F_584.jpg,1633557776.65195,1633557776.65405,161.585519542694,6.38252234458923,167.971235980988,170.072018613815,0.3,174.773772945404,0.833643436431885,175.609448900223,3,right,0.81913685798645,175.607416381836,604.467348566055,607.227348566055,1633557940.99746,1633557940.99962,1633557947.38318,1633557947.38531,1633557949.48396,1633557954.18572,1633557954.1886,1633557955.02139,1633557955.01936,1633558383.87929,0
73,4,2,3,10,6,3,c3_HowFace,1,open mouth?,73,F_403.jpg,1633557776.65195,1633557776.65405,161.585519542694,6.38252234458923,167.971235980988,170.072018613815,0.3,175.924201955795,0.633569002151489,176.55956577301,1,left,0.620098114013672,176.557770957947,604.467348566055,607.227348566055,1633557940.99746,1633557940.99962,1633557947.38318,1633557947.38531,1633557949.48396,1633557955.33615,1633557955.33896,1633557955.97151,1633557955.96972,1633558383.87929,1
73,4,2,3,10,7,3,c3_HowFace,1,open mouth?,75,F_086.jpg,1633557776.65195,1633557776.65405,161.585519542694,6.38252234458923,167.971235980988,170.072018613815,0.3,176.874555578232,0.666915893554688,177.543591966629,1,left,0.64623498916626,177.541471471787,604.467348566055,607.227348566055,1633557940.99746,1633557940.99962,1633557947.38318,1633557947.38531,1633557949.48396,1633557956.2865,1633557956.28883,1633557956.95554,1633557956.95342,1633558383.87929,1
73,4,2,3,10,8,3,c3_HowFace,2,open mouth?,79,F_648.jpg,1633557776.65195,1633557776.65405,161.585519542694,6.38252234458923,167.971235980988,170.072018613815,0.3,177.858256807327,0.700260877609253,178.560312976837,3,right,0.692276954650879,178.558517684937,604.467348566055,607.227348566055,1633557940.99746,1633557940.99962,1633557947.38318,1633557947.38531,1633557949.48396,1633557957.2702,1633557957.27264,1633557957.97226,1633557957.97046,1633558383.87929,0
73,4,2,3,11,1,4,c4_HowHand,1,pressing button?,88,H_019.jpg,1633557776.65195,1633557776.65405,178.625208845139,7.23273611068726,185.861240377426,187.962023963928,2.10078358650208,188.112080087662,0.816971063613892,188.931124916077,1,left,0.802399873733521,188.929051151276,604.467348566055,607.227348566055,1633557958.03715,1633557958.03879,1633557965.27319,1633557965.27571,1633557967.37397,1633557967.52403,1633557967.52577,1633557968.34307,1633557968.341,1633558383.87929,1
73,4,2,3,11,2,4,c4_HowHand,2,pressing button?,87,H_024.jpg,1633557776.65195,1633557776.65405,178.625208845139,7.23273611068726,185.861240377426,187.962023963928,0.3,189.245836963654,1.01704478263855,190.265608778,3,right,0.997036933898926,190.262881746292,604.467348566055,607.227348566055,1633557958.03715,1633557958.03879,1633557965.27319,1633557965.27571,1633557967.37397,1633557968.65778,1633557968.66036,1633557969.67755,1633557969.67483,1633558383.87929,0
73,4,2,3,11,3,4,c4_HowHand,2,pressing button?,85,H_130.jpg,1633557776.65195,1633557776.65405,178.625208845139,7.23273611068726,185.861240377426,187.962023963928,0.3,190.579666604996,0.950354814529419,191.532304992676,3,right,0.927865982055664,191.530021419525,604.467348566055,607.227348566055,1633557958.03715,1633557958.03879,1633557965.27319,1633557965.27571,1633557967.37397,1633557969.99161,1633557969.99432,1633557970.94425,1633557970.94197,1633558383.87929,0
73,4,2,3,11,4,4,c4_HowHand,1,pressing button?,83,H_502.jpg,1633557776.65195,1633557776.65405,178.625208845139,7.23273611068726,185.861240377426,187.962023963928,0.3,191.846806755066,0.766952514648438,192.615478982925,1,left,0.759376049041748,192.613759269714,604.467348566055,607.227348566055,1633557958.03715,1633557958.03879,1633557965.27319,1633557965.27571,1633557967.37397,1633557971.25875,1633557971.26141,1633557972.02742,1633557972.0257,1633558383.87929,1
73,4,2,3,11,5,4,c4_HowHand,2,pressing button?,81,H_261.jpg,1633557776.65195,1633557776.65405,178.625208845139,7.23273611068726,185.861240377426,187.962023963928,0.3,192.930543889999,0.850316762924194,193.783053865433,3,right,0.83290696144104,193.780860652924,604.467348566055,607.227348566055,1633557958.03715,1633557958.03879,1633557965.27319,1633557965.27571,1633557967.37397,1633557972.34249,1633557972.34516,1633557973.195,1633557973.19281,1633558383.87929,0
73,4,2,3,11,6,4,c4_HowHand,1,pressing button?,86,H_332.jpg,1633557776.65195,1633557776.65405,178.625208845139,7.23273611068726,185.861240377426,187.962023963928,0.3,194.097645750046,0.750279903411865,194.849993934631,1,left,0.733898878097534,194.847925653458,604.467348566055,607.227348566055,1633557958.03715,1633557958.03879,1633557965.27319,1633557965.27571,1633557967.37397,1633557973.50959,1633557973.51258,1633557974.26194,1633557974.25987,1633558383.87929,1
73,4,2,3,11,7,4,c4_HowHand,1,pressing button?,82,H_126.jpg,1633557776.65195,1633557776.65405,178.625208845139,7.23273611068726,185.861240377426,187.962023963928,0.3,195.16471075058,0.700261116027832,195.866591920853,1,left,0.688549995422363,195.864971866608,604.467348566055,607.227348566055,1633557958.03715,1633557958.03879,1633557965.27319,1633557965.27571,1633557967.37397,1633557974.57666,1633557974.57914,1633557975.27854,1633557975.27692,1633558383.87929,1
73,4,2,3,11,8,4,c4_HowHand,1,pressing button?,84,H_483.jpg,1633557776.65195,1633557776.65405,178.625208845139,7.23273611068726,185.861240377426,187.962023963928,0.3,196.181756248474,0.800298452377319,196.983752002716,1,left,0.789329051971436,196.982054700851,604.467348566055,607.227348566055,1633557958.03715,1633557958.03879,1633557965.27319,1633557965.27571,1633557967.37397,1633557975.5937,1633557975.5959,1633557976.3957,1633557976.394,1633558383.87929,1
73,4,2,3,12,1,2,c2_WhyHand,1,competing?,9,H_261.jpg,1633557776.65195,1633557776.65405,197.065418949127,6.58262395858765,203.651208629608,205.751991500855,2.10078287124634,205.902047863007,0.783624887466431,206.687426795959,1,left,0.766753911972046,206.685672750473,604.467348566055,607.227348566055,1633557976.47736,1633557976.48022,1633557983.06315,1633557983.06562,1633557985.16394,1633557985.31399,1633557985.31668,1633557986.09937,1633557986.09762,1633558383.87929,1
73,4,2,3,12,2,2,c2_WhyHand,2,competing?,12,H_483.jpg,1633557776.65195,1633557776.65405,197.065418949127,6.58262395858765,203.651208629608,205.751991500855,0.3,207.002458324432,0.967026710510254,207.971122970581,3,right,0.944149017333984,207.969485034943,604.467348566055,607.227348566055,1633557976.47736,1633557976.48022,1633557983.06315,1633557983.06562,1633557985.16394,1633557986.4144,1633557986.41686,1633557987.38307,1633557987.38143,1633558383.87929,0
73,4,2,3,12,3,2,c2_WhyHand,1,competing?,14,H_132.jpg,1633557776.65195,1633557776.65405,197.065418949127,6.58262395858765,203.651208629608,205.751991500855,0.3,208.286270847321,0.766952276229858,209.055619945526,1,left,0.748101949691772,209.05322312355,604.467348566055,607.227348566055,1633557976.47736,1633557976.48022,1633557983.06315,1633557983.06562,1633557985.16394,1633557987.69822,1633557987.70065,1633557988.46757,1633557988.46517,1633558383.87929,1
73,4,2,3,12,4,2,c2_WhyHand,2,competing?,10,H_126.jpg,1633557776.65195,1633557776.65405,197.065418949127,6.58262395858765,203.651208629608,205.751991500855,0.3,209.370007743835,0.800297737121582,210.172807922363,3,right,0.781898975372314,210.170305480957,604.467348566055,607.227348566055,1633557976.47736,1633557976.48022,1633557983.06315,1633557983.06562,1633557985.16394,1633557988.78195,1633557988.78436,1633557989.58475,1633557989.58225,1633558383.87929,0
73,4,2,3,12,5,2,c2_WhyHand,1,competing?,16,H_136.jpg,1633557776.65195,1633557776.65405,197.065418949127,6.58262395858765,203.651208629608,205.751991500855,0.3,210.487090578079,1.00037336349487,211.489434947968,1,left,0.979625940322876,211.487463941574,604.467348566055,607.227348566055,1633557976.47736,1633557976.48022,1633557983.06315,1633557983.06562,1633557985.16394,1633557989.89904,1633557989.90178,1633557990.90138,1633557990.89941,1633558383.87929,1
73,4,2,3,12,6,2,c2_WhyHand,2,competing?,11,H_502.jpg,1633557776.65195,1633557776.65405,197.065418949127,6.58262395858765,203.651208629608,205.751991500855,0.3,211.804248323441,1.13375663757324,212.940424909592,3,right,1.11782717704773,212.938004961014,604.467348566055,607.227348566055,1633557976.47736,1633557976.48022,1633557983.06315,1633557983.06562,1633557985.16394,1633557991.21619,1633557991.21862,1633557992.35237,1633557992.34995,1633558383.87929,0
73,4,2,3,12,7,2,c2_WhyHand,1,competing?,13,H_003.jpg,1633557776.65195,1633557776.65405,197.065418949127,6.58262395858765,203.651208629608,205.751991500855,0.3,213.254790058136,0.933680772781372,214.190252771378,1,left,0.910292863845825,214.188470830917,604.467348566055,607.227348566055,1633557976.47736,1633557976.48022,1633557983.06315,1633557983.06562,1633557985.16394,1633557992.66674,1633557992.66944,1633557993.6022,1633557993.60042,1633558383.87929,1
73,4,2,3,12,8,2,c2_WhyHand,1,competing?,15,H_170.jpg,1633557776.65195,1633557776.65405,197.065418949127,6.58262395858765,203.651208629608,205.751991500855,0.3,214.505254974365,0.683589935302734,215.19076084137,1,left,0.676768064498901,215.188844909668,604.467348566055,607.227348566055,1633557976.47736,1633557976.48022,1633557983.06315,1633557983.06562,1633557985.16394,1633557993.9172,1633557993.91965,1633557994.60271,1633557994.60079,1633558383.87929,1
73,4,2,3,13,1,1,c1_WhyFace,1,self-doubt?,29,F_544.jpg,1633557776.65195,1633557776.65405,215.25553606987,6.46249175071716,221.724614849091,223.825399150848,2.10078430175781,223.975454797745,0.883663177490234,224.860795965195,1,left,0.870516061782837,224.859117975235,604.467348566055,607.227348566055,1633557994.66748,1633557994.66918,1633558001.13656,1633558001.13901,1633558003.23734,1633558003.3874,1633558003.39004,1633558004.27274,1633558004.27106,1633558383.87929,1
73,4,2,3,13,2,1,c1_WhyFace,2,self-doubt?,27,F_086.jpg,1633557776.65195,1633557776.65405,215.25553606987,6.46249175071716,221.724614849091,223.825399150848,0.3,225.175901880264,0.866989374160767,226.044629802704,3,right,0.858802795410156,226.042891254425,604.467348566055,607.227348566055,1633557994.66748,1633557994.66918,1633558001.13656,1633558001.13901,1633558003.23734,1633558004.58785,1633558004.59061,1633558005.45657,1633558005.45484,1633558383.87929,0
73,4,2,3,13,3,1,c1_WhyFace,1,self-doubt?,25,F_798.jpg,1633557776.65195,1633557776.65405,215.25553606987,6.46249175071716,221.724614849091,223.825399150848,0.3,226.359676828384,0.866989612579346,227.228578796387,1,left,0.84873104095459,227.226666440964,604.467348566055,607.227348566055,1633557994.66748,1633557994.66918,1633558001.13656,1633558001.13901,1633558003.23734,1633558005.77162,1633558005.77391,1633558006.64052,1633558006.63861,1633558383.87929,1
73,4,2,3,13,4,1,c1_WhyFace,1,self-doubt?,26,F_111.jpg,1633557776.65195,1633557776.65405,215.25553606987,6.46249175071716,221.724614849091,223.825399150848,0.3,227.543451776505,0.900336503982544,228.445500841141,1,left,0.892652034759521,228.443788280487,604.467348566055,607.227348566055,1633557994.66748,1633557994.66918,1633558001.13656,1633558001.13901,1633558003.23734,1633558006.9554,1633558006.95831,1633558007.85745,1633558007.85573,1633558383.87929,1
73,4,2,3,13,5,1,c1_WhyFace,2,self-doubt?,31,F_774.jpg,1633557776.65195,1633557776.65405,215.25553606987,6.46249175071716,221.724614849091,223.825399150848,0.3,228.760571947098,0.833644151687622,229.596408834457,3,right,0.81893515586853,229.594216098785,604.467348566055,607.227348566055,1633557994.66748,1633557994.66918,1633558001.13656,1633558001.13901,1633558003.23734,1633558008.17252,1633558008.17414,1633558009.00835,1633558009.00616,1633558383.87929,0
73,4,2,3,13,6,1,c1_WhyFace,1,self-doubt?,28,F_754.jpg,1633557776.65195,1633557776.65405,215.25553606987,6.46249175071716,221.724614849091,223.825399150848,0.3,229.911000480652,1.46721458435059,231.380585899353,1,left,1.45470499992371,231.378215065002,604.467348566055,607.227348566055,1633557994.66748,1633557994.66918,1633558001.13656,1633558001.13901,1633558003.23734,1633558009.32295,1633558009.3253,1633558010.79253,1633558010.79016,1633558383.87929,1
73,4,2,3,13,7,1,c1_WhyFace,2,self-doubt?,32,F_128.jpg,1633557776.65195,1633557776.65405,215.25553606987,6.46249175071716,221.724614849091,223.825399150848,0.3,231.694999923706,1.11708283424377,232.814448823929,3,right,1.09621405601501,232.81208275795,604.467348566055,607.227348566055,1633557994.66748,1633557994.66918,1633558001.13656,1633558001.13901,1633558003.23734,1633558011.10695,1633558011.10917,1633558012.22639,1633558012.22403,1633558383.87929,0
73,4,2,3,13,8,1,c1_WhyFace,1,self-doubt?,30,F_584.jpg,1633557776.65195,1633557776.65405,215.25553606987,6.46249175071716,221.724614849091,223.825399150848,0.3,233.128867139816,1.26714015007019,234.39801692009,3,right,1.25936698913574,234.396007289886,604.467348566055,607.227348566055,1633557994.66748,1633557994.66918,1633558001.13656,1633558001.13901,1633558003.23734,1633558012.54081,1633558012.54271,1633558013.80996,1633558013.80795,1633558383.87929,0
73,4,2,3,14,1,3,c3_HowFace,1,looking at camera?,64,F_128.jpg,1633557776.65195,1633557776.65405,234.479372253418,6.29255771636963,240.78172205925,242.882505884171,2.10078382492065,243.032560815811,1.35050392150879,244.385164966583,1,left,1.33545613288879,244.38306473732,604.467348566055,607.227348566055,1633558013.89132,1633558013.89354,1633558020.19367,1633558020.19653,1633558022.29445,1633558022.44451,1633558022.44608,1633558023.79711,1633558023.79501,1633558383.87929,1
73,4,2,3,14,2,3,c3_HowFace,1,looking at camera?,60,F_618.jpg,1633557776.65195,1633557776.65405,234.479372253418,6.29255771636963,240.78172205925,242.882505884171,0.3,244.699849596024,0.616895914077759,245.318486919403,1,left,0.600332975387573,245.316745510101,604.467348566055,607.227348566055,1633558013.89132,1633558013.89354,1633558020.19367,1633558020.19653,1633558022.29445,1633558024.11179,1633558024.11423,1633558024.73043,1633558024.72869,1633558383.87929,1
73,4,2,3,14,3,3,c3_HowFace,1,looking at camera?,62,F_598.jpg,1633557776.65195,1633557776.65405,234.479372253418,6.29255771636963,240.78172205925,242.882505884171,0.3,245.633531084061,0.566878080368042,246.202716817856,1,left,0.54700493812561,246.200409164429,604.467348566055,607.227348566055,1633558013.89132,1633558013.89354,1633558020.19367,1633558020.19653,1633558022.29445,1633558025.04548,1633558025.04816,1633558025.61466,1633558025.61235,1633558383.87929,1
73,4,2,3,14,4,3,c3_HowFace,2,looking at camera?,63,F_743.jpg,1633557776.65195,1633557776.65405,234.479372253418,6.29255771636963,240.78172205925,242.882505884171,0.3,246.517193784714,0.650243282318115,247.169519891739,3,right,0.636670112609863,247.167437067032,604.467348566055,607.227348566055,1633558013.89132,1633558013.89354,1633558020.19367,1633558020.19653,1633558022.29445,1633558025.92914,1633558025.93154,1633558026.58147,1633558026.57938,1633558383.87929,0
73,4,2,3,14,5,3,c3_HowFace,1,looking at camera?,61,F_774.jpg,1633557776.65195,1633557776.65405,234.479372253418,6.29255771636963,240.78172205925,242.882505884171,0.3,247.484220733643,0.616896867752075,248.103055944443,1,left,0.594424962997437,248.101117601395,604.467348566055,607.227348566055,1633558013.89132,1633558013.89354,1633558020.19367,1633558020.19653,1633558022.29445,1633558026.89617,1633558026.89885,1633558027.515,1633558027.51306,1633558383.87929,1
73,4,2,3,14,6,3,c3_HowFace,2,looking at camera?,57,F_582.jpg,1633557776.65195,1633557776.65405,234.479372253418,6.29255771636963,240.78172205925,242.882505884171,0.3,248.417902698517,0.716933488845825,249.136585941315,3,right,0.700828790664673,249.134836187363,604.467348566055,607.227348566055,1633558013.89132,1633558013.89354,1633558020.19367,1633558020.19653,1633558022.29445,1633558027.82985,1633558027.8324,1633558028.54853,1633558028.54678,1633558383.87929,0
73,4,2,3,14,7,3,c3_HowFace,2,looking at camera?,58,F_754.jpg,1633557776.65195,1633557776.65405,234.479372253418,6.29255771636963,240.78172205925,242.882505884171,0.3,249.451621522903,0.883663177490234,250.337022771835,3,right,0.865795135498047,250.335284700394,604.467348566055,607.227348566055,1633558013.89132,1633558013.89354,1633558020.19367,1633558020.19653,1633558022.29445,1633558028.86357,1633558028.86565,1633558029.74897,1633558029.74723,1633558383.87929,0
73,4,2,3,14,8,3,c3_HowFace,1,looking at camera?,59,F_129.jpg,1633557776.65195,1633557776.65405,234.479372253418,6.29255771636963,240.78172205925,242.882505884171,0.3,250.652069797516,0.716932773590088,251.370639791489,1,left,0.708178043365479,251.369002571106,604.467348566055,607.227348566055,1633558013.89132,1633558013.89354,1633558020.19367,1633558020.19653,1633558022.29445,1633558030.06401,1633558030.06631,1633558030.78258,1633558030.78095,1633558383.87929,1
73,4,2,3,15,1,4,c4_HowHand,1,both hands?,123,H_167.jpg,1633557776.65195,1633557776.65405,251.452367773056,8.10954117774963,259.572062959671,261.672845830917,2.10078287124634,261.822901716232,1.10041046142578,262.925422897339,1,left,1.09234499931335,262.923312177658,604.467348566055,607.227348566055,1633558030.86431,1633558030.86606,1633558038.98401,1633558038.98621,1633558041.08479,1633558041.23485,1633558041.2374,1633558042.33737,1633558042.33526,1633558383.87929,1
73,4,2,3,15,2,4,c4_HowHand,2,both hands?,121,H_091.jpg,1633557776.65195,1633557776.65405,251.452367773056,8.10954117774963,259.572062959671,261.672845830917,0.3,263.24009727478,0.933681726455688,264.175417890549,3,right,0.923941135406494,264.173779001236,604.467348566055,607.227348566055,1633558030.86431,1633558030.86606,1633558038.98401,1633558038.98621,1633558041.08479,1633558042.65204,1633558042.65398,1633558043.58736,1633558043.58572,1633558383.87929,0
73,4,2,3,15,3,4,c4_HowHand,2,both hands?,125,H_627.jpg,1633557776.65195,1633557776.65405,251.452367773056,8.10954117774963,259.572062959671,261.672845830917,0.3,264.490563621521,1.15042853355408,265.642651786804,3,right,1.14231896400452,265.640992155075,604.467348566055,607.227348566055,1633558030.86431,1633558030.86606,1633558038.98401,1633558038.98621,1633558041.08479,1633558043.90251,1633558043.90519,1633558045.0546,1633558045.05294,1633558383.87929,0
73,4,2,3,15,4,4,c4_HowHand,1,both hands?,128,H_027.jpg,1633557776.65195,1633557776.65405,251.452367773056,8.10954117774963,259.572062959671,261.672845830917,0.3,265.95777677536,1.01704573631287,266.976563920975,1,left,0.994457006454468,266.974822511673,604.467348566055,607.227348566055,1633558030.86431,1633558030.86606,1633558038.98401,1633558038.98621,1633558041.08479,1633558045.36972,1633558045.37203,1633558046.38851,1633558046.38677,1633558383.87929,1
73,4,2,3,15,5,4,c4_HowHand,1,both hands?,122,H_111.jpg,1633557776.65195,1633557776.65405,251.452367773056,8.10954117774963,259.572062959671,261.672845830917,0.3,267.291607847214,0.800298929214478,268.093868961334,1,left,0.777936935424805,268.091906776428,604.467348566055,607.227348566055,1633558030.86431,1633558030.86606,1633558038.98401,1633558038.98621,1633558041.08479,1633558046.70355,1633558046.7062,1633558047.50581,1633558047.50385,1633558383.87929,1
73,4,2,3,15,6,4,c4_HowHand,2,both hands?,126,H_159.jpg,1633557776.65195,1633557776.65405,251.452367773056,8.10954117774963,259.572062959671,261.672845830917,0.3,268.408691158295,0.866989374160767,269.277672996521,3,right,0.856181144714355,269.275680532455,604.467348566055,607.227348566055,1633558030.86431,1633558030.86606,1633558038.98401,1633558038.98621,1633558041.08479,1633558047.82064,1633558047.82282,1633558048.68962,1633558048.68763,1633558383.87929,0
73,4,2,3,15,7,4,c4_HowHand,1,both hands?,124,H_581.jpg,1633557776.65195,1633557776.65405,251.452367773056,8.10954117774963,259.572062959671,261.672845830917,0.3,269.592465391159,0.96702766418457,270.561074962616,1,left,0.960690975189209,270.559493055344,604.467348566055,607.227348566055,1633558030.86431,1633558030.86606,1633558038.98401,1633558038.98621,1633558041.08479,1633558049.00441,1633558049.00661,1633558049.97302,1633558049.97144,1633558383.87929,1
73,4,2,3,15,8,4,c4_HowHand,1,both hands?,127,H_349.jpg,1633557776.65195,1633557776.65405,251.452367773056,8.10954117774963,259.572062959671,261.672845830917,0.3,270.876277914047,0.733606815338135,271.61214589119,1,left,0.709814071655273,271.609884729385,604.467348566055,607.227348566055,1633558030.86431,1633558030.86606,1633558038.98401,1633558038.98621,1633558041.08479,1633558050.28822,1633558050.29063,1633558051.02409,1633558051.02183,1633558383.87929,1
73,4,2,3,16,1,2,c2_WhyHand,1,self-protection?,89,H_443.jpg,1633557776.65195,1633557776.65405,271.693249692917,6.65880227088928,278.362402429581,280.463186731339,2.10078430175781,280.613243093491,1.11708235740662,281.73212884903,1,left,1.09922790527344,281.730325450897,604.467348566055,607.227348566055,1633558051.10519,1633558051.10762,1633558057.77435,1633558057.77622,1633558059.87513,1633558060.02519,1633558060.02778,1633558061.14407,1633558061.14227,1633558383.87929,1
73,4,2,3,16,2,2,c2_WhyHand,2,self-protection?,90,H_006.jpg,1633557776.65195,1633557776.65405,271.693249692917,6.65880227088928,278.362402429581,280.463186731339,0.3,282.047110786438,1.46721291542053,283.51597284317,1,left,1.45896792411804,283.514323701859,604.467348566055,607.227348566055,1633558051.10519,1633558051.10762,1633558057.77435,1633558057.77622,1633558059.87513,1633558061.45906,1633558061.46152,1633558062.92792,1633558062.92627,1633558383.87929,0
73,4,2,3,16,3,2,c2_WhyHand,1,self-protection?,91,H_581.jpg,1633557776.65195,1633557776.65405,271.693249692917,6.65880227088928,278.362402429581,280.463186731339,0.3,283.831109037399,1.71730828285217,285.677565803528,3,right,1.82391495704651,285.548417320251,604.467348566055,607.227348566055,1633558051.10519,1633558051.10762,1633558057.77435,1633558057.77622,1633558059.87513,1633558063.24305,1633558063.24555,1633558065.08951,1633558064.96036,1633558383.87929,0
73,4,2,3,16,4,2,c2_WhyHand,2,self-protection?,92,H_532.jpg,1633557776.65195,1633557776.65405,271.693249692917,6.65880227088928,278.362402429581,280.463186731339,0.3,285.865200271606,0.0166730880737305,285.88360499382,3,right,0.000244855880737305,285.88187335968,604.467348566055,607.227348566055,1633558051.10519,1633558051.10762,1633558057.77435,1633558057.77622,1633558059.87513,1633558065.27715,1633558065.27938,1633558065.29555,1633558065.29382,1633558383.87929,0
73,4,2,3,16,5,2,c2_WhyHand,1,self-protection?,96,H_027.jpg,1633557776.65195,1633557776.65405,271.693249692917,6.65880227088928,278.362402429581,280.463186731339,0.3,286.198659410477,1.15042853355408,287.350713005066,1,left,1.14198398590088,287.349087944031,604.467348566055,607.227348566055,1633558051.10519,1633558051.10762,1633558057.77435,1633558057.77622,1633558059.87513,1633558065.6106,1633558065.61344,1633558066.76266,1633558066.76103,1633558383.87929,1
73,4,2,3,16,6,2,c2_WhyHand,1,self-protection?,93,H_038.jpg,1633557776.65195,1633557776.65405,271.693249692917,6.65880227088928,278.362402429581,280.463186731339,0.3,287.665873041153,1.18377494812012,288.852041950226,1,left,1.16369009017944,288.849647989273,604.467348566055,607.227348566055,1633558051.10519,1633558051.10762,1633558057.77435,1633558057.77622,1633558059.87513,1633558067.07782,1633558067.08036,1633558068.26399,1633558068.26159,1633558383.87929,1
73,4,2,3,16,7,2,c2_WhyHand,2,self-protection?,95,H_332.jpg,1633557776.65195,1633557776.65405,271.693249692917,6.65880227088928,278.362402429581,280.463186731339,0.3,289.16643237114,1.05039095878601,290.21891497612,3,right,1.02872586250305,290.216823329926,604.467348566055,607.227348566055,1633558051.10519,1633558051.10762,1633558057.77435,1633558057.77622,1633558059.87513,1633558068.57838,1633558068.58094,1633558069.63086,1633558069.62877,1633558383.87929,0
73,4,2,3,16,8,2,c2_WhyHand,1,self-protection?,94,H_189.jpg,1633557776.65195,1633557776.65405,271.693249692917,6.65880227088928,278.362402429581,280.463186731339,0.3,290.533608427048,1.03371930122375,291.569724788666,1,left,1.020916223526,291.567327728271,604.467348566055,607.227348566055,1633558051.10519,1633558051.10762,1633558057.77435,1633558057.77622,1633558059.87513,1633558069.94555,1633558069.94784,1633558070.98167,1633558070.97927,1633558383.87929,1
73,4,2,3,17,1,3,c3_HowFace,1,smiling?,118,F_759.jpg,1633557776.65195,1633557776.65405,291.650691976547,8.18120980262756,299.837078084946,301.937860956192,2.10078287124634,302.087918272018,0.800297975540161,302.890500774384,1,left,0.783715009689331,302.888216247559,604.467348566055,607.227348566055,1633558071.06264,1633558071.06514,1633558079.24902,1633558079.25102,1633558081.34981,1633558081.49986,1633558081.50228,1633558082.30245,1633558082.30016,1633558383.87929,1
73,4,2,3,17,2,3,c3_HowFace,2,smiling?,114,F_412.jpg,1633557776.65195,1633557776.65405,291.650691976547,8.18120980262756,299.837078084946,301.937860956192,0.3,303.205000152588,0.900335788726807,304.1071438694,3,right,0.880887985229492,304.105335941315,604.467348566055,607.227348566055,1633558071.06264,1633558071.06514,1633558079.24902,1633558079.25102,1633558081.34981,1633558082.61695,1633558082.61887,1633558083.51909,1633558083.51728,1633558383.87929,0
73,4,2,3,17,3,3,c3_HowFace,1,smiling?,117,F_593.jpg,1633557776.65195,1633557776.65405,291.650691976547,8.18120980262756,299.837078084946,301.937860956192,0.3,304.422122468948,0.816970348358154,305.241540899277,1,left,0.795413970947266,305.239092817307,604.467348566055,607.227348566055,1633558071.06264,1633558071.06514,1633558079.24902,1633558079.25102,1633558081.34981,1633558083.83407,1633558083.83722,1633558084.65349,1633558084.65104,1633558383.87929,1
73,4,2,3,17,4,3,c3_HowFace,2,smiling?,113,F_712.jpg,1633557776.65195,1633557776.65405,291.650691976547,8.18120980262756,299.837078084946,301.937860956192,0.3,305.555876722336,0.666915893554688,306.22483300209,3,right,0.649289131164551,306.222792615891,604.467348566055,607.227348566055,1633558071.06264,1633558071.06514,1633558079.24902,1633558079.25102,1633558081.34981,1633558084.96782,1633558084.97017,1633558085.63678,1633558085.63474,1633558383.87929,0
73,4,2,3,17,5,3,c3_HowFace,1,smiling?,115,F_695.jpg,1633557776.65195,1633557776.65405,291.650691976547,8.18120980262756,299.837078084946,301.937860956192,0.3,306.53957818985,0.600222587585449,307.141465892792,1,left,0.591017961502075,307.139800777435,604.467348566055,607.227348566055,1633558071.06264,1633558071.06514,1633558079.24902,1633558079.25102,1633558081.34981,1633558085.95152,1633558085.95376,1633558086.55341,1633558086.55175,1633558383.87929,1
73,4,2,3,17,6,3,c3_HowFace,1,smiling?,119,F_139.jpg,1633557776.65195,1633557776.65405,291.650691976547,8.18120980262756,299.837078084946,301.937860956192,0.3,307.456586828232,0.566877126693726,308.026251783371,1,left,0.554792165756226,308.023463954926,604.467348566055,607.227348566055,1633558071.06264,1633558071.06514,1633558079.24902,1633558079.25102,1633558081.34981,1633558086.86853,1633558086.87077,1633558087.4382,1633558087.43541,1633558383.87929,1
73,4,2,3,17,7,3,c3_HowFace,1,smiling?,116,F_083.jpg,1633557776.65195,1633557776.65405,291.650691976547,8.18120980262756,299.837078084946,301.937860956192,0.3,308.340249052048,0.600224256515503,308.942306985855,1,left,0.588243007659912,308.940473308563,604.467348566055,607.227348566055,1633558071.06264,1633558071.06514,1633558079.24902,1633558079.25102,1633558081.34981,1633558087.75219,1633558087.75405,1633558088.35425,1633558088.35242,1633558383.87929,1
73,4,2,3,17,8,3,c3_HowFace,2,smiling?,120,F_758.jpg,1633557776.65195,1633557776.65405,291.650691976547,8.18120980262756,299.837078084946,301.937860956192,0.3,309.257257928848,0.750279188156128,310.009721984863,3,right,0.730681896209717,310.007537117004,604.467348566055,607.227348566055,1633558071.06264,1633558071.06514,1633558079.24902,1633558079.25102,1633558081.34981,1633558088.6692,1633558088.67143,1633558089.42167,1633558089.41948,1633558383.87929,0
73,4,2,3,18,1,1,c1_WhyFace,1,admiring?,1,F_593.jpg,1633557776.65195,1633557776.65405,310.090902080536,7.53114175796509,317.627045621872,319.727830162048,2.10078454017639,319.87788485527,0.983700752258301,320.863652935028,1,left,0.965190887451172,320.861585607529,604.467348566055,607.227348566055,1633558089.50285,1633558089.50482,1633558097.03899,1633558097.04188,1633558099.13978,1633558099.28983,1633558099.29218,1633558100.2756,1633558100.27353,1633558383.87929,1
73,4,2,3,18,2,1,c1_WhyFace,2,admiring?,2,F_129.jpg,1633557776.65195,1633557776.65405,310.090902080536,7.53114175796509,317.627045621872,319.727830162048,0.3,321.178370943069,0.78362512588501,321.963925828934,3,right,0.76459789276123,321.961996068954,604.467348566055,607.227348566055,1633558089.50285,1633558089.50482,1633558097.03899,1633558097.04188,1633558099.13978,1633558100.59032,1633558100.59295,1633558101.37587,1633558101.37394,1633558383.87929,0
73,4,2,3,18,3,1,c1_WhyFace,1,admiring?,5,F_759.jpg,1633557776.65195,1633557776.65405,310.090902080536,7.53114175796509,317.627045621872,319.727830162048,0.3,322.27878068924,0.800297737121582,323.080841770172,1,left,0.787301063537598,323.079078426361,604.467348566055,607.227348566055,1633558089.50285,1633558089.50482,1633558097.03899,1633558097.04188,1633558099.13978,1633558101.69073,1633558101.69328,1633558102.49279,1633558102.49102,1633558383.87929,1
73,4,2,3,18,4,1,c1_WhyFace,2,admiring?,6,F_692.jpg,1633557776.65195,1633557776.65405,310.090902080536,7.53114175796509,317.627045621872,319.727830162048,0.3,323.395863761902,1.05039167404175,324.447961797714,3,right,1.03765392303467,324.446255435944,604.467348566055,607.227348566055,1633558089.50285,1633558089.50482,1633558097.03899,1633558097.04188,1633558099.13978,1633558102.80781,1633558102.80998,1633558103.85991,1633558103.8582,1633558383.87929,0
73,4,2,3,18,5,1,c1_WhyFace,1,admiring?,4,F_779.jpg,1633557776.65195,1633557776.65405,310.090902080536,7.53114175796509,317.627045621872,319.727830162048,0.3,324.76303981781,0.716933965682983,325.48178981781,1,left,0.702524185180664,325.479973783493,604.467348566055,607.227348566055,1633558089.50285,1633558089.50482,1633558097.03899,1633558097.04188,1633558099.13978,1633558104.17498,1633558104.17721,1633558104.89373,1633558104.89192,1633558383.87929,1
73,4,2,3,18,6,1,c1_WhyFace,1,admiring?,8,F_590.jpg,1633557776.65195,1633557776.65405,310.090902080536,7.53114175796509,317.627045621872,319.727830162048,0.3,325.79675816536,0.666916131973267,326.465294828415,1,left,0.657751798629761,326.463674297333,604.467348566055,607.227348566055,1633558089.50285,1633558089.50482,1633558097.03899,1633558097.04188,1633558099.13978,1633558105.2087,1633558105.21107,1633558105.87724,1633558105.87562,1633558383.87929,1
73,4,2,3,18,7,1,c1_WhyFace,1,admiring?,7,F_648.jpg,1633557776.65195,1633557776.65405,310.090902080536,7.53114175796509,317.627045621872,319.727830162048,0.3,326.780458917618,0.733607053756714,327.515778770447,1,left,0.723475933074951,327.514065971375,604.467348566055,607.227348566055,1633558089.50285,1633558089.50482,1633558097.03899,1633558097.04188,1633558099.13978,1633558106.1924,1633558106.19458,1633558106.92772,1633558106.92601,1633558383.87929,1
73,4,2,3,18,8,1,c1_WhyFace,2,admiring?,3,F_110.jpg,1633557776.65195,1633557776.65405,310.090902080536,7.53114175796509,317.627045621872,319.727830162048,0.3,327.830849876404,0.783626794815063,328.616738786697,3,right,0.762718915939331,328.614476671219,604.467348566055,607.227348566055,1633558089.50285,1633558089.50482,1633558097.03899,1633558097.04188,1633558099.13978,1633558107.24279,1633558107.24504,1633558108.02868,1633558108.02642,1633558383.87929,0
73,4,2,3,19,1,2,c2_WhyHand,1,competing?,9,H_261.jpg,1633557776.65195,1633557776.65405,328.697840442657,6.81407451629639,335.517050733566,337.617833604813,2.10078287124634,337.767889728546,0.833644151687622,338.603135814667,1,left,0.82398796081543,338.601533880234,604.467348566055,607.227348566055,1633558108.10979,1633558108.11172,1633558114.929,1633558114.93124,1633558117.02978,1633558117.17983,1633558117.18206,1633558118.01508,1633558118.01348,1633558383.87929,1
73,4,2,3,19,2,2,c2_WhyHand,1,competing?,15,H_170.jpg,1633557776.65195,1633557776.65405,328.697840442657,6.81407451629639,335.517050733566,337.617833604813,0.3,338.918318738937,0.583550691604614,339.504452934265,1,left,0.564800977706909,339.501869430542,604.467348566055,607.227348566055,1633558108.10979,1633558108.11172,1633558114.929,1633558114.93124,1633558117.02978,1633558118.33026,1633558118.33252,1633558118.9164,1633558118.91381,1633558383.87929,1
73,4,2,3,19,3,2,c2_WhyHand,2,competing?,12,H_483.jpg,1633557776.65195,1633557776.65405,328.697840442657,6.81407451629639,335.517050733566,337.617833604813,0.3,339.818654527664,0.833644390106201,340.653912773132,3,right,0.823104858398438,340.65229891777,604.467348566055,607.227348566055,1633558108.10979,1633558108.11172,1633558114.929,1633558114.93124,1633558117.02978,1633558119.2306,1633558119.23295,1633558120.06586,1633558120.06424,1633558383.87929,0
73,4,2,3,19,4,2,c2_WhyHand,1,competing?,14,H_132.jpg,1633557776.65195,1633557776.65405,328.697840442657,6.81407451629639,335.517050733566,337.617833604813,0.3,340.96908449173,0.550204038619995,341.521524896622,1,left,0.527185201644897,341.51928853035,604.467348566055,607.227348566055,1633558108.10979,1633558108.11172,1633558114.929,1633558114.93124,1633558117.02978,1633558120.38103,1633558120.38324,1633558120.93347,1633558120.93123,1633558383.87929,1
73,4,2,3,19,5,2,c2_WhyHand,1,competing?,16,H_136.jpg,1633557776.65195,1633557776.65405,328.697840442657,6.81407451629639,335.517050733566,337.617833604813,0.3,341.836073627472,0.683588266372681,342.521770944595,1,left,0.674848079681396,342.519661893845,604.467348566055,607.227348566055,1633558108.10979,1633558108.11172,1633558114.929,1633558114.93124,1633558117.02978,1633558121.24802,1633558121.25009,1633558121.93372,1633558121.93161,1633558383.87929,1
73,4,2,3,19,6,2,c2_WhyHand,1,competing?,13,H_003.jpg,1633557776.65195,1633557776.65405,328.697840442657,6.81407451629639,335.517050733566,337.617833604813,0.3,342.83644651413,0.683588266372681,343.521797885895,1,left,0.66044807434082,343.520034780502,604.467348566055,607.227348566055,1633558108.10979,1633558108.11172,1633558114.929,1633558114.93124,1633558117.02978,1633558122.24839,1633558122.25067,1633558122.93374,1633558122.93198,1633558383.87929,1
73,4,2,3,19,7,2,c2_WhyHand,2,competing?,10,H_126.jpg,1633557776.65195,1633557776.65405,328.697840442657,6.81407451629639,335.517050733566,337.617833604813,0.3,343.836819400787,0.900336265563965,344.739421834946,3,right,0.879513025283813,344.737155666351,604.467348566055,607.227348566055,1633558108.10979,1633558108.11172,1633558114.929,1633558114.93124,1633558117.02978,1633558123.24876,1633558123.25129,1633558124.15137,1633558124.1491,1633558383.87929,0
73,4,2,3,19,8,2,c2_WhyHand,2,competing?,11,H_502.jpg,1633557776.65195,1633557776.65405,328.697840442657,6.81407451629639,335.517050733566,337.617833604813,0.3,345.053940286636,0.883663654327393,345.939631929398,3,right,0.865828037261963,345.937603940964,604.467348566055,607.227348566055,1633558108.10979,1633558108.11172,1633558114.929,1633558114.93124,1633558117.02978,1633558124.46589,1633558124.46835,1633558125.35158,1633558125.34955,1633558383.87929,0
73,4,2,3,20,1,4,c4_HowHand,1,reaching?,111,H_003.jpg,1633557776.65195,1633557776.65405,346.02096818924,10.9710206985474,357.008399238586,359.109181394577,2.1007821559906,359.259237995148,1.15042901039124,360.411391963959,1,left,1.13378190994263,360.409667005539,604.467348566055,607.227348566055,1633558125.43291,1633558125.43494,1633558136.42034,1633558136.42259,1633558138.52113,1633558138.67118,1633558138.67386,1633558139.82334,1633558139.82161,1633558383.87929,1
73,4,2,3,20,2,4,c4_HowHand,1,reaching?,110,H_364.jpg,1633557776.65195,1633557776.65405,346.02096818924,10.9710206985474,357.008399238586,359.109181394577,0.3,360.726451387405,0.716934680938721,361.445469846725,1,left,0.703850030899048,361.443386068344,604.467348566055,607.227348566055,1633558125.43291,1633558125.43494,1633558136.42034,1633558136.42259,1633558138.52113,1633558140.1384,1633558140.14066,1633558140.85741,1633558140.85533,1633558383.87929,1
73,4,2,3,20,3,4,c4_HowHand,2,reaching?,108,H_532.jpg,1633557776.65195,1633557776.65405,346.02096818924,10.9710206985474,357.008399238586,359.109181394577,0.3,361.760170688629,1.03371906280518,362.796222915649,3,right,1.01861310005188,362.793889751434,604.467348566055,607.227348566055,1633558125.43291,1633558125.43494,1633558136.42034,1633558136.42259,1633558138.52113,1633558141.17212,1633558141.17465,1633558142.20817,1633558142.20583,1633558383.87929,0
73,4,2,3,20,4,4,c4_HowHand,1,reaching?,106,H_006.jpg,1633557776.65195,1633557776.65405,346.02096818924,10.9710206985474,357.008399238586,359.109181394577,0.3,363.110673418045,0.933682441711426,364.046309938431,1,left,0.915430068969727,364.044355859756,604.467348566055,607.227348566055,1633558125.43291,1633558125.43494,1633558136.42034,1633558136.42259,1633558138.52113,1633558142.52262,1633558142.52493,1633558143.45826,1633558143.4563,1633558383.87929,1
73,4,2,3,20,5,4,c4_HowHand,2,reaching?,105,H_438.jpg,1633557776.65195,1633557776.65405,346.02096818924,10.9710206985474,357.008399238586,359.109181394577,0.3,364.361140480042,1.08373737335205,365.447007884979,3,right,1.06737589836121,365.444877853394,604.467348566055,607.227348566055,1633558125.43291,1633558125.43494,1633558136.42034,1633558136.42259,1633558138.52113,1633558143.77309,1633558143.77525,1633558144.85895,1633558144.85682,1633558383.87929,0
73,4,2,3,20,6,4,c4_HowHand,1,reaching?,107,H_007.jpg,1633557776.65195,1633557776.65405,346.02096818924,10.9710206985474,357.008399238586,359.109181394577,0.3,365.76166223526,0.766952753067017,366.530194988251,1,left,0.760781049728394,366.528614988327,604.467348566055,607.227348566055,1633558125.43291,1633558125.43494,1633558136.42034,1633558136.42259,1633558138.52113,1633558145.17361,1633558145.17579,1633558145.94214,1633558145.94056,1633558383.87929,1
73,4,2,3,20,7,4,c4_HowHand,1,reaching?,109,H_474.jpg,1633557776.65195,1633557776.65405,346.02096818924,10.9710206985474,357.008399238586,359.109181394577,0.3,366.845400800705,1.00037312507629,367.847532978058,3,right,0.978895902633667,367.845773925781,604.467348566055,607.227348566055,1633558125.43291,1633558125.43494,1633558136.42034,1633558136.42259,1633558138.52113,1633558146.25735,1633558146.25957,1633558147.25948,1633558147.25772,1633558383.87929,0
73,4,2,3,20,8,4,c4_HowHand,2,reaching?,112,H_132.jpg,1633557776.65195,1633557776.65405,346.02096818924,10.9710206985474,357.008399238586,359.109181394577,0.3,368.162556638718,0.866991996765137,369.031950941086,1,left,0.850471019744873,369.029548635483,604.467348566055,607.227348566055,1633558125.43291,1633558125.43494,1633558136.42034,1633558136.42259,1633558138.52113,1633558147.5745,1633558147.57672,1633558148.4439,1633558148.44149,1633558383.87929,0
73,4,2,3,21,1,3,c3_HowFace,1,open mouth?,73,F_403.jpg,1633557776.65195,1633557776.65405,369.112913122177,5.71940565109253,374.848385562897,376.949167480469,2.10078191757202,377.099223842621,0.933681964874268,378.03484796524,1,left,0.922977924346924,378.032905807495,604.467348566055,607.227348566055,1633558148.52486,1633558148.52723,1633558154.26033,1633558154.26294,1633558156.36111,1633558156.51117,1633558156.5139,1633558157.44679,1633558157.44485,1633558383.87929,1
73,4,2,3,21,2,3,c3_HowFace,2,open mouth?,79,F_648.jpg,1633557776.65195,1633557776.65405,369.112913122177,5.71940565109253,374.848385562897,376.949167480469,0.3,378.349690666199,0.78362512588501,379.135072937012,3,right,0.771252870559692,379.133315792084,604.467348566055,607.227348566055,1633558148.52486,1633558148.52723,1633558154.26033,1633558154.26294,1633558156.36111,1633558157.76164,1633558157.764,1633558158.54702,1633558158.54526,1633558383.87929,0
73,4,2,3,21,3,3,c3_HowFace,1,open mouth?,74,F_776.jpg,1633557776.65195,1633557776.65405,369.112913122177,5.71940565109253,374.848385562897,376.949167480469,0.3,379.450100650787,0.650242567062378,380.102193822861,1,left,0.634769201278687,380.10034321785,604.467348566055,607.227348566055,1633558148.52486,1633558148.52723,1633558154.26033,1633558154.26294,1633558156.36111,1633558158.86205,1633558158.865,1633558159.51414,1633558159.51229,1633558383.87929,1
73,4,2,3,21,4,3,c3_HowFace,2,open mouth?,77,F_584.jpg,1633557776.65195,1633557776.65405,369.112913122177,5.71940565109253,374.848385562897,376.949167480469,0.3,380.417127599716,0.766953229904175,381.185793867111,3,right,0.746863126754761,381.18408082962,604.467348566055,607.227348566055,1633558148.52486,1633558148.52723,1633558154.26033,1633558154.26294,1633558156.36111,1633558159.82907,1633558159.8317,1633558160.59774,1633558160.59603,1633558383.87929,0
73,4,2,3,21,5,3,c3_HowFace,1,open mouth?,80,F_844.jpg,1633557776.65195,1633557776.65405,369.112913122177,5.71940565109253,374.848385562897,376.949167480469,0.3,381.500865926743,0.683588027954102,382.186035861969,1,left,0.675215005874634,382.184453954697,604.467348566055,607.227348566055,1633558148.52486,1633558148.52723,1633558154.26033,1633558154.26294,1633558156.36111,1633558160.91281,1633558160.91517,1633558161.59798,1633558161.5964,1633558383.87929,1
73,4,2,3,21,6,3,c3_HowFace,1,open mouth?,78,F_692.jpg,1633557776.65195,1633557776.65405,369.112913122177,5.71940565109253,374.848385562897,376.949167480469,0.3,382.501239528656,0.616896152496338,383.120302906036,1,left,0.598248958587646,383.118135681152,604.467348566055,607.227348566055,1633558148.52486,1633558148.52723,1633558154.26033,1633558154.26294,1633558156.36111,1633558161.91318,1633558161.91592,1633558162.53225,1633558162.53008,1633558383.87929,1
73,4,2,3,21,7,3,c3_HowFace,1,open mouth?,75,F_086.jpg,1633557776.65195,1633557776.65405,369.112913122177,5.71940565109253,374.848385562897,376.949167480469,0.3,383.434920063019,0.616897106170654,384.05382894516,1,left,0.593494892120361,384.051817169189,604.467348566055,607.227348566055,1633558148.52486,1633558148.52723,1633558154.26033,1633558154.26294,1633558156.36111,1633558162.84687,1633558162.8493,1633558163.46577,1633558163.46376,1633558383.87929,1
73,4,2,3,21,8,3,c3_HowFace,2,open mouth?,76,F_544.jpg,1633557776.65195,1633557776.65405,369.112913122177,5.71940565109253,374.848385562897,376.949167480469,0.3,384.368602027893,0.766952037811279,385.137713899612,3,right,0.747303009033203,385.135554065704,604.467348566055,607.227348566055,1633558148.52486,1633558148.52723,1633558154.26033,1633558154.26294,1633558156.36111,1633558163.78055,1633558163.78277,1633558164.54966,1633558164.5475,1633558383.87929,0
73,4,2,3,22,1,1,c1_WhyFace,1,argument?,42,F_403.jpg,1633557776.65195,1633557776.65405,385.218919029236,8.28914284706116,393.522015562058,395.622798671722,2.10078310966492,395.772854557037,1.71730732917786,NaN,0,NA,0,397.490161886215,604.467348566055,607.227348566055,1633558164.63086,1633558164.63317,1633558172.93396,1633558172.93665,1633558175.03474,1633558175.1848,1633558175.1878,NaN,1633558176.90211,1633558383.87929,0
73,4,2,3,22,2,1,c1_WhyFace,2,argument?,46,F_844.jpg,1633557776.65195,1633557776.65405,385.218919029236,8.28914284706116,393.522015562058,395.622798671722,0.3,397.806947221756,1.35050177574158,399.159782876968,3,right,1.3339409828186,399.157448997498,604.467348566055,607.227348566055,1633558164.63086,1633558164.63317,1633558172.93396,1633558172.93665,1633558175.03474,1633558177.21889,1633558177.22111,1633558178.57173,1633558178.56939,1633558383.87929,0
73,4,2,3,22,3,1,c1_WhyFace,1,argument?,41,F_712.jpg,1633557776.65195,1633557776.65405,385.218919029236,8.28914284706116,393.522015562058,395.622798671722,0.3,399.474235286713,0.900336027145386,400.376248826981,1,left,0.891468048095703,400.374571313858,604.467348566055,607.227348566055,1633558164.63086,1633558164.63317,1633558172.93396,1633558172.93665,1633558175.03474,1633558178.88618,1633558178.88855,1633558179.78819,1633558179.78652,1633558383.87929,1
73,4,2,3,22,4,1,c1_WhyFace,1,argument?,48,F_758.jpg,1633557776.65195,1633557776.65405,385.218919029236,8.28914284706116,393.522015562058,395.622798671722,0.3,400.691355934143,0.850316286087036,401.543354978561,1,left,0.835290193557739,401.54167222023,604.467348566055,607.227348566055,1633558164.63086,1633558164.63317,1633558172.93396,1633558172.93665,1633558175.03474,1633558180.1033,1633558180.10601,1633558180.9553,1633558180.95362,1633558383.87929,1
73,4,2,3,22,5,1,c1_WhyFace,2,argument?,45,F_433.jpg,1633557776.65195,1633557776.65405,385.218919029236,8.28914284706116,393.522015562058,395.622798671722,0.3,401.858457794189,0.716934204101562,402.577656974792,3,right,0.697011947631836,402.575391998291,604.467348566055,607.227348566055,1633558164.63086,1633558164.63317,1633558172.93396,1633558172.93665,1633558175.03474,1633558181.2704,1633558181.27285,1633558181.9896,1633558181.98734,1633558383.87929,0
73,4,2,3,22,6,1,c1_WhyFace,1,argument?,43,F_716.jpg,1633557776.65195,1633557776.65405,385.218919029236,8.28914284706116,393.522015562058,395.622798671722,0.3,402.892176618576,0.933681011199951,403.828044881821,1,left,0.912681102752686,403.825857629776,604.467348566055,607.227348566055,1633558164.63086,1633558164.63317,1633558172.93396,1633558172.93665,1633558175.03474,1633558182.30412,1633558182.30669,1633558183.23999,1633558183.2378,1633558383.87929,1
73,4,2,3,22,7,1,c1_WhyFace,2,argument?,44,F_139.jpg,1633557776.65195,1633557776.65405,385.218919029236,8.28914284706116,393.522015562058,395.622798671722,0.3,404.14264248848,0.816971778869629,404.961362829208,3,right,0.795000076293945,404.959614267349,604.467348566055,607.227348566055,1633558164.63086,1633558164.63317,1633558172.93396,1633558172.93665,1633558175.03474,1633558183.55459,1633558183.55681,1633558184.37331,1633558184.37156,1633558383.87929,0
73,4,2,3,22,8,1,c1_WhyFace,1,argument?,47,F_743.jpg,1633557776.65195,1633557776.65405,385.218919029236,8.28914284706116,393.522015562058,395.622798671722,0.3,405.276398887634,0.633568525314331,405.911827793121,1,left,0.611867904663086,405.909967412949,604.467348566055,607.227348566055,1633558164.63086,1633558164.63317,1633558172.93396,1633558172.93665,1633558175.03474,1633558184.68834,1633558184.6908,1633558185.32377,1633558185.32191,1633558383.87929,1
73,4,2,3,23,1,2,c2_WhyHand,1,helping?,39,H_024.jpg,1633557776.65195,1633557776.65405,405.993332614899,5.7345871925354,411.745478143692,413.82958864212,2.08411049842834,413.979645242691,1.03371906280518,415.015554895401,1,left,1.01434898376465,415.013364305496,604.467348566055,607.227348566055,1633558185.40528,1633558185.40709,1633558191.15742,1633558191.16013,1633558193.24153,1633558193.39159,1633558193.39363,1633558194.4275,1633558194.42531,1633558383.87929,1
73,4,2,3,23,2,2,c2_WhyHand,1,helping?,36,H_349.jpg,1633557776.65195,1633557776.65405,405.993332614899,5.7345871925354,411.745478143692,413.82958864212,0.3,415.330147972107,0.616897106170654,415.948652973175,1,left,0.610121011734009,415.947045078278,604.467348566055,607.227348566055,1633558185.40528,1633558185.40709,1633558191.15742,1633558191.16013,1633558193.24153,1633558194.74209,1633558194.74457,1633558195.3606,1633558195.35899,1633558383.87929,1
73,4,2,3,23,3,2,c2_WhyHand,1,helping?,38,H_077.jpg,1633557776.65195,1633557776.65405,405.993332614899,5.7345871925354,411.745478143692,413.82958864212,0.3,416.263829698563,0.633569240570068,416.899159898758,1,left,0.617324113845825,416.897398939133,604.467348566055,607.227348566055,1633558185.40528,1633558185.40709,1633558191.15742,1633558191.16013,1633558193.24153,1633558195.67577,1633558195.67818,1633558196.31111,1633558196.30934,1633558383.87929,1
73,4,2,3,23,4,2,c2_WhyHand,1,helping?,37,H_474.jpg,1633557776.65195,1633557776.65405,405.993332614899,5.7345871925354,411.745478143692,413.82958864212,0.3,417.214183797836,0.633569955825806,417.849489917755,1,left,0.613661050796509,417.847753753662,604.467348566055,607.227348566055,1633558185.40528,1633558185.40709,1633558191.15742,1633558191.16013,1633558193.24153,1633558196.62613,1633558196.62864,1633558197.26144,1633558197.2597,1633558383.87929,1
73,4,2,3,23,5,2,c2_WhyHand,2,helping?,33,H_091.jpg,1633557776.65195,1633557776.65405,405.993332614899,5.7345871925354,411.745478143692,413.82958864212,0.3,418.164539089203,0.98369836807251,419.150158872604,3,right,0.975838899612427,419.148237457275,604.467348566055,607.227348566055,1633558185.40528,1633558185.40709,1633558191.15742,1633558191.16013,1633558193.24153,1633558197.57648,1633558197.57811,1633558198.5621,1633558198.56018,1633558383.87929,0
73,4,2,3,23,6,2,c2_WhyHand,2,helping?,35,H_159.jpg,1633557776.65195,1633557776.65405,405.993332614899,5.7345871925354,411.745478143692,413.82958864212,0.3,419.465023984909,1.0003719329834,420.467073907852,3,right,0.989500045776367,420.465395917892,604.467348566055,607.227348566055,1633558185.40528,1633558185.40709,1633558191.15742,1633558191.16013,1633558193.24153,1633558198.87697,1633558198.87931,1633558199.87902,1633558199.87734,1633558383.87929,0
73,4,2,3,23,7,2,c2_WhyHand,1,helping?,34,H_111.jpg,1633557776.65195,1633557776.65405,405.993332614899,5.7345871925354,411.745478143692,413.82958864212,0.3,420.782181015015,0.766952991485596,421.550771942139,1,left,0.756368160247803,421.5491340065,604.467348566055,607.227348566055,1633558185.40528,1633558185.40709,1633558191.15742,1633558191.16013,1633558193.24153,1633558200.19413,1633558200.19665,1633558200.96272,1633558200.96108,1633558383.87929,1
73,4,2,3,23,8,2,c2_WhyHand,2,helping?,40,H_012.jpg,1633557776.65195,1633557776.65405,405.993332614899,5.7345871925354,411.745478143692,413.82958864212,0.3,421.865918388367,0.766953706741333,422.634858837128,3,right,0.751914978027344,422.632872095108,604.467348566055,607.227348566055,1633558185.40528,1633558185.40709,1633558191.15742,1633558191.16013,1633558193.24153,1633558201.27786,1633558201.28029,1633558202.0468,1633558202.04482,1633558383.87929,0
73,4,2,3,24,1,4,c4_HowHand,1,both hands?,122,H_111.jpg,1633557776.65195,1633557776.65405,422.716235628128,7.08165216445923,429.802212467194,431.902994384766,2.10078191757202,432.053050270081,0.883663892745972,432.939231863022,1,left,0.866117000579834,432.936714162827,604.467348566055,607.227348566055,1633558202.12818,1633558202.13057,1633558209.21416,1633558209.21665,1633558211.31494,1633558211.465,1633558211.46726,1633558212.35118,1633558212.34866,1633558383.87929,1
73,4,2,3,24,2,4,c4_HowHand,1,both hands?,128,H_027.jpg,1633557776.65195,1633557776.65405,422.716235628128,7.08165216445923,429.802212467194,431.902994384766,0.3,433.253498306274,0.600223779678345,433.85541891098,1,left,0.588989973068237,433.853722085953,604.467348566055,607.227348566055,1633558202.12818,1633558202.13057,1633558209.21416,1633558209.21665,1633558211.31494,1633558212.66544,1633558212.66752,1633558213.26736,1633558213.26567,1633558383.87929,1
73,4,2,3,24,3,4,c4_HowHand,2,both hands?,121,H_091.jpg,1633557776.65195,1633557776.65405,422.716235628128,7.08165216445923,429.802212467194,431.902994384766,0.3,434.170506944656,0.68358850479126,434.856129875183,3,right,0.672579050064087,434.854095449448,604.467348566055,607.227348566055,1633558202.12818,1633558202.13057,1633558209.21416,1633558209.21665,1633558211.31494,1633558213.58245,1633558213.58491,1633558214.26807,1633558214.26604,1633558383.87929,0
73,4,2,3,24,4,4,c4_HowHand,1,both hands?,123,H_167.jpg,1633557776.65195,1633557776.65405,422.716235628128,7.08165216445923,429.802212467194,431.902994384766,0.3,435.17088054657,0.633569240570068,435.806418886185,1,left,0.619489192962646,435.80444978714,604.467348566055,607.227348566055,1633558202.12818,1633558202.13057,1633558209.21416,1633558209.21665,1633558211.31494,1633558214.58283,1633558214.58533,1633558215.21836,1633558215.21639,1633558383.87929,1
73,4,2,3,24,5,4,c4_HowHand,1,both hands?,124,H_581.jpg,1633557776.65195,1633557776.65405,422.716235628128,7.08165216445923,429.802212467194,431.902994384766,0.3,436.121234645844,0.800299644470215,436.923689832687,1,left,0.789879083633423,436.921534290314,604.467348566055,607.227348566055,1633558202.12818,1633558202.13057,1633558209.21416,1633558209.21665,1633558211.31494,1633558215.53318,1633558215.53537,1633558216.33563,1633558216.33348,1633558383.87929,1
73,4,2,3,24,6,4,c4_HowHand,2,both hands?,126,H_159.jpg,1633557776.65195,1633557776.65405,422.716235628128,7.08165216445923,429.802212467194,431.902994384766,0.3,437.238316764832,0.816972732543945,438.057192792892,3,right,0.80600905418396,438.055289497375,604.467348566055,607.227348566055,1633558202.12818,1633558202.13057,1633558209.21416,1633558209.21665,1633558211.31494,1633558216.65026,1633558216.65255,1633558217.46914,1633558217.46723,1633558383.87929,0
73,4,2,3,24,7,4,c4_HowHand,1,both hands?,127,H_349.jpg,1633557776.65195,1633557776.65405,422.716235628128,7.08165216445923,429.802212467194,431.902994384766,0.3,438.372073879242,0.700262069702148,439.074449768066,1,left,0.678225994110107,439.072335948944,604.467348566055,607.227348566055,1633558202.12818,1633558202.13057,1633558209.21416,1633558209.21665,1633558211.31494,1633558217.78402,1633558217.78623,1633558218.48639,1633558218.48428,1633558383.87929,1
73,4,2,3,24,8,4,c4_HowHand,2,both hands?,125,H_627.jpg,1633557776.65195,1633557776.65405,422.716235628128,7.08165216445923,429.802212467194,431.902994384766,0.3,439.389119377136,0.866990089416504,440.25802778244,3,right,0.853714942932129,440.256109466553,604.467348566055,607.227348566055,1633558202.12818,1633558202.13057,1633558209.21416,1633558209.21665,1633558211.31494,1633558218.80106,1633558218.80315,1633558219.66997,1633558219.66805,1633558383.87929,0
73,4,2,3,25,1,2,c2_WhyHand,1,healthy?,18,H_438.jpg,1633557776.65195,1633557776.65405,440.356147994995,6.95877385139465,447.325412979126,449.426195611954,2.10078263282776,449.57625292778,1.50055932998657,451.078701963425,3,right,1.48770499229431,451.076812257767,604.467348566055,607.227348566055,1633558219.76809,1633558219.77,1633558226.73736,1633558226.74007,1633558228.83814,1633558228.9882,1633558228.99083,1633558230.49065,1633558230.48876,1633558383.87929,0
73,4,2,3,25,2,2,c2_WhyHand,1,healthy?,23,H_364.jpg,1633557776.65195,1633557776.65405,440.356147994995,6.95877385139465,447.325412979126,449.426195611954,0.3,451.393596878052,0.80029821395874,452.19611000061,1,left,0.778630971908569,452.193895092011,604.467348566055,607.227348566055,1633558219.76809,1633558219.77,1633558226.73736,1633558226.74007,1633558228.83814,1633558230.80554,1633558230.8082,1633558231.60806,1633558231.60584,1633558383.87929,1
73,4,2,3,25,3,2,c2_WhyHand,1,healthy?,17,H_362.jpg,1633557776.65195,1633557776.65405,440.356147994995,6.95877385139465,447.325412979126,449.426195611954,0.3,452.510679950714,0.700259447097778,453.212738981247,1,left,0.689459085464478,453.210939397812,604.467348566055,607.227348566055,1633558219.76809,1633558219.77,1633558226.73736,1633558226.74007,1633558228.83814,1633558231.92263,1633558231.92505,1633558232.62468,1633558232.62288,1633558383.87929,1
73,4,2,3,25,4,2,c2_WhyHand,2,healthy?,24,H_019.jpg,1633557776.65195,1633557776.65405,440.356147994995,6.95877385139465,447.325412979126,449.426195611954,0.3,453.527725687027,0.833644866943359,454.36308382988,3,right,0.814008951187134,454.36137055397,604.467348566055,607.227348566055,1633558219.76809,1633558219.77,1633558226.73736,1633558226.74007,1633558228.83814,1633558232.93967,1633558232.94204,1633558233.77503,1633558233.77332,1633558383.87929,0
73,4,2,3,25,5,2,c2_WhyHand,1,healthy?,19,H_167.jpg,1633557776.65195,1633557776.65405,440.356147994995,6.95877385139465,447.325412979126,449.426195611954,0.3,454.678155174255,0.616896629333496,455.296694984436,1,left,0.609631061553955,455.295051803589,604.467348566055,607.227348566055,1633558219.76809,1633558219.77,1633558226.73736,1633558226.74007,1633558228.83814,1633558234.0901,1633558234.09257,1633558234.70864,1633558234.707,1633558383.87929,1
73,4,2,3,25,6,2,c2_WhyHand,2,healthy?,20,H_007.jpg,1633557776.65195,1633557776.65405,440.356147994995,6.95877385139465,447.325412979126,449.426195611954,0.3,455.611836662292,0.733606338500977,456.347497930527,3,right,0.723719120025635,456.345443000793,604.467348566055,607.227348566055,1633558219.76809,1633558219.77,1633558226.73736,1633558226.74007,1633558228.83814,1633558235.02378,1633558235.02677,1633558235.75944,1633558235.75739,1633558383.87929,0
73,4,2,3,25,7,2,c2_WhyHand,1,healthy?,21,H_627.jpg,1633557776.65195,1633557776.65405,440.356147994995,6.95877385139465,447.325412979126,449.426195611954,0.3,456.66222738266,0.716935873031616,457.380984773636,1,left,0.707913160324097,457.379163255692,604.467348566055,607.227348566055,1633558219.76809,1633558219.77,1633558226.73736,1633558226.74007,1633558228.83814,1633558236.07417,1633558236.07657,1633558236.79293,1633558236.79111,1633558383.87929,1
73,4,2,3,25,8,2,c2_WhyHand,2,healthy?,22,H_130.jpg,1633557776.65195,1633557776.65405,440.356147994995,6.95877385139465,447.325412979126,449.426195611954,0.3,457.695946445465,0.800299167633057,458.49821185112,3,right,0.779031038284302,458.496245613098,604.467348566055,607.227348566055,1633558219.76809,1633558219.77,1633558226.73736,1633558226.74007,1633558228.83814,1633558237.10789,1633558237.11072,1633558237.91016,1633558237.90819,1633558383.87929,0
73,4,2,3,26,1,4,c4_HowHand,1,pressing button?,82,H_126.jpg,1633557776.65195,1633557776.65405,458.579610099792,7.78936576843262,466.38251947403,468.483303537369,2.10078406333923,468.633359661102,0.950353860855103,469.586079826355,1,left,0.935056924819946,469.583713521957,604.467348566055,607.227348566055,1633558237.99156,1633558237.99316,1633558245.79446,1633558245.79725,1633558247.89525,1633558248.0453,1633558248.04771,1633558248.99802,1633558248.99566,1633558383.87929,1
73,4,2,3,26,2,4,c4_HowHand,2,pressing button?,85,H_130.jpg,1633557776.65195,1633557776.65405,458.579610099792,7.78936576843262,466.38251947403,468.483303537369,0.3,469.900497665405,0.850317478179932,470.75270699501,3,right,0.840906858444214,470.750815143585,604.467348566055,607.227348566055,1633558237.99156,1633558237.99316,1633558245.79446,1633558245.79725,1633558247.89525,1633558249.31244,1633558249.31482,1633558250.16465,1633558250.16276,1633558383.87929,0
73,4,2,3,26,3,4,c4_HowHand,1,pressing button?,84,H_483.jpg,1633557776.65195,1633557776.65405,458.579610099792,7.78936576843262,466.38251947403,468.483303537369,0.3,471.067601194382,0.650241136550903,471.719594945908,1,left,0.64241886138916,471.717842330933,604.467348566055,607.227348566055,1633558237.99156,1633558237.99316,1633558245.79446,1633558245.79725,1633558247.89525,1633558250.47955,1633558250.48211,1633558251.13154,1633558251.12979,1633558383.87929,1
73,4,2,3,26,4,4,c4_HowHand,2,pressing button?,87,H_024.jpg,1633557776.65195,1633557776.65405,458.579610099792,7.78936576843262,466.38251947403,468.483303537369,0.3,472.034626712799,0.700262069702148,472.736526002884,3,right,0.689642190933228,472.734888782501,604.467348566055,607.227348566055,1633558237.99156,1633558237.99316,1633558245.79446,1633558245.79725,1633558247.89525,1633558251.44657,1633558251.44885,1633558252.14847,1633558252.14683,1633558383.87929,0
73,4,2,3,26,5,4,c4_HowHand,1,pressing button?,86,H_332.jpg,1633557776.65195,1633557776.65405,458.579610099792,7.78936576843262,466.38251947403,468.483303537369,0.3,473.051673641205,0.716933965682983,473.770554771423,1,left,0.694331884384155,473.768607606888,604.467348566055,607.227348566055,1633558237.99156,1633558237.99316,1633558245.79446,1633558245.79725,1633558247.89525,1633558252.46362,1633558252.46569,1633558253.1825,1633558253.18055,1633558383.87929,1
73,4,2,3,26,6,4,c4_HowHand,1,pressing button?,88,H_019.jpg,1633557776.65195,1633557776.65405,458.579610099792,7.78936576843262,466.38251947403,468.483303537369,0.3,474.085393180847,0.450166702270508,474.537519922256,1,left,0.440335988998413,474.535559883118,604.467348566055,607.227348566055,1633558237.99156,1633558237.99316,1633558245.79446,1633558245.79725,1633558247.89525,1633558253.49734,1633558253.49985,1633558253.94947,1633558253.9475,1633558383.87929,1
73,4,2,3,26,7,4,c4_HowHand,2,pressing button?,81,H_261.jpg,1633557776.65195,1633557776.65405,458.579610099792,7.78936576843262,466.38251947403,468.483303537369,0.3,474.85234498024,0.650243043899536,475.504929771423,3,right,0.630002975463867,475.502588024139,604.467348566055,607.227348566055,1633558237.99156,1633558237.99316,1633558245.79446,1633558245.79725,1633558247.89525,1633558254.26429,1633558254.26639,1633558254.91687,1633558254.91453,1633558383.87929,0
73,4,2,3,26,8,4,c4_HowHand,1,pressing button?,83,H_502.jpg,1633557776.65195,1633557776.65405,458.579610099792,7.78936576843262,466.38251947403,468.483303537369,0.3,475.819372406006,0.500186443328857,476.321467866898,1,left,0.489013910293579,476.319558849335,604.467348566055,607.227348566055,1633558237.99156,1633558237.99316,1633558245.79446,1633558245.79725,1633558247.89525,1633558255.23132,1633558255.23393,1633558255.73341,1633558255.7315,1633558383.87929,1
73,4,2,3,27,1,3,c3_HowFace,1,looking at camera?,60,F_618.jpg,1633557776.65195,1633557776.65405,476.402922620773,7.49598932266235,483.905720462799,486.006505241394,2.10078477859497,486.156560649872,0.550204992294312,486.708840837479,1,left,0.526224136352539,486.706765642166,604.467348566055,607.227348566055,1633558255.81487,1633558255.81656,1633558263.31767,1633558263.32033,1633558265.41845,1633558265.56851,1633558265.57123,1633558266.12079,1633558266.11871,1633558383.87929,1
73,4,2,3,27,2,3,c3_HowFace,2,looking at camera?,58,F_754.jpg,1633557776.65195,1633557776.65405,476.402922620773,7.49598932266235,483.905720462799,486.006505241394,0.3,487.023550262451,0.666915416717529,487.692245950699,3,right,0.644761085510254,487.690465679169,604.467348566055,607.227348566055,1633558255.81487,1633558255.81656,1633558263.31767,1633558263.32033,1633558265.41845,1633558266.4355,1633558266.43775,1633558267.10419,1633558267.10241,1633558383.87929,0
73,4,2,3,27,3,3,c3_HowFace,1,looking at camera?,59,F_129.jpg,1633557776.65195,1633557776.65405,476.402922620773,7.49598932266235,483.905720462799,486.006505241394,0.3,488.007251014709,0.55020546913147,488.55911277771,1,left,0.529340028762817,488.557456483841,604.467348566055,607.227348566055,1633558255.81487,1633558255.81656,1633558263.31767,1633558263.32033,1633558265.41845,1633558267.4192,1633558267.42231,1633558267.97106,1633558267.9694,1633558383.87929,1
73,4,2,3,27,4,3,c3_HowFace,1,looking at camera?,62,F_598.jpg,1633557776.65195,1633557776.65405,476.402922620773,7.49598932266235,483.905720462799,486.006505241394,0.3,488.874240627289,0.633570432662964,489.509993782043,1,left,0.612230062484741,489.507811059952,604.467348566055,607.227348566055,1633558255.81487,1633558255.81656,1633558263.31767,1633558263.32033,1633558265.41845,1633558268.28619,1633558268.28843,1633558268.92194,1633558268.91976,1633558383.87929,1
73,4,2,3,27,5,3,c3_HowFace,1,looking at camera?,64,F_128.jpg,1633557776.65195,1633557776.65405,476.402922620773,7.49598932266235,483.905720462799,486.006505241394,0.3,489.824594488144,0.716933250427246,490.543251981735,1,left,0.706512928009033,490.541527738571,604.467348566055,607.227348566055,1633558255.81487,1633558255.81656,1633558263.31767,1633558263.32033,1633558265.41845,1633558269.23654,1633558269.23874,1633558269.9552,1633558269.95347,1633558383.87929,1
73,4,2,3,27,6,3,c3_HowFace,2,looking at camera?,57,F_582.jpg,1633557776.65195,1633557776.65405,476.402922620773,7.49598932266235,483.905720462799,486.006505241394,0.3,490.858313789368,0.883663177490234,491.744007816315,3,right,0.872974157333374,491.741976966858,604.467348566055,607.227348566055,1633558255.81487,1633558255.81656,1633558263.31767,1633558263.32033,1633558265.41845,1633558270.27026,1633558270.27239,1633558271.15595,1633558271.15392,1633558383.87929,0
73,4,2,3,27,7,3,c3_HowFace,1,looking at camera?,61,F_774.jpg,1633557776.65195,1633557776.65405,476.402922620773,7.49598932266235,483.905720462799,486.006505241394,0.3,492.05876206398,0.666915655136108,492.727713813782,1,left,0.649208068847656,492.725677719116,604.467348566055,607.227348566055,1633558255.81487,1633558255.81656,1633558263.31767,1633558263.32033,1633558265.41845,1633558271.47071,1633558271.4732,1633558272.13966,1633558272.13762,1633558383.87929,1
