src_subject_id,session_id,run_id,param_counterbalance_ver,param_block_num,param_trial_num,param_cond_type_num,param_cond_type_string,param_normative_response,param_ques_type_string,param_image_num,param_image_filename,param_trigger_onset,param_start_biopac,event01_fixation,event01_fixation_dur,event01_blockquestion_onset,event01_block_isi_blacksreen,event01_blockquestion_dur,event02_image_onset,event02_image_dur,event03_response_onset,event03_response_key,event03_response_keyname,event03_RT,event04_shortquestion_onset,param_end_instruct_onset,param_experiment_duration,RAW_e1_fixation,RAW_e1_fixation_biopac,RAW_e1_blockquestion_onset,RAW_e1_blockquestion_onset_biopac,RAW_e1_block_isi_blacksreen,RAW_e2_image_onset,RAW_e2_image_onset_biopac,RAW_e3_response_onset,RAW_e4_shortquestion_onset,RAW_param_end_instruct_onset,accuracy
78,4,1,3,1,1,4,c4_HowHand,1,reaching?,107,H_007.jpg,1633654143.88138,1633654143.8889,0.0330991649627683,0.0438687801361084,0.0831177139282224,2.11720966339111,2.03409194946289,2.26726602554321,0.850317001342773,3.12891196250916,1,left,0.816704034805298,3.11758302688599,604.475175609589,607.235175609589,1633654146.67448,1633654146.6884,1633654146.72449,1633654146.73752,1633654148.75859,1633654148.90864,1633654148.90985,1633654149.77029,1633654149.75896,1633654751.11655,1
78,4,1,3,1,2,4,c4_HowHand,2,reaching?,108,H_532.jpg,1633654143.88138,1633654143.8889,0.0330991649627683,0.0438687801361084,0.0831177139282224,2.11720966339111,0.3,3.4343678855896,0.950353860855103,4.39539288520813,3,right,0.935030937194824,4.3847217464447,604.475175609589,607.235175609589,1633654146.67448,1633654146.6884,1633654146.72449,1633654146.73752,1633654148.75859,1633654150.07574,1633654150.07808,1633654151.03677,1633654151.0261,1633654751.11655,0
78,4,1,3,1,3,4,c4_HowHand,1,reaching?,109,H_474.jpg,1633654143.88138,1633654143.8889,0.0330991649627683,0.0438687801361084,0.0831177139282224,2.11720966339111,0.3,4.70150684356689,0.666914939880371,5.3790528678894,1,left,0.658329963684082,5.36842178344727,604.475175609589,607.235175609589,1633654146.67448,1633654146.6884,1633654146.72449,1633654146.73752,1633654148.75859,1633654151.34288,1633654151.34501,1633654152.02043,1633654152.0098,1633654751.11655,1
78,4,1,3,1,4,4,c4_HowHand,2,reaching?,105,H_438.jpg,1633654143.88138,1633654143.8889,0.0330991649627683,0.0438687801361084,0.0831177139282224,2.11720966339111,0.3,5.68520616531372,1.16710305213928,6.85356997489929,3,right,1.14579391479492,6.852309217453,604.475175609589,607.235175609589,1633654146.67448,1633654146.6884,1633654146.72449,1633654146.73752,1633654148.75859,1633654152.32658,1633654152.32832,1633654153.49495,1633654153.49369,1633654751.11655,0
78,4,1,3,1,5,4,c4_HowHand,1,reaching?,110,H_364.jpg,1633654143.88138,1633654143.8889,0.0330991649627683,0.0438687801361084,0.0831177139282224,2.11720966339111,0.3,7.16909359931946,0.800297975540161,7.97274087905884,1,left,0.777100086212158,7.96939157485962,604.475175609589,607.235175609589,1633654146.67448,1633654146.6884,1633654146.72449,1633654146.73752,1633654148.75859,1633654153.81047,1633654153.81321,1633654154.61412,1633654154.61077,1633654751.11655,1
78,4,1,3,1,6,4,c4_HowHand,1,reaching?,106,H_006.jpg,1633654143.88138,1633654143.8889,0.0330991649627683,0.0438687801361084,0.0831177139282224,2.11720966339111,0.3,8.28617691040039,0.816971778869629,9.10509203910828,1,left,0.797952890396118,9.10314868927002,604.475175609589,607.235175609589,1633654146.67448,1633654146.6884,1633654146.72449,1633654146.73752,1633654148.75859,1633654154.92755,1633654154.92875,1633654155.74647,1633654155.74452,1633654751.11655,1
78,4,1,3,1,7,4,c4_HowHand,1,reaching?,111,H_003.jpg,1633654143.88138,1633654143.8889,0.0330991649627683,0.0438687801361084,0.0831177139282224,2.11720966339111,0.3,9.41993259429932,0.566878080368042,9.99496792793274,1,left,0.557313919067383,9.98681067466736,604.475175609589,607.235175609589,1633654146.67448,1633654146.6884,1633654146.72449,1633654146.73752,1633654148.75859,1633654156.06131,1633654156.06306,1633654156.63634,1633654156.62819,1633654751.11655,1
78,4,1,3,1,8,4,c4_HowHand,2,reaching?,112,H_132.jpg,1633654143.88138,1633654143.8889,0.0330991649627683,0.0438687801361084,0.0831177139282224,2.11720966339111,0.3,10.3035952949524,0.0166733264923096,10.3292648696899,1,left,0.000344991683959961,10.3202686214447,604.475175609589,607.235175609589,1633654146.67448,1633654146.6884,1633654146.72449,1633654146.73752,1633654148.75859,1633654156.94497,1633654156.94681,1633654156.97064,1633654156.96164,1633654751.11655,0
78,4,1,3,2,1,2,c2_WhyHand,1,healthy?,21,H_627.jpg,1633654143.88138,1633654143.8889,10.5703616046906,6.96073746681213,17.5396265888214,19.6404108905792,2.10078430175781,19.7904679679871,0.816970348358154,20.6131119632721,1,left,0.801535844802856,20.6074383163452,604.475175609589,607.235175609589,1633654157.21174,1633654157.21382,1633654164.181,1633654164.1875,1633654166.28179,1633654166.43184,1633654166.43736,1633654167.25449,1633654167.24881,1633654751.11655,1
78,4,1,3,2,2,2,c2_WhyHand,1,healthy?,18,H_438.jpg,1633654143.88138,1633654143.8889,10.5703616046906,6.96073746681213,17.5396265888214,19.6404108905792,0.3,20.9242226982117,0.0166730880737305,20.9456000232697,1,left,0.000355005264282227,20.9408957862854,604.475175609589,607.235175609589,1633654157.21174,1633654157.21382,1633654164.181,1633654164.1875,1633654166.28179,1633654167.5656,1633654167.57062,1633654167.58698,1633654167.58227,1633654751.11655,1
78,4,1,3,2,3,2,c2_WhyHand,1,healthy?,23,H_364.jpg,1633654143.88138,1633654143.8889,10.5703616046906,6.96073746681213,17.5396265888214,19.6404108905792,0.3,21.2576808834076,1.00037288665771,22.2620558643341,1,left,0.984636783599854,22.2580537700653,604.475175609589,607.235175609589,1633654157.21174,1633654157.21382,1633654164.181,1633654164.1875,1633654166.28179,1633654167.89906,1633654167.9039,1633654168.90343,1633654168.89943,1633654751.11655,1
78,4,1,3,2,4,2,c2_WhyHand,2,healthy?,22,H_130.jpg,1633654143.88138,1633654143.8889,10.5703616046906,6.96073746681213,17.5396265888214,19.6404108905792,0.3,22.5748376750946,0.866991281509399,23.4454190635681,3,right,0.856704950332642,23.441828956604,604.475175609589,607.235175609589,1633654157.21174,1633654157.21382,1633654164.181,1633654164.1875,1633654166.28179,1633654169.21621,1633654169.22015,1633654170.0868,1633654170.0832,1633654751.11655,0
78,4,1,3,2,5,2,c2_WhyHand,1,healthy?,17,H_362.jpg,1633654143.88138,1633654143.8889,10.5703616046906,6.96073746681213,17.5396265888214,19.6404108905792,0.3,23.7586140537262,0.883662939071655,24.644944896698,1,left,0.861685991287231,24.6422769927978,604.475175609589,607.235175609589,1633654157.21174,1633654157.21382,1633654164.181,1633654164.1875,1633654166.28179,1633654170.39999,1633654170.40333,1633654171.28632,1633654171.28365,1633654751.11655,1
78,4,1,3,2,6,2,c2_WhyHand,2,healthy?,20,H_007.jpg,1633654143.88138,1633654143.8889,10.5703616046906,6.96073746681213,17.5396265888214,19.6404108905792,0.3,24.9590618515015,0.866989850997925,25.8282909297943,3,right,0.857972860336304,25.8260517024994,604.475175609589,607.235175609589,1633654157.21174,1633654157.21382,1633654164.181,1633654164.1875,1633654166.28179,1633654171.60044,1633654171.60367,1633654172.46967,1633654172.46743,1633654751.11655,0
78,4,1,3,2,7,2,c2_WhyHand,1,healthy?,19,H_167.jpg,1633654143.88138,1633654143.8889,10.5703616046906,6.96073746681213,17.5396265888214,19.6404108905792,0.3,26.1428356075287,0.650242567062378,26.794878950119,1,left,0.64094614982605,26.7930781745911,604.475175609589,607.235175609589,1633654157.21174,1633654157.21382,1633654164.181,1633654164.1875,1633654166.28179,1633654172.78421,1633654172.78679,1633654173.43625,1633654173.43445,1633654751.11655,1
78,4,1,3,2,8,2,c2_WhyHand,2,healthy?,24,H_019.jpg,1633654143.88138,1633654143.8889,10.5703616046906,6.96073746681213,17.5396265888214,19.6404108905792,0.3,27.1098637485504,0.900335073471069,28.011516084671,3,right,0.890197992324829,28.0101988220215,604.475175609589,607.235175609589,1633654157.21174,1633654157.21382,1633654164.181,1633654164.1875,1633654166.28179,1633654173.75124,1633654173.75363,1633654174.65289,1633654174.65157,1633654751.11655,0
78,4,1,3,3,1,1,c1_WhyFace,1,admiring?,4,F_779.jpg,1633654143.88138,1633654143.8889,28.1102368736267,8.52883219718933,36.6467523479462,38.7475368881226,2.10078454017639,38.8975925350189,0.533531904220581,39.4321720504761,1,left,0.520400047302246,39.4311244392395,604.475175609589,607.235175609589,1633654174.75161,1633654174.75394,1633654183.28813,1633654183.29024,1633654185.38891,1633654185.53897,1633654185.54104,1633654186.07355,1633654186.0725,1633654751.11655,1
78,4,1,3,3,2,1,c1_WhyFace,1,admiring?,1,F_593.jpg,1633654143.88138,1633654143.8889,28.1102368736267,8.52883219718933,36.6467523479462,38.7475368881226,0.3,39.7479092979431,0.68358850479126,40.4328520202637,1,left,0.672502994537354,40.4314978027344,604.475175609589,607.235175609589,1633654174.75161,1633654174.75394,1633654183.28813,1633654183.29024,1633654185.38891,1633654186.38929,1633654186.39092,1633654187.07423,1633654187.07287,1633654751.11655,1
78,4,1,3,3,3,1,c1_WhyFace,2,admiring?,3,F_110.jpg,1633654143.88138,1633654143.8889,28.1102368736267,8.52883219718933,36.6467523479462,38.7475368881226,0.3,40.7482828998566,0.800297737121582,41.5500519180298,3,right,0.778202056884766,41.5485806369782,604.475175609589,607.235175609589,1633654174.75161,1633654174.75394,1633654183.28813,1633654183.29024,1633654185.38891,1633654187.38966,1633654187.39124,1633654188.19143,1633654188.18996,1633654751.11655,0
78,4,1,3,3,4,1,c1_WhyFace,1,admiring?,8,F_590.jpg,1633654143.88138,1633654143.8889,28.1102368736267,8.52883219718933,36.6467523479462,38.7475368881226,0.3,41.8653652572632,0.666915893554688,42.5332779788971,1,left,0.654700994491577,42.5322811508179,604.475175609589,607.235175609589,1633654174.75161,1633654174.75394,1633654183.28813,1633654183.29024,1633654185.38891,1633654188.50674,1633654188.50858,1633654189.17465,1633654189.17366,1633654751.11655,1
78,4,1,3,3,5,1,c1_WhyFace,2,admiring?,6,F_692.jpg,1633654143.88138,1633654143.8889,28.1102368736267,8.52883219718933,36.6467523479462,38.7475368881226,0.3,42.8490662479401,0.883662462234497,43.7343690299988,3,right,0.862206935882568,43.7327287101746,604.475175609589,607.235175609589,1633654174.75161,1633654174.75394,1633654183.28813,1633654183.29024,1633654185.38891,1633654189.49044,1633654189.49212,1633654190.37575,1633654190.3741,1633654751.11655,0
78,4,1,3,3,6,1,c1_WhyFace,1,admiring?,5,F_759.jpg,1633654143.88138,1633654143.8889,28.1102368736267,8.52883219718933,36.6467523479462,38.7475368881226,0.3,44.0495133304596,0.733606815338135,44.7842249774933,1,left,0.715353965759277,44.7831201457977,604.475175609589,607.235175609589,1633654174.75161,1633654174.75394,1633654183.28813,1633654183.29024,1633654185.38891,1633654190.69089,1633654190.6924,1633654191.4256,1633654191.4245,1633654751.11655,1
78,4,1,3,3,7,1,c1_WhyFace,1,admiring?,7,F_648.jpg,1633654143.88138,1633654143.8889,28.1102368736267,8.52883219718933,36.6467523479462,38.7475368881226,0.3,45.0999057197571,0.683588027954102,45.7849268817902,1,left,0.661072969436646,45.7834937477112,604.475175609589,607.235175609589,1633654174.75161,1633654174.75394,1633654183.28813,1633654183.29024,1633654185.38891,1633654191.74128,1633654191.74319,1633654192.4263,1633654192.42487,1633654751.11655,1
78,4,1,3,3,8,1,c1_WhyFace,2,admiring?,2,F_129.jpg,1633654143.88138,1633654143.8889,28.1102368736267,8.52883219718933,36.6467523479462,38.7475368881226,0.3,46.1002788448334,0.716933965682983,46.8292329216003,3,right,0.709501028060913,46.8172128105164,604.475175609589,607.235175609589,1633654174.75161,1633654174.75394,1633654183.28813,1633654183.29024,1633654185.38891,1633654192.74165,1633654192.74295,1633654193.47061,1633654193.45859,1633654751.11655,0
78,4,1,3,4,1,3,c3_HowFace,1,smiling?,119,F_139.jpg,1633654143.88138,1633654143.8889,46.9172491931915,8.685950756073,55.6204957866669,57.7212798500061,2.10078406333923,57.8713345432282,0.583551406860352,58.4623260402679,1,left,0.5677649974823,58.4548859500885,604.475175609589,607.235175609589,1633654193.55863,1633654193.57103,1633654202.26187,1633654202.26362,1633654204.36266,1633654204.51271,1633654204.51486,1633654205.1037,1633654205.09626,1633654751.11655,1
78,4,1,3,4,2,3,c3_HowFace,2,smiling?,113,F_712.jpg,1633654143.88138,1633654143.8889,46.9172491931915,8.685950756073,55.6204957866669,57.7212798500061,0.3,58.771670331955,0.550205230712891,59.3229260349274,3,right,0.530591011047363,59.3218755626678,604.475175609589,607.235175609589,1633654193.55863,1633654193.57103,1633654202.26187,1633654202.26362,1633654204.36266,1633654205.41305,1633654205.41498,1633654205.9643,1633654205.96325,1633654751.11655,0
78,4,1,3,4,3,3,c3_HowFace,1,smiling?,115,F_695.jpg,1633654143.88138,1633654143.8889,46.9172491931915,8.685950756073,55.6204957866669,57.7212798500061,0.3,59.6386611366272,0.583550214767456,60.2287819290161,1,left,0.570053100585938,60.2222113513947,604.475175609589,607.235175609589,1633654193.55863,1633654193.57103,1633654202.26187,1633654202.26362,1633654204.36266,1633654206.28004,1633654206.28163,1633654206.87016,1633654206.86359,1633654751.11655,1
78,4,1,3,4,4,3,c3_HowFace,2,smiling?,120,F_758.jpg,1633654143.88138,1633654143.8889,46.9172491931915,8.685950756073,55.6204957866669,57.7212798500061,0.3,60.5389964485168,0.650242567062378,61.1956720256805,3,right,0.633780002593994,61.1892390155792,604.475175609589,607.235175609589,1633654193.55863,1633654193.57103,1633654202.26187,1633654202.26362,1633654204.36266,1633654207.18037,1633654207.18215,1633654207.83705,1633654207.83062,1633654751.11655,0
78,4,1,3,4,5,3,c3_HowFace,1,smiling?,116,F_083.jpg,1633654143.88138,1633654143.8889,46.9172491931915,8.685950756073,55.6204957866669,57.7212798500061,0.3,61.5060236358643,0.533531427383423,62.0457820796967,1,left,0.51914119720459,62.0395550632477,604.475175609589,607.235175609589,1633654193.55863,1633654193.57103,1633654202.26187,1633654202.26362,1633654204.36266,1633654208.1474,1633654208.14849,1633654208.68716,1633654208.68093,1633654751.11655,1
78,4,1,3,4,6,3,c3_HowFace,1,smiling?,118,F_759.jpg,1633654143.88138,1633654143.8889,46.9172491931915,8.685950756073,55.6204957866669,57.7212798500061,0.3,62.356340637207,0.500186681747437,62.8620788955688,1,left,0.486609935760498,62.8565273189545,604.475175609589,607.235175609589,1633654193.55863,1633654193.57103,1633654202.26187,1633654202.26362,1633654204.36266,1633654208.99772,1633654208.99971,1633654209.50345,1633654209.4979,1633654751.11655,1
78,4,1,3,4,7,3,c3_HowFace,2,smiling?,114,F_412.jpg,1633654143.88138,1633654143.8889,46.9172491931915,8.685950756073,55.6204957866669,57.7212798500061,0.3,63.1733121776581,0.583550214767456,63.7621920013428,3,right,0.568130970001221,63.7568623924255,604.475175609589,607.235175609589,1633654193.55863,1633654193.57103,1633654202.26187,1633654202.26362,1633654204.36266,1633654209.81469,1633654209.81625,1633654210.40357,1633654210.39824,1633654751.11655,0
78,4,1,3,4,8,3,c3_HowFace,1,smiling?,117,F_593.jpg,1633654143.88138,1633654143.8889,46.9172491931915,8.685950756073,55.6204957866669,57.7212798500061,0.3,64.0736474895477,0.650243282318115,64.7286119365692,1,left,0.63926100730896,64.7238907718658,604.475175609589,607.235175609589,1633654193.55863,1633654193.57103,1633654202.26187,1633654202.26362,1633654204.36266,1633654210.71502,1633654210.71681,1633654211.36999,1633654211.36527,1633654751.11655,1
78,4,1,3,5,1,4,c4_HowHand,1,lifting?,56,H_136.jpg,1633654143.88138,1633654143.8889,64.7905816936493,8.34335136413574,73.1436967754364,75.2444806003571,2.10078382492065,75.394536485672,0.950354099273682,76.3459219837189,1,left,0.940107107162476,76.3448905849457,604.475175609589,607.235175609589,1633654211.43196,1633654211.43675,1633654219.78507,1633654219.7885,1633654221.88586,1633654222.03591,1633654222.03731,1633654222.9873,1633654222.98627,1633654751.11655,1
78,4,1,3,5,2,4,c4_HowHand,2,lifting?,51,H_038.jpg,1633654143.88138,1633654143.8889,64.7905816936493,8.34335136413574,73.1436967754364,75.2444806003571,0.3,76.6616756820679,0.683588266372681,77.3623690509796,3,right,0.676375865936279,77.3452639484405,604.475175609589,607.235175609589,1633654211.43196,1633654211.43675,1633654219.78507,1633654219.7885,1633654221.88586,1633654223.30305,1633654223.30456,1633654224.00375,1633654223.98664,1633654751.11655,0
78,4,1,3,5,3,4,c4_HowHand,1,lifting?,52,H_189.jpg,1633654143.88138,1633654143.8889,64.7905816936493,8.34335136413574,73.1436967754364,75.2444806003571,0.3,77.6620490455627,1.28381180763245,78.9471900367737,1,left,1.26221108436584,78.9458608531952,604.475175609589,607.235175609589,1633654211.43196,1633654211.43675,1633654219.78507,1633654219.7885,1633654221.88586,1633654224.30343,1633654224.30485,1633654225.58857,1633654225.58724,1633654751.11655,1
78,4,1,3,5,4,4,c4_HowHand,2,lifting?,53,H_077.jpg,1633654143.88138,1633654143.8889,64.7905816936493,8.34335136413574,73.1436967754364,75.2444806003571,0.3,79.2626459503174,0.750277996063232,80.0139489078522,3,right,0.734560012817383,80.0129239463806,604.475175609589,607.235175609589,1633654211.43196,1633654211.43675,1633654219.78507,1633654219.7885,1633654221.88586,1633654225.90402,1633654225.9059,1633654226.65532,1633654226.6543,1633654751.11655,0
78,4,1,3,5,5,4,c4_HowHand,1,lifting?,50,H_443.jpg,1633654143.88138,1633654143.8889,64.7905816936493,8.34335136413574,73.1436967754364,75.2444806003571,0.3,80.3297102355957,0.950354099273682,81.281512966156,1,left,0.931864976882935,81.2800643348694,604.475175609589,607.235175609589,1633654211.43196,1633654211.43675,1633654219.78507,1633654219.7885,1633654221.88586,1633654226.97109,1633654226.97283,1633654227.92289,1633654227.92144,1633654751.11655,1
78,4,1,3,5,6,4,c4_HowHand,2,lifting?,55,H_012.jpg,1633654143.88138,1633654143.8889,64.7905816936493,8.34335136413574,73.1436967754364,75.2444806003571,0.3,81.5968494319916,0.816971063613892,82.4290540122986,3,right,0.8089439868927,82.4138204956055,604.475175609589,607.235175609589,1633654211.43196,1633654211.43675,1633654219.78507,1633654219.7885,1633654221.88586,1633654228.23823,1633654228.23996,1633654229.07043,1633654229.0552,1633654751.11655,0
78,4,1,3,5,7,4,c4_HowHand,1,lifting?,49,H_362.jpg,1633654143.88138,1633654143.8889,64.7905816936493,8.34335136413574,73.1436967754364,75.2444806003571,0.3,82.7306055927277,0.733606815338135,83.4656679534912,1,left,0.722292900085449,83.4642124080658,604.475175609589,607.235175609589,1633654211.43196,1633654211.43675,1633654219.78507,1633654219.7885,1633654221.88586,1633654229.37198,1633654229.37416,1633654230.10704,1633654230.10559,1633654751.11655,1
78,4,1,3,5,8,4,c4_HowHand,1,lifting?,54,H_170.jpg,1633654143.88138,1633654143.8889,64.7905816936493,8.34335136413574,73.1436967754364,75.2444806003571,0.3,83.780997505188,0.616896867752075,84.4121248626709,1,left,0.606431007385254,84.3978943729401,604.475175609589,607.235175609589,1633654211.43196,1633654211.43675,1633654219.78507,1633654219.7885,1633654221.88586,1633654230.42237,1633654230.42415,1633654231.0535,1633654231.03927,1633654751.11655,1
78,4,1,3,6,1,2,c2_WhyHand,1,helping?,38,H_077.jpg,1633654143.88138,1633654143.8889,84.4979312324524,11.1169657707214,95.6187443637848,97.7195291423798,2.10078477859497,97.8695847892761,0.650241851806641,98.5289590263367,1,left,0.626304149627686,98.5198266410828,604.475175609589,607.235175609589,1633654231.13931,1633654231.14061,1633654242.26012,1633654242.27097,1633654244.36091,1633654244.51096,1633654244.52044,1633654245.17034,1633654245.1612,1633654751.11655,1
78,4,1,3,6,2,2,c2_WhyHand,1,helping?,36,H_349.jpg,1633654143.88138,1633654143.8889,84.4979312324524,11.1169657707214,95.6187443637848,97.7195291423798,0.3,98.8366122150421,0.700260639190674,99.5455019378662,1,left,0.68643593788147,99.5368728542328,604.475175609589,607.235175609589,1633654231.13931,1633654231.14061,1633654242.26012,1633654242.27097,1633654244.36091,1633654245.47799,1633654245.47946,1633654246.18688,1633654246.17825,1633654751.11655,1
78,4,1,3,6,3,2,c2_WhyHand,1,helping?,37,H_474.jpg,1633654143.88138,1633654143.8889,84.4979312324524,11.1169657707214,95.6187443637848,97.7195291423798,0.3,99.8536572360992,0.650242328643799,100.505611886978,1,left,0.632190942764282,100.503899564743,604.475175609589,607.235175609589,1633654231.13931,1633654231.14061,1633654242.26012,1633654242.27097,1633654244.36091,1633654246.49503,1633654246.4967,1633654247.14699,1633654247.14528,1633654751.11655,1
78,4,1,3,6,4,2,c2_WhyHand,1,helping?,39,H_024.jpg,1633654143.88138,1633654143.8889,84.4979312324524,11.1169657707214,95.6187443637848,97.7195291423798,0.3,100.820685138702,1.01704573631287,101.839386930466,3,right,0.995912075042725,101.837730875015,604.475175609589,607.235175609589,1633654231.13931,1633654231.14061,1633654242.26012,1633654242.27097,1633654244.36091,1633654247.46206,1633654247.46383,1633654248.48076,1633654248.47911,1633654751.11655,0
78,4,1,3,6,5,2,c2_WhyHand,2,helping?,40,H_012.jpg,1633654143.88138,1633654143.8889,84.4979312324524,11.1169657707214,95.6187443637848,97.7195291423798,0.3,102.154515972137,1.01704597473145,103.178714981079,3,right,1.00285696983337,103.171561946869,604.475175609589,607.235175609589,1633654231.13931,1633654231.14061,1633654242.26012,1633654242.27097,1633654244.36091,1633654248.79589,1633654248.79757,1633654249.82009,1633654249.81294,1633654751.11655,0
78,4,1,3,6,6,2,c2_WhyHand,2,helping?,35,H_159.jpg,1633654143.88138,1633654143.8889,84.4979312324524,11.1169657707214,95.6187443637848,97.7195291423798,0.3,103.488346567154,1.20044827461243,104.69535492897,3,right,1.19150304794312,104.688794841766,604.475175609589,607.235175609589,1633654231.13931,1633654231.14061,1633654242.26012,1633654242.27097,1633654244.36091,1633654250.12972,1633654250.13133,1633654251.33673,1633654251.33017,1633654751.11655,0
78,4,1,3,6,7,2,c2_WhyHand,1,helping?,34,H_111.jpg,1633654143.88138,1633654143.8889,84.4979312324524,11.1169657707214,95.6187443637848,97.7195291423798,0.3,105.005578746796,0.733607053756714,105.745383968353,1,left,0.717582941055298,105.739185800552,604.475175609589,607.235175609589,1633654231.13931,1633654231.14061,1633654242.26012,1633654242.27097,1633654244.36091,1633654251.64695,1633654251.64853,1633654252.38676,1633654252.38056,1633654751.11655,1
78,4,1,3,6,8,2,c2_WhyHand,2,helping?,33,H_091.jpg,1633654143.88138,1633654143.8889,84.4979312324524,11.1169657707214,95.6187443637848,97.7195291423798,0.3,106.055970659256,0.566877841949463,106.628463020325,1,left,0.554892063140869,106.622848501205,604.475175609589,607.235175609589,1633654231.13931,1633654231.14061,1633654242.26012,1633654242.27097,1633654244.36091,1633654252.69735,1633654252.69898,1633654253.26984,1633654253.26422,1633654751.11655,0
78,4,1,3,7,1,1,c1_WhyFace,1,proud?,104,F_598.jpg,1633654143.88138,1633654143.8889,106.706213703156,6.7837061882019,113.508749952316,115.592860689163,2.08411073684692,115.74291633606,0.750280380249023,116.494987955093,1,left,0.730495929718018,116.493196716309,604.475175609589,607.235175609589,1633654253.34759,1633654253.35398,1633654260.15013,1633654260.15199,1633654262.23424,1633654262.38429,1633654262.38714,1633654263.13636,1633654263.13457,1633654751.11655,1
78,4,1,3,7,2,1,c1_WhyFace,2,proud?,102,F_760.jpg,1633654143.88138,1633654143.8889,106.706213703156,6.7837061882019,113.508749952316,115.592860689163,0.3,116.809980621338,0.583550930023193,117.394870033264,3,right,0.573374032974243,117.393531551361,604.475175609589,607.235175609589,1633654253.34759,1633654253.35398,1633654260.15013,1633654260.15199,1633654262.23424,1633654263.45136,1633654263.45388,1633654264.03625,1633654264.03491,1633654751.11655,0
78,4,1,3,7,3,1,c1_WhyFace,1,proud?,97,F_582.jpg,1633654143.88138,1633654143.8889,106.706213703156,6.7837061882019,113.508749952316,115.592860689163,0.3,117.710316410065,0.583550930023193,118.294867982864,1,left,0.575567960739136,118.293867340088,604.475175609589,607.235175609589,1633654253.34759,1633654253.35398,1633654260.15013,1633654260.15199,1633654262.23424,1633654264.35169,1633654264.35365,1633654264.93624,1633654264.93524,1633654751.11655,1
78,4,1,3,7,4,1,c1_WhyFace,2,proud?,98,F_412.jpg,1633654143.88138,1633654143.8889,106.706213703156,6.7837061882019,113.508749952316,115.592860689163,0.3,118.61065243721,0.650242567062378,119.278377046585,3,right,0.643665075302124,119.260895004272,604.475175609589,607.235175609589,1633654253.34759,1633654253.35398,1633654260.15013,1633654260.15199,1633654262.23424,1633654265.25203,1633654265.25349,1633654265.91975,1633654265.90227,1633654751.11655,0
78,4,1,3,7,5,1,c1_WhyFace,1,proud?,101,F_083.jpg,1633654143.88138,1633654143.8889,106.706213703156,6.7837061882019,113.508749952316,115.592860689163,0.3,119.57767914772,0.683588266372681,120.262320985794,1,left,0.659718036651611,120.261267414093,604.475175609589,607.235175609589,1633654253.34759,1633654253.35398,1633654260.15013,1633654260.15199,1633654262.23424,1633654266.21906,1633654266.22061,1633654266.9037,1633654266.90264,1633654751.11655,1
78,4,1,3,7,6,1,c1_WhyFace,2,proud?,100,F_776.jpg,1633654143.88138,1633654143.8889,106.706213703156,6.7837061882019,113.508749952316,115.592860689163,0.3,120.578053941727,0.783624649047852,121.363064041138,3,right,0.773685932159424,121.361678590775,604.475175609589,607.235175609589,1633654253.34759,1633654253.35398,1633654260.15013,1633654260.15199,1633654262.23424,1633654267.21943,1633654267.22093,1633654268.00444,1633654268.00305,1633654751.11655,0
78,4,1,3,7,7,1,c1_WhyFace,1,proud?,103,F_618.jpg,1633654143.88138,1633654143.8889,106.706213703156,6.7837061882019,113.508749952316,115.592860689163,0.3,121.678464164734,0.683587312698364,122.363868942261,1,left,0.663753032684326,122.362051477432,604.475175609589,607.235175609589,1633654253.34759,1633654253.35398,1633654260.15013,1633654260.15199,1633654262.23424,1633654268.31984,1633654268.32175,1633654269.00524,1633654269.00343,1633654751.11655,1
78,4,1,3,7,8,1,c1_WhyFace,1,proud?,99,F_695.jpg,1633654143.88138,1633654143.8889,106.706213703156,6.7837061882019,113.508749952316,115.592860689163,0.3,122.678836812973,0.866989850997925,123.561702957153,1,left,0.860353946685791,123.545826663971,604.475175609589,607.235175609589,1633654253.34759,1633654253.35398,1633654260.15013,1633654260.15199,1633654262.23424,1633654269.32021,1633654269.32204,1633654270.20308,1633654270.1872,1633654751.11655,1
78,4,1,3,8,1,3,c3_HowFace,1,looking to side?,72,F_590.jpg,1633654143.88138,1633654143.8889,123.629190673828,7.39073133468628,131.031951656342,133.132735481262,2.10078382492065,133.282790412903,0.583550930023193,133.879155864716,1,left,0.573004007339478,133.866341342926,604.475175609589,607.235175609589,1633654270.27057,1633654270.27226,1633654277.67333,1633654277.67535,1633654279.77411,1633654279.92417,1633654279.92591,1633654280.52053,1633654280.50772,1633654751.11655,1
78,4,1,3,8,2,3,c3_HowFace,1,looking to side?,71,F_433.jpg,1633654143.88138,1633654143.8889,123.629190673828,7.39073133468628,131.031951656342,133.132735481262,0.3,134.183126678467,0.516858577728271,134.711623897552,1,left,0.503657102584839,134.699985256195,604.475175609589,607.235175609589,1633654270.27057,1633654270.27226,1633654277.67333,1633654277.67535,1633654279.77411,1633654280.8245,1633654280.82624,1633654281.353,1633654281.34136,1633654751.11655,1
78,4,1,3,8,3,3,c3_HowFace,1,looking to side?,67,F_716.jpg,1633654143.88138,1633654143.8889,123.629190673828,7.39073133468628,131.031951656342,133.132735481262,0.3,135.016770353317,0.633569955825806,135.651362886429,1,left,0.61188793182373,135.650340309143,604.475175609589,607.235175609589,1633654270.27057,1633654270.27226,1633654277.67333,1633654277.67535,1633654279.77411,1633654281.65815,1633654281.65984,1633654282.29274,1633654282.29172,1633654751.11655,1
78,4,1,3,8,4,3,c3_HowFace,2,looking to side?,70,F_779.jpg,1633654143.88138,1633654143.8889,123.629190673828,7.39073133468628,131.031951656342,133.132735481262,0.3,135.967125883102,0.633568286895752,136.60238193512,1,left,0.617329835891724,136.600694169998,604.475175609589,607.235175609589,1633654270.27057,1633654270.27226,1633654277.67333,1633654277.67535,1633654279.77411,1633654282.6085,1633654282.61045,1633654283.24376,1633654283.24207,1633654751.11655,0
78,4,1,3,8,5,3,c3_HowFace,1,looking to side?,68,F_760.jpg,1633654143.88138,1633654143.8889,123.629190673828,7.39073133468628,131.031951656342,133.132735481262,0.3,136.91747926712,0.900335788726807,137.81893204689,1,left,0.877388000488281,137.817815055847,604.475175609589,607.235175609589,1633654270.27057,1633654270.27226,1633654277.67333,1633654277.67535,1633654279.77411,1633654283.55886,1633654283.56082,1633654284.46031,1633654284.45919,1633654751.11655,1
78,4,1,3,8,6,3,c3_HowFace,2,looking to side?,66,F_111.jpg,1633654143.88138,1633654143.8889,123.629190673828,7.39073133468628,131.031951656342,133.132735481262,0.3,138.134600629807,0.666914939880371,138.803234090805,3,right,0.646983861923218,138.801515569687,604.475175609589,607.235175609589,1633654270.27057,1633654270.27226,1633654277.67333,1633654277.67535,1633654279.77411,1633654284.77598,1633654284.77782,1633654285.44461,1633654285.44289,1633654751.11655,0
78,4,1,3,8,7,3,c3_HowFace,1,looking to side?,69,F_110.jpg,1633654143.88138,1633654143.8889,123.629190673828,7.39073133468628,131.031951656342,133.132735481262,0.3,139.118300428391,1.11708283424377,140.236913909912,1,left,1.09433007240295,140.235383262634,604.475175609589,607.235175609589,1633654270.27057,1633654270.27226,1633654277.67333,1633654277.67535,1633654279.77411,1633654285.75968,1633654285.76139,1633654286.87829,1633654286.87676,1633654751.11655,1
78,4,1,3,8,8,3,c3_HowFace,2,looking to side?,65,F_798.jpg,1633654143.88138,1633654143.8889,123.629190673828,7.39073133468628,131.031951656342,133.132735481262,0.3,140.552168359756,0.666914939880371,141.228372087479,3,right,0.658119201660156,141.219083299637,604.475175609589,607.235175609589,1633654270.27057,1633654270.27226,1633654277.67333,1633654277.67535,1633654279.77411,1633654287.19354,1633654287.19531,1633654287.86975,1633654287.86046,1633654751.11655,0
78,4,1,3,9,1,1,c1_WhyFace,1,argument?,43,F_716.jpg,1633654143.88138,1633654143.8889,141.302447547913,8.825439453125,150.139077177048,152.23986076355,2.10078358650208,152.389915933609,0.83364462852478,153.228462924957,3,right,0.815286874771118,153.223560562134,604.475175609589,607.235175609589,1633654287.94382,1633654287.94536,1633654296.78045,1633654296.78718,1633654298.88124,1633654299.03129,1633654299.03705,1633654299.86984,1633654299.86494,1633654751.11655,0
78,4,1,3,9,2,1,c1_WhyFace,2,argument?,44,F_139.jpg,1633654143.88138,1633654143.8889,141.302447547913,8.825439453125,150.139077177048,152.23986076355,0.3,153.540344705582,0.583552360534668,154.128787984848,1,left,0.574373960494995,154.123897066116,604.475175609589,607.235175609589,1633654287.94382,1633654287.94536,1633654296.78045,1633654296.78718,1633654298.88124,1633654300.18172,1633654300.18351,1633654300.77016,1633654300.76527,1633654751.11655,0
78,4,1,3,9,3,1,c1_WhyFace,1,argument?,41,F_712.jpg,1633654143.88138,1633654143.8889,141.302447547913,8.825439453125,150.139077177048,152.23986076355,0.3,154.440681209564,0.733606100082397,155.179296007156,1,left,0.712520837783813,155.174287309647,604.475175609589,607.235175609589,1633654287.94382,1633654287.94536,1633654296.78045,1633654296.78718,1633654298.88124,1633654301.08206,1633654301.08719,1633654301.82067,1633654301.81566,1633654751.11655,1
78,4,1,3,9,4,1,c1_WhyFace,2,argument?,45,F_433.jpg,1633654143.88138,1633654143.8889,141.302447547913,8.825439453125,150.139077177048,152.23986076355,0.3,155.491072883606,0.733606815338135,156.228477945328,3,right,0.716637849807739,156.224679698944,604.475175609589,607.235175609589,1633654287.94382,1633654287.94536,1633654296.78045,1633654296.78718,1633654298.88124,1633654302.13245,1633654302.13719,1633654302.86985,1633654302.86606,1633654751.11655,0
78,4,1,3,9,5,1,c1_WhyFace,1,argument?,42,F_403.jpg,1633654143.88138,1633654143.8889,141.302447547913,8.825439453125,150.139077177048,152.23986076355,0.3,156.541464319229,0.550204992294312,157.095018854141,1,left,0.533092021942139,157.091669311523,604.475175609589,607.235175609589,1633654287.94382,1633654287.94536,1633654296.78045,1633654296.78718,1633654298.88124,1633654303.18284,1633654303.18694,1633654303.73639,1633654303.73305,1633654751.11655,1
78,4,1,3,9,6,1,c1_WhyFace,2,argument?,46,F_844.jpg,1633654143.88138,1633654143.8889,141.302447547913,8.825439453125,150.139077177048,152.23986076355,0.3,157.408454647064,0.716933488845825,158.128242959976,3,right,0.70606803894043,158.12538813591,604.475175609589,607.235175609589,1633654287.94382,1633654287.94536,1633654296.78045,1633654296.78718,1633654298.88124,1633654304.04983,1633654304.05387,1633654304.76962,1633654304.76676,1633654751.11655,0
78,4,1,3,9,7,1,c1_WhyFace,1,argument?,47,F_743.jpg,1633654143.88138,1633654143.8889,141.302447547913,8.825439453125,150.139077177048,152.23986076355,0.3,158.442172756195,0.917008876800537,159.361949911118,1,left,0.905210018157959,159.359181632996,604.475175609589,607.235175609589,1633654287.94382,1633654287.94536,1633654296.78045,1633654296.78718,1633654298.88124,1633654305.08355,1633654305.08699,1633654306.00333,1633654306.00056,1633654751.11655,1
78,4,1,3,9,8,1,c1_WhyFace,1,argument?,48,F_758.jpg,1633654143.88138,1633654143.8889,141.302447547913,8.825439453125,150.139077177048,152.23986076355,0.3,159.675966491699,0.633569240570068,160.311630954742,1,left,0.61182713508606,160.309535732269,604.475175609589,607.235175609589,1633654287.94382,1633654287.94536,1633654296.78045,1633654296.78718,1633654298.88124,1633654306.31734,1633654306.31989,1633654306.95301,1633654306.95091,1633654751.11655,1
78,4,1,3,10,1,3,c3_HowFace,1,open mouth?,80,F_844.jpg,1633654143.88138,1633654143.8889,160.376227607727,7.59209847450256,167.979063978195,170.07984708786,2.10078310966492,170.229902496338,0.483511924743652,170.714358081818,1,left,0.472965955734253,170.713414421082,604.475175609589,607.235175609589,1633654307.0176,1633654307.02022,1633654314.62044,1633654314.62221,1633654316.72122,1633654316.87128,1633654316.87283,1633654317.35573,1633654317.35479,1633654751.11655,1
78,4,1,3,10,2,3,c3_HowFace,1,open mouth?,74,F_776.jpg,1633654143.88138,1633654143.8889,160.376227607727,7.59209847450256,167.979063978195,170.07984708786,0.3,171.030199995041,0.483514547348022,171.529130926132,1,left,0.475814819335938,171.513714542389,604.475175609589,607.235175609589,1633654307.0176,1633654307.02022,1633654314.62044,1633654314.62221,1633654316.72122,1633654317.67158,1633654317.6729,1633654318.17051,1633654318.15509,1633654751.11655,1
78,4,1,3,10,3,3,c3_HowFace,2,open mouth?,76,F_544.jpg,1633654143.88138,1633654143.8889,160.376227607727,7.59209847450256,167.979063978195,170.07984708786,0.3,171.830499639511,0.500186204910278,172.345802059174,3,right,0.491720914840698,172.330685844421,604.475175609589,607.235175609589,1633654307.0176,1633654307.02022,1633654314.62044,1633654314.62221,1633654316.72122,1633654318.47188,1633654318.47328,1633654318.98718,1633654318.97206,1633654751.11655,0
78,4,1,3,10,4,3,c3_HowFace,1,open mouth?,78,F_692.jpg,1633654143.88138,1633654143.8889,160.376227607727,7.59209847450256,167.979063978195,170.07984708786,0.3,172.647470464706,0.600224494934082,173.249325027466,1,left,0.577357053756714,173.247694959641,604.475175609589,607.235175609589,1633654307.0176,1633654307.02022,1633654314.62044,1633654314.62221,1633654316.72122,1633654319.28885,1633654319.29068,1633654319.8907,1633654319.88907,1633654751.11655,1
78,4,1,3,10,5,3,c3_HowFace,2,open mouth?,77,F_584.jpg,1633654143.88138,1633654143.8889,160.376227607727,7.59209847450256,167.979063978195,170.07984708786,0.3,173.564479818344,0.616897344589233,174.195590963364,3,right,0.605854988098145,174.181377162933,604.475175609589,607.235175609589,1633654307.0176,1633654307.02022,1633654314.62044,1633654314.62221,1633654316.72122,1633654320.20586,1633654320.2077,1633654320.83697,1633654320.82275,1633654751.11655,0
78,4,1,3,10,6,3,c3_HowFace,1,open mouth?,73,F_403.jpg,1633654143.88138,1633654143.8889,160.376227607727,7.59209847450256,167.979063978195,170.07984708786,0.3,174.498160114288,0.533533334732056,175.032852878571,1,left,0.509043216705322,175.03169344902,604.475175609589,607.235175609589,1633654307.0176,1633654307.02022,1633654314.62044,1633654314.62221,1633654316.72122,1633654321.13954,1633654321.1413,1633654321.67423,1633654321.67307,1633654751.11655,1
78,4,1,3,10,7,3,c3_HowFace,1,open mouth?,75,F_086.jpg,1633654143.88138,1633654143.8889,160.376227607727,7.59209847450256,167.979063978195,170.07984708786,0.3,175.348478784561,0.48351263999939,175.845690002441,1,left,0.474622011184692,175.831991424561,604.475175609589,607.235175609589,1633654307.0176,1633654307.02022,1633654314.62044,1633654314.62221,1633654316.72122,1633654321.98985,1633654321.99148,1633654322.48707,1633654322.47337,1633654751.11655,1
78,4,1,3,10,8,3,c3_HowFace,2,open mouth?,79,F_648.jpg,1633654143.88138,1633654143.8889,160.376227607727,7.59209847450256,167.979063978195,170.07984708786,0.3,176.148776760101,0.533531665802002,176.695055952072,3,right,0.526556015014648,176.682308425903,604.475175609589,607.235175609589,1633654307.0176,1633654307.02022,1633654314.62044,1633654314.62221,1633654316.72122,1633654322.79015,1633654322.79152,1633654323.33643,1633654323.32368,1633654751.11655,0
78,4,1,3,11,1,4,c4_HowHand,1,pressing button?,88,H_019.jpg,1633654143.88138,1633654143.8889,176.749000062943,9.10897898674011,185.869067182541,187.969851484299,2.10078430175781,188.119907369614,0.500185966491699,188.629158964157,1,left,0.484064102172852,188.620093336105,604.475175609589,607.235175609589,1633654323.39038,1633654323.40335,1633654332.51044,1633654332.52028,1633654334.61123,1633654334.76128,1633654334.76351,1633654335.27053,1633654335.26147,1633654751.11655,1
78,4,1,3,11,2,4,c4_HowHand,2,pressing button?,87,H_024.jpg,1633654143.88138,1633654143.8889,176.749000062943,9.10897898674011,185.869067182541,187.969851484299,0.3,188.936878433228,0.70026159286499,189.638168087006,3,right,0.679451942443848,189.637140026093,604.475175609589,607.235175609589,1633654323.39038,1633654323.40335,1633654332.51044,1633654332.52028,1633654334.61123,1633654335.57825,1633654335.57994,1633654336.27954,1633654336.27852,1633654751.11655,0
78,4,1,3,11,3,4,c4_HowHand,2,pressing button?,85,H_130.jpg,1633654143.88138,1633654143.8889,176.749000062943,9.10897898674011,185.869067182541,187.969851484299,0.3,189.953924884796,0.700261116027832,190.66206287384,3,right,0.689572811126709,190.654186000824,604.475175609589,607.235175609589,1633654323.39038,1633654323.40335,1633654332.51044,1633654332.52028,1633654334.61123,1633654336.5953,1633654336.59699,1633654337.30344,1633654337.29556,1633654751.11655,0
78,4,1,3,11,4,4,c4_HowHand,1,pressing button?,83,H_502.jpg,1633654143.88138,1633654143.8889,176.749000062943,9.10897898674011,185.869067182541,187.969851484299,0.3,190.97097038269,0.53353214263916,191.511724939346,1,left,0.517877101898193,191.50450252533,604.475175609589,607.235175609589,1633654323.39038,1633654323.40335,1633654332.51044,1633654332.52028,1633654334.61123,1633654337.61235,1633654337.614,1633654338.1531,1633654338.14588,1633654751.11655,1
78,4,1,3,11,5,4,c4_HowHand,2,pressing button?,81,H_261.jpg,1633654143.88138,1633654143.8889,176.749000062943,9.10897898674011,185.869067182541,187.969851484299,0.3,191.821287622452,0.566877603530884,192.395003070831,3,right,0.558552026748657,192.388165225983,604.475175609589,607.235175609589,1633654323.39038,1633654323.40335,1633654332.51044,1633654332.52028,1633654334.61123,1633654338.46266,1633654338.46432,1633654339.03638,1633654339.02954,1633654751.11655,0
78,4,1,3,11,6,4,c4_HowHand,1,pressing button?,86,H_332.jpg,1633654143.88138,1633654143.8889,176.749000062943,9.10897898674011,185.869067182541,187.969851484299,0.3,192.704950561523,0.483513832092285,193.189938058853,1,left,0.46301794052124,193.188464393616,604.475175609589,607.235175609589,1633654323.39038,1633654323.40335,1633654332.51044,1633654332.52028,1633654334.61123,1633654339.34633,1633654339.34788,1633654339.83131,1633654339.82984,1633654751.11655,1
78,4,1,3,11,7,4,c4_HowHand,1,pressing button?,82,H_126.jpg,1633654143.88138,1633654143.8889,176.749000062943,9.10897898674011,185.869067182541,187.969851484299,0.3,193.505248537064,0.533533334732056,194.04504488945,1,left,0.516829013824463,194.038781871796,604.475175609589,607.235175609589,1633654323.39038,1633654323.40335,1633654332.51044,1633654332.52028,1633654334.61123,1633654340.14662,1633654340.14762,1633654340.68642,1633654340.68016,1633654751.11655,1
78,4,1,3,11,8,4,c4_HowHand,1,pressing button?,84,H_483.jpg,1633654143.88138,1633654143.8889,176.749000062943,9.10897898674011,185.869067182541,187.969851484299,0.3,194.355565538406,0.600224018096924,194.957356920242,1,left,0.582024097442627,194.955789556503,604.475175609589,607.235175609589,1633654323.39038,1633654323.40335,1633654332.51044,1633654332.52028,1633654334.61123,1633654340.99694,1633654340.99859,1633654341.59873,1633654341.59717,1633654751.11655,1
78,4,1,3,12,1,2,c2_WhyHand,1,competing?,9,H_261.jpg,1633654143.88138,1633654143.8889,195.039155235291,8.60884284973145,203.65903591156,205.759819736481,2.10078382492065,205.909875144959,0.516859769821167,206.428973903656,1,left,0.502011060714722,206.42673491478,604.475175609589,607.235175609589,1633654341.68053,1633654341.68214,1633654350.30041,1633654350.30397,1633654352.4012,1633654352.55125,1633654352.55374,1633654353.07035,1633654353.06811,1633654751.11655,1
78,4,1,3,12,2,2,c2_WhyHand,2,competing?,12,H_483.jpg,1633654143.88138,1633654143.8889,195.039155235291,8.60884284973145,203.65903591156,205.759819736481,0.3,206.743519535065,0.65024209022522,207.395632972717,3,right,0.629831075668335,207.39376162529,604.475175609589,607.235175609589,1633654341.68053,1633654341.68214,1633654350.30041,1633654350.30397,1633654352.4012,1633654353.3849,1633654353.38708,1633654354.03701,1633654354.03514,1633654751.11655,0
78,4,1,3,12,3,2,c2_WhyHand,1,competing?,14,H_132.jpg,1633654143.88138,1633654143.8889,195.039155235291,8.60884284973145,203.65903591156,205.759819736481,0.3,207.710546483994,0.716934442520142,208.428545942307,1,left,0.694541931152344,208.427480926514,604.475175609589,607.235175609589,1633654341.68053,1633654341.68214,1633654350.30041,1633654350.30397,1633654352.4012,1633654354.35192,1633654354.35396,1633654355.06992,1633654355.06886,1633654751.11655,1
78,4,1,3,12,4,2,c2_WhyHand,2,competing?,10,H_126.jpg,1633654143.88138,1633654143.8889,195.039155235291,8.60884284973145,203.65903591156,205.759819736481,0.3,208.744266023636,0.716933965682983,209.462584962845,3,right,0.703317880630493,209.461199989319,604.475175609589,607.235175609589,1633654341.68053,1633654341.68214,1633654350.30041,1633654350.30397,1633654352.4012,1633654355.38564,1633654355.38724,1633654356.10396,1633654356.10258,1633654751.11655,0
78,4,1,3,12,5,2,c2_WhyHand,1,competing?,16,H_136.jpg,1633654143.88138,1633654143.8889,195.039155235291,8.60884284973145,203.65903591156,205.759819736481,0.3,209.777984371185,0.75027871131897,210.529536952972,1,left,0.737344980239868,210.528263082504,604.475175609589,607.235175609589,1633654341.68053,1633654341.68214,1633654350.30041,1633654350.30397,1633654352.4012,1633654356.41936,1633654356.42102,1633654357.17091,1633654357.16964,1633654751.11655,1
78,4,1,3,12,6,2,c2_WhyHand,2,competing?,11,H_502.jpg,1633654143.88138,1633654143.8889,195.039155235291,8.60884284973145,203.65903591156,205.759819736481,0.3,210.845048418045,0.783626079559326,211.629988899231,3,right,0.768567085266113,211.628674497604,604.475175609589,607.235175609589,1633654341.68053,1633654341.68214,1633654350.30041,1633654350.30397,1633654352.4012,1633654357.48642,1633654357.48811,1633654358.27136,1633654358.27005,1633654751.11655,0
78,4,1,3,12,7,2,c2_WhyHand,1,competing?,13,H_003.jpg,1633654143.88138,1633654143.8889,195.039155235291,8.60884284973145,203.65903591156,205.759819736481,0.3,211.945460309982,0.666913986206055,212.613385906219,1,left,0.646876811981201,212.612374296188,604.475175609589,607.235175609589,1633654341.68053,1633654341.68214,1633654350.30041,1633654350.30397,1633654352.4012,1633654358.58684,1633654358.5887,1633654359.25476,1633654359.25375,1633654751.11655,1
78,4,1,3,12,8,2,c2_WhyHand,1,competing?,15,H_170.jpg,1633654143.88138,1633654143.8889,195.039155235291,8.60884284973145,203.65903591156,205.759819736481,0.3,212.929159393311,0.600224494934082,213.545110931396,1,left,0.593873977661133,213.529383888245,604.475175609589,607.235175609589,1633654341.68053,1633654341.68214,1633654350.30041,1633654350.30397,1633654352.4012,1633654359.57054,1633654359.57213,1633654360.18649,1633654360.17076,1633654751.11655,1
78,4,1,3,13,1,1,c1_WhyFace,1,self-doubt?,29,F_544.jpg,1633654143.88138,1633654143.8889,213.612747421265,8.10531854629517,221.732442846298,223.833225717545,2.10078287124634,223.98328160286,0.683587789535522,224.678391923904,1,left,0.675277948379517,224.666869392395,604.475175609589,607.235175609589,1633654360.25412,1633654360.25584,1633654368.37382,1633654368.37589,1633654370.4746,1633654370.62466,1633654370.62663,1633654371.31977,1633654371.30825,1633654751.11655,1
78,4,1,3,13,2,1,c1_WhyFace,2,self-doubt?,27,F_086.jpg,1633654143.88138,1633654143.8889,213.612747421265,8.10531854629517,221.732442846298,223.833225717545,0.3,224.983654489517,0.516859769821167,225.51216386795,3,right,0.506109952926636,225.500514259338,604.475175609589,607.235175609589,1633654360.25412,1633654360.25584,1633654368.37382,1633654368.37589,1633654370.4746,1633654371.62503,1633654371.62656,1633654372.15354,1633654372.14189,1633654751.11655,0
78,4,1,3,13,3,1,c1_WhyFace,1,self-doubt?,25,F_798.jpg,1633654143.88138,1633654143.8889,213.612747421265,8.10531854629517,221.732442846298,223.833225717545,0.3,225.817298402786,0.566877603530884,226.395328989029,1,left,0.555675983428955,226.384176006317,604.475175609589,607.235175609589,1633654360.25412,1633654360.25584,1633654368.37382,1633654368.37589,1633654370.4746,1633654372.45867,1633654372.46037,1633654373.03671,1633654373.02555,1633654751.11655,1
78,4,1,3,13,4,1,c1_WhyFace,1,self-doubt?,26,F_111.jpg,1633654143.88138,1633654143.8889,213.612747421265,8.10531854629517,221.732442846298,223.833225717545,0.3,226.700961580276,0.566878080368042,227.269545068741,1,left,0.545172929763794,227.267839660645,604.475175609589,607.235175609589,1633654360.25412,1633654360.25584,1633654368.37382,1633654368.37589,1633654370.4746,1633654373.34234,1633654373.34425,1633654373.91092,1633654373.90922,1633654751.11655,1
78,4,1,3,13,5,1,c1_WhyFace,2,self-doubt?,31,F_774.jpg,1633654143.88138,1633654143.8889,213.612747421265,8.10531854629517,221.732442846298,223.833225717545,0.3,227.584625234604,0.566877365112305,228.152639856339,3,right,0.54968786239624,228.151502599716,604.475175609589,607.235175609589,1633654360.25412,1633654360.25584,1633654368.37382,1633654368.37589,1633654370.4746,1633654374.226,1633654374.22803,1633654374.79402,1633654374.79288,1633654751.11655,0
78,4,1,3,13,6,1,c1_WhyFace,1,self-doubt?,28,F_754.jpg,1633654143.88138,1633654143.8889,213.612747421265,8.10531854629517,221.732442846298,223.833225717545,0.3,228.46828745842,0.583551168441772,229.06173204422,1,left,0.5698561668396,229.051838626862,604.475175609589,607.235175609589,1633654360.25412,1633654360.25584,1633654368.37382,1633654368.37589,1633654370.4746,1633654375.10966,1633654375.11111,1633654375.70311,1633654375.69321,1633654751.11655,1
78,4,1,3,13,7,1,c1_WhyFace,2,self-doubt?,32,F_128.jpg,1633654143.88138,1633654143.8889,213.612747421265,8.10531854629517,221.732442846298,223.833225717545,0.3,229.368623723984,0.800298929214478,230.179082860947,3,right,0.789590120315552,230.168922653198,604.475175609589,607.235175609589,1633654360.25412,1633654360.25584,1633654368.37382,1633654368.37589,1633654370.4746,1633654376.01,1633654376.01156,1633654376.82046,1633654376.8103,1633654751.11655,0
78,4,1,3,13,8,1,c1_WhyFace,1,self-doubt?,30,F_584.jpg,1633654143.88138,1633654143.8889,213.612747421265,8.10531854629517,221.732442846298,223.833225717545,0.3,230.485706319809,1.40052247047424,231.895205011368,3,right,1.39296388626099,231.886228790283,604.475175609589,607.235175609589,1633654360.25412,1633654360.25584,1633654368.37382,1633654368.37589,1633654370.4746,1633654377.12708,1633654377.12884,1633654378.53658,1633654378.5276,1633654751.11655,0
78,4,1,3,14,1,3,c3_HowFace,1,looking at camera?,64,F_128.jpg,1633654143.88138,1633654143.8889,231.969593753815,8.80230331420898,240.789550056458,242.890332689285,2.10078263282776,243.040388813019,0.450167894363403,243.492387046814,1,left,0.425929069519043,243.490556707382,604.475175609589,607.235175609589,1633654378.61097,1633654378.61257,1633654387.43093,1633654387.43274,1633654389.53171,1633654389.68176,1633654389.68396,1633654390.13376,1633654390.13193,1633654751.11655,1
78,4,1,3,14,2,3,c3_HowFace,1,looking at camera?,60,F_618.jpg,1633654143.88138,1633654143.8889,231.969593753815,8.80230331420898,240.789550056458,242.890332689285,0.3,243.807340612412,0.466841220855713,244.279074897766,1,left,0.450162887573242,244.274181833267,604.475175609589,607.235175609589,1633654378.61097,1633654378.61257,1633654387.43093,1633654387.43274,1633654389.53171,1633654390.44872,1633654390.45045,1633654390.92045,1633654390.91556,1633654751.11655,1
78,4,1,3,14,3,3,c3_HowFace,1,looking at camera?,62,F_598.jpg,1633654143.88138,1633654143.8889,231.969593753815,8.80230331420898,240.789550056458,242.890332689285,0.3,244.590966215134,0.566878080368042,245.161716928482,1,left,0.54482889175415,245.157844295502,604.475175609589,607.235175609589,1633654378.61097,1633654378.61257,1633654387.43093,1633654387.43274,1633654389.53171,1633654391.23234,1633654391.23681,1633654391.80309,1633654391.79922,1633654751.11655,1
78,4,1,3,14,4,3,c3_HowFace,2,looking at camera?,63,F_743.jpg,1633654143.88138,1633654143.8889,231.969593753815,8.80230331420898,240.789550056458,242.890332689285,0.3,245.474629631042,0.516859531402588,245.992573013306,3,right,0.49208402633667,245.991489162445,604.475175609589,607.235175609589,1633654378.61097,1633654378.61257,1633654387.43093,1633654387.43274,1633654389.53171,1633654392.11601,1633654392.12028,1633654392.63395,1633654392.63287,1633654751.11655,0
78,4,1,3,14,5,3,c3_HowFace,1,looking at camera?,61,F_774.jpg,1633654143.88138,1633654143.8889,231.969593753815,8.80230331420898,240.789550056458,242.890332689285,0.3,246.308273305893,0.566878318786621,246.878392925262,1,left,0.545603036880493,246.87515162468,604.475175609589,607.235175609589,1633654378.61097,1633654378.61257,1633654387.43093,1633654387.43274,1633654389.53171,1633654392.94965,1633654392.95355,1633654393.51977,1633654393.51653,1633654751.11655,1
78,4,1,3,14,6,3,c3_HowFace,2,looking at camera?,57,F_582.jpg,1633654143.88138,1633654143.8889,231.969593753815,8.80230331420898,240.789550056458,242.890332689285,0.3,247.191935768127,0.666916847229004,247.861708869934,3,right,0.645859003067017,247.858852615356,604.475175609589,607.235175609589,1633654378.61097,1633654378.61257,1633654387.43093,1633654387.43274,1633654389.53171,1633654393.83331,1633654393.83695,1633654394.50308,1633654394.50023,1633654751.11655,0
78,4,1,3,14,7,3,c3_HowFace,2,looking at camera?,58,F_754.jpg,1633654143.88138,1633654143.8889,231.969593753815,8.80230331420898,240.789550056458,242.890332689285,0.3,248.175636520386,0.633570194244385,248.811768045425,3,right,0.61646294593811,248.80920671463,604.475175609589,607.235175609589,1633654378.61097,1633654378.61257,1633654387.43093,1633654387.43274,1633654389.53171,1633654394.81701,1633654394.82037,1633654395.45314,1633654395.45058,1633654751.11655,0
78,4,1,3,14,8,3,c3_HowFace,1,looking at camera?,59,F_129.jpg,1633654143.88138,1633654143.8889,231.969593753815,8.80230331420898,240.789550056458,242.890332689285,0.3,249.125990619659,0.683589458465576,249.811557044983,3,right,0.675421953201294,249.809580078125,604.475175609589,607.235175609589,1633654378.61097,1633654378.61257,1633654387.43093,1633654387.43274,1633654389.53171,1633654395.76737,1633654395.76995,1633654396.45293,1633654396.45096,1633654751.11655,0
78,4,1,3,15,1,4,c4_HowHand,1,both hands?,123,H_167.jpg,1633654143.88138,1633654143.8889,249.876271715164,9.68562936782837,259.579889526367,261.680674066544,2.10078454017639,261.83072971344,0.633569478988647,262.479045858383,1,left,0.622811079025269,262.464299192429,604.475175609589,607.235175609589,1633654396.51765,1633654396.51976,1633654406.22127,1633654406.22303,1633654408.32205,1633654408.47211,1633654408.47408,1633654409.12042,1633654409.10568,1633654751.11655,1
78,4,1,3,15,2,4,c4_HowHand,2,both hands?,121,H_091.jpg,1633654143.88138,1633654143.8889,249.876271715164,9.68562936782837,259.579889526367,261.680674066544,0.3,262.781083574295,0.633569955825806,263.416589012146,3,right,0.617389917373657,263.414653530121,604.475175609589,607.235175609589,1633654396.51765,1633654396.51976,1633654406.22127,1633654406.22303,1633654408.32205,1633654409.42246,1633654409.42412,1633654410.05797,1633654410.05603,1633654751.11655,0
78,4,1,3,15,3,4,c4_HowHand,2,both hands?,125,H_627.jpg,1633654143.88138,1633654143.8889,249.876271715164,9.68562936782837,259.579889526367,261.680674066544,0.3,263.731439342499,0.666914224624634,264.399395933151,3,right,0.651155948638916,264.398353567123,604.475175609589,607.235175609589,1633654396.51765,1633654396.51976,1633654406.22127,1633654406.22303,1633654408.32205,1633654410.37282,1633654410.37472,1633654411.04077,1633654411.03973,1633654751.11655,0
78,4,1,3,15,4,4,c4_HowHand,1,both hands?,128,H_027.jpg,1633654143.88138,1633654143.8889,249.876271715164,9.68562936782837,259.579889526367,261.680674066544,0.3,264.715138425827,0.53353214263916,265.250215997696,1,left,0.512519836425781,265.248670568466,604.475175609589,607.235175609589,1633654396.51765,1633654396.51976,1633654406.22127,1633654406.22303,1633654408.32205,1633654411.35651,1633654411.35836,1633654411.89159,1633654411.89005,1633654751.11655,1
78,4,1,3,15,5,4,c4_HowHand,1,both hands?,122,H_111.jpg,1633654143.88138,1633654143.8889,249.876271715164,9.68562936782837,259.579889526367,261.680674066544,0.3,265.56545542717,0.750279903411865,266.317178001404,1,left,0.729710102081299,266.315735330582,604.475175609589,607.235175609589,1633654396.51765,1633654396.51976,1633654406.22127,1633654406.22303,1633654408.32205,1633654412.20683,1633654412.20834,1633654412.95855,1633654412.95711,1633654751.11655,1
78,4,1,3,15,6,4,c4_HowHand,2,both hands?,126,H_159.jpg,1633654143.88138,1633654143.8889,249.876271715164,9.68562936782837,259.579889526367,261.680674066544,0.3,266.63251947403,0.68358850479126,267.317874898911,3,right,0.662981033325195,267.316107978821,604.475175609589,607.235175609589,1633654396.51765,1633654396.51976,1633654406.22127,1633654406.22303,1633654408.32205,1633654413.2739,1633654413.27555,1633654413.95925,1633654413.95748,1633654751.11655,0
78,4,1,3,15,7,4,c4_HowHand,1,both hands?,124,H_581.jpg,1633654143.88138,1633654143.8889,249.876271715164,9.68562936782837,259.579889526367,261.680674066544,0.3,267.632892599106,1.10041117668152,268.735101928711,1,left,1.07712697982788,268.733303775787,604.475175609589,607.235175609589,1633654396.51765,1633654396.51976,1633654406.22127,1633654406.22303,1633654408.32205,1633654414.27427,1633654414.27601,1633654415.37648,1633654415.37468,1633654751.11655,1
78,4,1,3,15,8,4,c4_HowHand,1,both hands?,127,H_349.jpg,1633654143.88138,1633654143.8889,249.876271715164,9.68562936782837,259.579889526367,261.680674066544,0.3,269.050088396072,1.10041069984436,270.162415018082,1,left,1.09030699729919,270.150499095917,604.475175609589,607.235175609589,1633654396.51765,1633654396.51976,1633654406.22127,1633654406.22303,1633654408.32205,1633654415.69146,1633654415.69327,1633654416.80379,1633654416.79188,1633654751.11655,1
78,4,1,3,16,1,2,c2_WhyHand,1,self-protection?,89,H_443.jpg,1633654143.88138,1633654143.8889,270.233862628937,8.11825633049011,278.370230903625,280.454340686798,2.08410978317261,280.604396095276,0.967027902603149,281.578317871094,1,left,0.953926086425781,281.571423997879,604.475175609589,607.235175609589,1633654416.87524,1633654416.88659,1633654425.01161,1633654425.01332,1633654427.09572,1633654427.24577,1633654427.25351,1633654428.21969,1633654428.2128,1633654751.11655,1
78,4,1,3,16,2,2,c2_WhyHand,2,self-protection?,90,H_006.jpg,1633654143.88138,1633654143.8889,270.233862628937,8.11825633049011,278.370230903625,280.454340686798,0.3,281.888209095001,0.733606815338135,282.623158922195,3,right,0.71462607383728,282.621815910339,604.475175609589,607.235175609589,1633654416.87524,1633654416.88659,1633654425.01161,1633654425.01332,1633654427.09572,1633654428.52959,1633654428.53095,1633654429.26453,1633654429.26319,1633654751.11655,0
78,4,1,3,16,3,2,c2_WhyHand,1,self-protection?,91,H_581.jpg,1633654143.88138,1633654143.8889,270.233862628937,8.11825633049011,278.370230903625,280.454340686798,0.3,282.938600530624,0.650241851806641,283.595340957642,1,left,0.641300916671753,283.588842382431,604.475175609589,607.235175609589,1633654416.87524,1633654416.88659,1633654425.01161,1633654425.01332,1633654427.09572,1633654429.57998,1633654429.58144,1633654430.23672,1633654430.23022,1633654751.11655,1
78,4,1,3,16,4,2,c2_WhyHand,2,self-protection?,92,H_532.jpg,1633654143.88138,1633654143.8889,270.233862628937,8.11825633049011,278.370230903625,280.454340686798,0.3,283.905627479553,0.700261116027832,284.612447013855,3,right,0.688575983047485,284.605888595581,604.475175609589,607.235175609589,1633654416.87524,1633654416.88659,1633654425.01161,1633654425.01332,1633654427.09572,1633654430.547,1633654430.5485,1633654431.25382,1633654431.24726,1633654751.11655,0
78,4,1,3,16,5,2,c2_WhyHand,1,self-protection?,96,H_027.jpg,1633654143.88138,1633654143.8889,270.233862628937,8.11825633049011,278.370230903625,280.454340686798,0.3,284.922673692703,0.633569955825806,285.557379951477,1,left,0.612308025360107,285.556243648529,604.475175609589,607.235175609589,1633654416.87524,1633654416.88659,1633654425.01161,1633654425.01332,1633654427.09572,1633654431.56405,1633654431.56585,1633654432.19876,1633654432.19762,1633654751.11655,1
78,4,1,3,16,6,2,c2_WhyHand,1,self-protection?,93,H_038.jpg,1633654143.88138,1633654143.8889,270.233862628937,8.11825633049011,278.370230903625,280.454340686798,0.3,285.87302898407,0.650241613388062,286.525081863403,3,right,0.627531051635742,286.523270597458,604.475175609589,607.235175609589,1633654416.87524,1633654416.88659,1633654425.01161,1633654425.01332,1633654427.09572,1633654432.51441,1633654432.51571,1633654433.16646,1633654433.16465,1633654751.11655,0
78,4,1,3,16,7,2,c2_WhyHand,2,self-protection?,95,H_332.jpg,1633654143.88138,1633654143.8889,270.233862628937,8.11825633049011,278.370230903625,280.454340686798,0.3,286.840055932999,1.01704573631287,287.862107982636,3,right,1.00242495536804,287.857101669312,604.475175609589,607.235175609589,1633654416.87524,1633654416.88659,1633654425.01161,1633654425.01332,1633654427.09572,1633654433.48143,1633654433.48313,1633654434.50348,1633654434.49848,1633654751.11655,0
78,4,1,3,16,8,2,c2_WhyHand,1,self-protection?,94,H_189.jpg,1633654143.88138,1633654143.8889,270.233862628937,8.11825633049011,278.370230903625,280.454340686798,0.3,288.173886289597,0.66691517829895,288.845480909348,1,left,0.659036159515381,288.840801467896,604.475175609589,607.235175609589,1633654416.87524,1633654416.88659,1633654425.01161,1633654425.01332,1633654427.09572,1633654434.81526,1633654434.81653,1633654435.48686,1633654435.48218,1633654751.11655,1
78,4,1,3,17,1,3,c3_HowFace,1,smiling?,118,F_759.jpg,1633654143.88138,1633654143.8889,288.924166908264,10.9080040454865,299.844905843735,301.945688476563,2.10078263282776,302.09574388504,0.466841459274292,302.56356095314,1,left,0.453841924667358,302.562585344315,604.475175609589,607.235175609589,1633654435.56554,1633654435.57049,1633654446.48628,1633654446.48827,1633654448.58706,1633654448.73712,1633654448.73918,1633654449.20494,1633654449.20396,1633654751.11655,1
78,4,1,3,17,2,3,c3_HowFace,2,smiling?,114,F_412.jpg,1633654143.88138,1633654143.8889,288.924166908264,10.9080040454865,299.844905843735,301.945688476563,0.3,302.879370203018,0.583551645278931,303.464598884583,3,right,0.560843944549561,303.462921848297,604.475175609589,607.235175609589,1633654435.56554,1633654435.57049,1633654446.48628,1633654446.48827,1633654448.58706,1633654449.52075,1633654449.5224,1633654450.10597,1633654450.1043,1633654751.11655,0
78,4,1,3,17,3,3,c3_HowFace,1,smiling?,117,F_593.jpg,1633654143.88138,1633654143.8889,288.924166908264,10.9080040454865,299.844905843735,301.945688476563,0.3,303.779706707001,0.533531665802002,304.329091062546,1,left,0.525366067886353,304.313238372803,604.475175609589,607.235175609589,1633654435.56554,1633654435.57049,1633654446.48628,1633654446.48827,1633654448.58706,1633654450.42108,1633654450.42321,1633654450.97047,1633654450.95461,1633654751.11655,1
78,4,1,3,17,4,3,c3_HowFace,2,smiling?,113,F_712.jpg,1633654143.88138,1633654143.8889,288.924166908264,10.9080040454865,299.844905843735,301.945688476563,0.3,304.630023946762,0.66691517829895,305.298614969254,3,right,0.647456169128418,305.296939125061,604.475175609589,607.235175609589,1633654435.56554,1633654435.57049,1633654446.48628,1633654446.48827,1633654448.58706,1633654451.2714,1633654451.27303,1633654451.93999,1633654451.93832,1633654751.11655,0
78,4,1,3,17,5,3,c3_HowFace,1,smiling?,115,F_695.jpg,1633654143.88138,1633654143.8889,288.924166908264,10.9080040454865,299.844905843735,301.945688476563,0.3,305.613723268509,0.650242328643799,306.264884939194,1,left,0.639778137207031,306.263965597153,604.475175609589,607.235175609589,1633654435.56554,1633654435.57049,1633654446.48628,1633654446.48827,1633654448.58706,1633654452.2551,1633654452.25672,1633654452.90626,1633654452.90534,1633654751.11655,1
78,4,1,3,17,6,3,c3_HowFace,1,smiling?,119,F_139.jpg,1633654143.88138,1633654143.8889,288.924166908264,10.9080040454865,299.844905843735,301.945688476563,0.3,306.580751409531,0.533531188964844,307.128464927673,1,left,0.523772954940796,307.114282598495,604.475175609589,607.235175609589,1633654435.56554,1633654435.57049,1633654446.48628,1633654446.48827,1633654448.58706,1633654453.22213,1633654453.2237,1633654453.76984,1633654453.75566,1633654751.11655,1
78,4,1,3,17,7,3,c3_HowFace,1,smiling?,116,F_083.jpg,1633654143.88138,1633654143.8889,288.924166908264,10.9080040454865,299.844905843735,301.945688476563,0.3,307.431067695618,0.566877603530884,308.011677970886,1,left,0.557749032974243,307.997945299149,604.475175609589,607.235175609589,1633654435.56554,1633654435.57049,1633654446.48628,1633654446.48827,1633654448.58706,1633654454.07244,1633654454.07422,1633654454.65305,1633654454.63932,1633654751.11655,1
78,4,1,3,17,8,3,c3_HowFace,2,smiling?,120,F_758.jpg,1633654143.88138,1633654143.8889,288.924166908264,10.9080040454865,299.844905843735,301.945688476563,0.3,308.314730873108,0.0166730880737305,308.332719078064,1,left,0.00032496452331543,308.331403961182,604.475175609589,607.235175609589,1633654435.56554,1633654435.57049,1633654446.48628,1633654446.48827,1633654448.58706,1633654454.95611,1633654454.95807,1633654454.9741,1633654454.97278,1633654751.11655,0
78,4,1,3,18,1,1,c1_WhyFace,1,admiring?,1,F_593.jpg,1633654143.88138,1633654143.8889,308.398093690872,9.22392129898071,317.634872665405,319.735656967163,2.10078430175781,319.885712375641,0.650243282318115,320.545136919022,1,left,0.636610984802246,320.535955657959,604.475175609589,607.235175609589,1633654455.03947,1633654455.05434,1633654464.27625,1633654464.27826,1633654466.37703,1633654466.52709,1633654466.52908,1633654467.18651,1633654467.17733,1633654751.11655,1
78,4,1,3,18,2,1,c1_WhyFace,2,admiring?,2,F_129.jpg,1633654143.88138,1633654143.8889,308.398093690872,9.22392129898071,317.634872665405,319.735656967163,0.3,320.852739801407,1.05039167404175,321.91239689827,3,right,1.03512978553772,321.903131475449,604.475175609589,607.235175609589,1633654455.03947,1633654455.05434,1633654464.27625,1633654464.27826,1633654466.37703,1633654467.49412,1633654467.49574,1633654468.55377,1633654468.54451,1633654751.11655,0
78,4,1,3,18,3,1,c1_WhyFace,1,admiring?,5,F_759.jpg,1633654143.88138,1633654143.8889,308.398093690872,9.22392129898071,317.634872665405,319.735656967163,0.3,322.219915857315,0.583552122116089,322.805327882767,1,left,0.561651945114136,322.803467979431,604.475175609589,607.235175609589,1633654455.03947,1633654455.05434,1633654464.27625,1633654464.27826,1633654466.37703,1633654468.86129,1633654468.86332,1633654469.4467,1633654469.44484,1633654751.11655,1
78,4,1,3,18,4,1,c1_WhyFace,2,admiring?,6,F_692.jpg,1633654143.88138,1633654143.8889,308.398093690872,9.22392129898071,317.634872665405,319.735656967163,0.3,323.120253314972,0.917007684707642,324.039001932144,3,right,0.895583868026733,324.03726099968,604.475175609589,607.235175609589,1633654455.03947,1633654455.05434,1633654464.27625,1633654464.27826,1633654466.37703,1633654469.76163,1633654469.76338,1633654470.68038,1633654470.67864,1633654751.11655,0
78,4,1,3,18,5,1,c1_WhyFace,1,admiring?,4,F_779.jpg,1633654143.88138,1633654143.8889,308.398093690872,9.22392129898071,317.634872665405,319.735656967163,0.3,324.354045143127,0.533533096313477,324.888701906204,1,left,0.515835046768188,324.887578239441,604.475175609589,607.235175609589,1633654455.03947,1633654455.05434,1633654464.27625,1633654464.27826,1633654466.37703,1633654470.99542,1633654470.99743,1633654471.53008,1633654471.52895,1633654751.11655,1
78,4,1,3,18,6,1,c1_WhyFace,1,admiring?,8,F_590.jpg,1633654143.88138,1633654143.8889,308.398093690872,9.22392129898071,317.634872665405,319.735656967163,0.3,325.204362382889,0.733607769012451,325.939012041092,1,left,0.712526082992554,325.937970151901,604.475175609589,607.235175609589,1633654455.03947,1633654455.05434,1633654464.27625,1633654464.27826,1633654466.37703,1633654471.84574,1633654471.84752,1633654472.58039,1633654472.57935,1633654751.11655,1
78,4,1,3,18,7,1,c1_WhyFace,1,admiring?,7,F_648.jpg,1633654143.88138,1633654143.8889,308.398093690872,9.22392129898071,317.634872665405,319.735656967163,0.3,326.254754533768,0.833643674850464,327.095027914047,1,left,0.82358193397522,327.088398208618,604.475175609589,607.235175609589,1633654455.03947,1633654455.05434,1633654464.27625,1633654464.27826,1633654466.37703,1633654472.89613,1633654472.89808,1633654473.7364,1633654473.72977,1633654751.11655,1
78,4,1,3,18,8,1,c1_WhyFace,2,admiring?,3,F_110.jpg,1633654143.88138,1633654143.8889,308.398093690872,9.22392129898071,317.634872665405,319.735656967163,0.3,327.405182828903,0.900336265563965,328.312237968445,3,right,0.893521070480347,328.305519094467,604.475175609589,607.235175609589,1633654455.03947,1633654455.05434,1633654464.27625,1633654464.27826,1633654466.37703,1633654474.04656,1633654474.04811,1633654474.95361,1633654474.9469,1633654751.11655,0
78,4,1,3,19,1,2,c2_WhyHand,1,competing?,9,H_261.jpg,1633654143.88138,1633654143.8889,328.388883342743,7.12307667732239,335.5248777771,337.625661125183,2.1007833480835,337.775717248917,0.533532381057739,338.312293043137,1,left,0.509533882141113,338.309249629974,604.475175609589,607.235175609589,1633654475.03026,1633654475.0364,1633654482.16625,1633654482.17037,1633654484.26704,1633654484.41709,1633654484.42064,1633654484.95367,1633654484.95063,1633654751.11655,1
78,4,1,3,19,2,2,c2_WhyHand,1,competing?,15,H_170.jpg,1633654143.88138,1633654143.8889,328.388883342743,7.12307667732239,335.5248777771,337.625661125183,0.3,338.626035203934,0.650241136550903,339.278379907608,1,left,0.629638910293579,339.276276340485,604.475175609589,607.235175609589,1633654475.03026,1633654475.0364,1633654482.16625,1633654482.17037,1633654484.26704,1633654485.26741,1633654485.27019,1633654485.91976,1633654485.91765,1633654751.11655,1
78,4,1,3,19,3,2,c2_WhyHand,2,competing?,12,H_483.jpg,1633654143.88138,1633654143.8889,328.388883342743,7.12307667732239,335.5248777771,337.625661125183,0.3,339.593061676025,0.700261116027832,340.295289030075,3,right,0.689605951309204,340.293322792053,604.475175609589,607.235175609589,1633654475.03026,1633654475.0364,1633654482.16625,1633654482.17037,1633654484.26704,1633654486.23444,1633654486.23697,1633654486.93667,1633654486.9347,1633654751.11655,0
78,4,1,3,19,4,2,c2_WhyHand,1,competing?,14,H_132.jpg,1633654143.88138,1633654143.8889,328.388883342743,7.12307667732239,335.5248777771,337.625661125183,0.3,340.610107889175,0.600223302841187,341.212187995911,1,left,0.588347911834717,341.210331192017,604.475175609589,607.235175609589,1633654475.03026,1633654475.0364,1633654482.16625,1633654482.17037,1633654484.26704,1633654487.25148,1633654487.25371,1633654487.85356,1633654487.85171,1633654751.11655,1
78,4,1,3,19,5,2,c2_WhyHand,1,competing?,16,H_136.jpg,1633654143.88138,1633654143.8889,328.388883342743,7.12307667732239,335.5248777771,337.625661125183,0.3,341.527116765976,0.716933965682983,342.245792856216,1,left,0.697260856628418,342.244050731659,604.475175609589,607.235175609589,1633654475.03026,1633654475.0364,1633654482.16625,1633654482.17037,1633654484.26704,1633654488.16849,1633654488.17095,1633654488.88717,1633654488.88543,1633654751.11655,1
78,4,1,3,19,6,2,c2_WhyHand,1,competing?,13,H_003.jpg,1633654143.88138,1633654143.8889,328.388883342743,7.12307667732239,335.5248777771,337.625661125183,0.3,342.560835590363,0.65024209022522,343.212128868103,1,left,0.637935876846313,343.211077680588,604.475175609589,607.235175609589,1633654475.03026,1633654475.0364,1633654482.16625,1633654482.17037,1633654484.26704,1633654489.20221,1633654489.20392,1633654489.8535,1633654489.85245,1633654751.11655,1
78,4,1,3,19,7,2,c2_WhyHand,2,competing?,10,H_126.jpg,1633654143.88138,1633654143.8889,328.388883342743,7.12307667732239,335.5248777771,337.625661125183,0.3,343.527861585617,0.783627033233643,344.313338031769,3,right,0.770059108734131,344.311488618851,604.475175609589,607.235175609589,1633654475.03026,1633654475.0364,1633654482.16625,1633654482.17037,1633654484.26704,1633654490.16924,1633654490.17089,1633654490.95471,1633654490.95286,1633654751.11655,0
78,4,1,3,19,8,2,c2_WhyHand,2,competing?,11,H_502.jpg,1633654143.88138,1633654143.8889,328.388883342743,7.12307667732239,335.5248777771,337.625661125183,0.3,344.628273000717,1.03371906280518,345.662978878021,1,left,1.02115702629089,345.661992063522,604.475175609589,607.235175609589,1633654475.03026,1633654475.0364,1633654482.16625,1633654482.17037,1633654484.26704,1633654491.26965,1633654491.27137,1633654492.30435,1633654492.30337,1633654751.11655,0
78,4,1,3,20,1,4,c4_HowHand,1,reaching?,111,H_003.jpg,1633654143.88138,1633654143.8889,345.745356550217,11.2465674877167,356.999553432465,359.100337257385,2.10078382492065,359.250393619537,0.483512401580811,359.735671987534,1,left,0.45720100402832,359.733906021118,604.475175609589,607.235175609589,1633654492.38673,1633654492.38843,1633654503.64093,1633654503.65409,1633654505.74171,1633654505.89177,1633654505.90416,1633654506.37705,1633654506.37528,1633654751.11655,1
78,4,1,3,20,2,4,c4_HowHand,1,reaching?,110,H_364.jpg,1633654143.88138,1633654143.8889,345.745356550217,11.2465674877167,356.999553432465,359.100337257385,0.3,360.050690879822,0.700261116027832,360.76196598053,1,left,0.689096927642822,360.75095199585,604.475175609589,607.235175609589,1633654492.38673,1633654492.38843,1633654503.64093,1633654503.65409,1633654505.74171,1633654506.69207,1633654506.69397,1633654507.40334,1633654507.39233,1633654751.11655,1
78,4,1,3,20,3,4,c4_HowHand,2,reaching?,108,H_532.jpg,1633654143.88138,1633654143.8889,345.745356550217,11.2465674877167,356.999553432465,359.100337257385,0.3,361.067736616135,0.666915416717529,361.745105018616,3,right,0.659410953521729,361.734652032852,604.475175609589,607.235175609589,1633654492.38673,1633654492.38843,1633654503.64093,1633654503.65409,1633654505.74171,1633654507.70911,1633654507.71101,1633654508.38648,1633654508.37603,1633654751.11655,0
78,4,1,3,20,4,4,c4_HowHand,1,reaching?,106,H_006.jpg,1633654143.88138,1633654143.8889,345.745356550217,11.2465674877167,356.999553432465,359.100337257385,0.3,362.0514361763,0.616897344589233,362.678435077667,1,left,0.605504035949707,362.668333520889,604.475175609589,607.235175609589,1633654492.38673,1633654492.38843,1633654503.64093,1633654503.65409,1633654505.74171,1633654508.69281,1633654508.69442,1633654509.31981,1633654509.30971,1633654751.11655,1
78,4,1,3,20,5,4,c4_HowHand,2,reaching?,105,H_438.jpg,1633654143.88138,1633654143.8889,345.745356550217,11.2465674877167,356.999553432465,359.100337257385,0.3,362.985118379593,0.866990566253662,363.862204065323,3,right,0.858039855957031,363.852108945847,604.475175609589,607.235175609589,1633654492.38673,1633654492.38843,1633654503.64093,1633654503.65409,1633654505.74171,1633654509.62649,1633654509.62804,1633654510.50358,1633654510.49348,1633654751.11655,0
78,4,1,3,20,6,4,c4_HowHand,1,reaching?,107,H_007.jpg,1633654143.88138,1633654143.8889,345.745356550217,11.2465674877167,356.999553432465,359.100337257385,0.3,364.16889380455,0.600222826004028,364.770915021896,1,left,0.577647924423218,364.769116630554,604.475175609589,607.235175609589,1633654492.38673,1633654492.38843,1633654503.64093,1633654503.65409,1633654505.74171,1633654510.81027,1633654510.8117,1633654511.41229,1633654511.41049,1633654751.11655,1
78,4,1,3,20,7,4,c4_HowHand,1,reaching?,109,H_474.jpg,1633654143.88138,1633654143.8889,345.745356550217,11.2465674877167,356.999553432465,359.100337257385,0.3,365.085902204514,0.983698129653931,366.070860853195,1,left,0.963534116744995,366.069600334167,604.475175609589,607.235175609589,1633654492.38673,1633654492.38843,1633654503.64093,1633654503.65409,1633654505.74171,1633654511.72728,1633654511.72937,1633654512.71224,1633654512.71098,1633654751.11655,1
78,4,1,3,20,8,4,c4_HowHand,2,reaching?,112,H_132.jpg,1633654143.88138,1633654143.8889,345.745356550217,11.2465674877167,356.999553432465,359.100337257385,0.3,366.386386623383,0.600224018096924,366.995086898804,1,left,0.590122938156128,366.98661064148,604.475175609589,607.235175609589,1633654492.38673,1633654492.38843,1633654503.64093,1633654503.65409,1633654505.74171,1633654513.02776,1633654513.02938,1633654513.63646,1633654513.62799,1633654751.11655,0
78,4,1,3,21,1,3,c3_HowFace,1,open mouth?,73,F_403.jpg,1633654143.88138,1633654143.8889,367.069975128174,7.76195788383484,374.839540233612,376.940321912766,2.10078167915344,377.090378990173,0.500186443328857,377.595427980423,1,left,0.484200954437256,377.590565433502,604.475175609589,607.235175609589,1633654513.71135,1633654513.72045,1633654521.48092,1633654521.48737,1633654523.5817,1633654523.73176,1633654523.73714,1633654524.2368,1633654524.23194,1633654751.11655,1
78,4,1,3,21,2,3,c3_HowFace,2,open mouth?,79,F_648.jpg,1633654143.88138,1633654143.8889,367.069975128174,7.76195788383484,374.839540233612,376.940321912766,0.3,377.907349100113,0.550206661224365,378.46169303894,3,right,0.539473056793213,378.457555761337,604.475175609589,607.235175609589,1633654513.71135,1633654513.72045,1633654521.48092,1633654521.48737,1633654523.5817,1633654524.54873,1633654524.5505,1633654525.10307,1633654525.09893,1633654751.11655,0
78,4,1,3,21,3,3,c3_HowFace,1,open mouth?,74,F_776.jpg,1633654143.88138,1633654143.8889,367.069975128174,7.76195788383484,374.839540233612,376.940321912766,0.3,378.774340858459,0.750277996063232,379.528699865341,1,left,0.738231182098389,379.524618854523,604.475175609589,607.235175609589,1633654513.71135,1633654513.72045,1633654521.48092,1633654521.48737,1633654523.5817,1633654525.41572,1633654525.42049,1633654526.17008,1633654526.16599,1633654751.11655,1
78,4,1,3,21,4,3,c3_HowFace,2,open mouth?,77,F_584.jpg,1633654143.88138,1633654143.8889,367.069975128174,7.76195788383484,374.839540233612,376.940321912766,0.3,379.841405382156,0.616896629333496,380.460049858093,3,right,0.591212034225464,380.45830201149,604.475175609589,607.235175609589,1633654513.71135,1633654513.72045,1633654521.48092,1633654521.48737,1633654523.5817,1633654526.48278,1633654526.48688,1633654527.10143,1633654527.09968,1633654751.11655,0
78,4,1,3,21,5,3,c3_HowFace,1,open mouth?,80,F_844.jpg,1633654143.88138,1633654143.8889,367.069975128174,7.76195788383484,374.839540233612,376.940321912766,0.3,380.775086393356,0.53353214263916,381.31218003273,1,left,0.517967939376831,381.308618535995,604.475175609589,607.235175609589,1633654513.71135,1633654513.72045,1633654521.48092,1633654521.48737,1633654523.5817,1633654527.41646,1633654527.42037,1633654527.95356,1633654527.94999,1633654751.11655,1
78,4,1,3,21,6,3,c3_HowFace,1,open mouth?,78,F_692.jpg,1633654143.88138,1633654143.8889,367.069975128174,7.76195788383484,374.839540233612,376.940321912766,0.3,381.625402917862,0.483513593673706,382.111881961823,1,left,0.469691038131714,382.108916511536,604.475175609589,607.235175609589,1633654513.71135,1633654513.72045,1633654521.48092,1633654521.48737,1633654523.5817,1633654528.26678,1633654528.27046,1633654528.75326,1633654528.75029,1633654751.11655,1
78,4,1,3,21,7,3,c3_HowFace,1,open mouth?,75,F_086.jpg,1633654143.88138,1633654143.8889,367.069975128174,7.76195788383484,374.839540233612,376.940321912766,0.3,382.425701847076,0.533531427383423,382.961867084503,1,left,0.521250009536743,382.95923327446,604.475175609589,607.235175609589,1633654513.71135,1633654513.72045,1633654521.48092,1633654521.48737,1633654523.5817,1633654529.06708,1633654529.07045,1633654529.60324,1633654529.60061,1633654751.11655,1
78,4,1,3,21,8,3,c3_HowFace,2,open mouth?,76,F_544.jpg,1633654143.88138,1633654143.8889,367.069975128174,7.76195788383484,374.839540233612,376.940321912766,0.3,383.276018371582,0.683589220046997,383.961999883652,3,right,0.665759086608887,383.959607591629,604.475175609589,607.235175609589,1633654513.71135,1633654513.72045,1633654521.48092,1633654521.48737,1633654523.5817,1633654529.91739,1633654529.9204,1633654530.60338,1633654530.60098,1633654751.11655,0
78,4,1,3,22,1,1,c1_WhyFace,1,argument?,42,F_403.jpg,1633654143.88138,1633654143.8889,384.042971363068,9.46494364738464,393.513169517517,395.613953580856,2.10078406333923,395.764010181427,0.616894960403442,396.395637025833,1,left,0.593961000442505,396.38090514183,604.475175609589,607.235175609589,1633654530.68435,1633654530.6867,1633654540.15455,1633654540.1709,1633654542.25533,1633654542.40539,1633654542.42065,1633654543.03701,1633654543.02228,1633654751.11655,1
78,4,1,3,22,2,1,c1_WhyFace,2,argument?,46,F_844.jpg,1633654143.88138,1633654143.8889,384.042971363068,9.46494364738464,393.513169517517,395.613953580856,0.3,396.697690477371,0.700261116027832,397.39967798233,3,right,0.685911893844604,397.397951593399,604.475175609589,607.235175609589,1633654530.68435,1633654530.6867,1633654540.15455,1633654540.1709,1633654542.25533,1633654543.33907,1633654543.34099,1633654544.04105,1633654544.03933,1633654751.11655,0
78,4,1,3,22,3,1,c1_WhyFace,1,argument?,41,F_712.jpg,1633654143.88138,1633654143.8889,384.042971363068,9.46494364738464,393.513169517517,395.613953580856,0.3,397.714736213684,0.583551406860352,398.312455883026,1,left,0.576265096664429,398.298287620544,604.475175609589,607.235175609589,1633654530.68435,1633654530.6867,1633654540.15455,1633654540.1709,1633654542.25533,1633654544.35611,1633654544.35784,1633654544.95383,1633654544.93966,1633654751.11655,1
78,4,1,3,22,4,1,c1_WhyFace,1,argument?,48,F_758.jpg,1633654143.88138,1633654143.8889,384.042971363068,9.46494364738464,393.513169517517,395.613953580856,0.3,398.615072479248,0.616896390914917,399.233746995926,1,left,0.595695018768311,399.231968870163,604.475175609589,607.235175609589,1633654530.68435,1633654530.6867,1633654540.15455,1633654540.1709,1633654542.25533,1633654545.25645,1633654545.25851,1633654545.87512,1633654545.87334,1633654751.11655,1
78,4,1,3,22,5,1,c1_WhyFace,2,argument?,45,F_433.jpg,1633654143.88138,1633654143.8889,384.042971363068,9.46494364738464,393.513169517517,395.613953580856,0.3,399.548754920959,0.783624649047852,400.33414100647,3,right,0.767664909362793,400.332379570007,604.475175609589,607.235175609589,1633654530.68435,1633654530.6867,1633654540.15455,1633654540.1709,1633654542.25533,1633654546.19013,1633654546.19214,1633654546.97552,1633654546.97376,1633654751.11655,0
78,4,1,3,22,6,1,c1_WhyFace,1,argument?,43,F_716.jpg,1633654143.88138,1633654143.8889,384.042971363068,9.46494364738464,393.513169517517,395.613953580856,0.3,400.64916466713,0.783625364303589,401.445108880997,1,left,0.772884845733643,401.432790031433,604.475175609589,607.235175609589,1633654530.68435,1633654530.6867,1633654540.15455,1633654540.1709,1633654542.25533,1633654547.29054,1633654547.29242,1633654548.08648,1633654548.07417,1633654751.11655,1
78,4,1,3,22,7,1,c1_WhyFace,2,argument?,44,F_139.jpg,1633654143.88138,1633654143.8889,384.042971363068,9.46494364738464,393.513169517517,395.613953580856,0.3,401.749574651718,0.616897344589233,402.368345012665,3,right,0.598538160324097,402.366471996307,604.475175609589,607.235175609589,1633654530.68435,1633654530.6867,1633654540.15455,1633654540.1709,1633654542.25533,1633654548.39095,1633654548.39245,1633654549.00972,1633654549.00785,1633654751.11655,0
78,4,1,3,22,8,1,c1_WhyFace,1,argument?,47,F_743.jpg,1633654143.88138,1633654143.8889,384.042971363068,9.46494364738464,393.513169517517,395.613953580856,0.3,402.683255901337,0.766952753067017,403.451549043655,1,left,0.74946117401123,403.450208654404,604.475175609589,607.235175609589,1633654530.68435,1633654530.6867,1633654540.15455,1633654540.1709,1633654542.25533,1633654549.32463,1633654549.32655,1633654550.09293,1633654550.09158,1633654751.11655,1
78,4,1,3,23,1,2,c2_WhyHand,1,helping?,39,H_024.jpg,1633654143.88138,1633654143.8889,403.533573856354,8.19435501098633,411.736632575989,413.837416400909,2.10078382492065,413.987471570969,1.30048489570618,415.295610895157,1,left,1.28083491325378,415.287956466675,604.475175609589,607.235175609589,1633654550.17495,1633654550.17671,1633654558.37801,1633654558.38701,1633654560.47879,1633654560.62885,1633654560.63714,1633654561.93699,1633654561.92933,1633654751.11655,1
78,4,1,3,23,2,2,c2_WhyHand,1,helping?,36,H_349.jpg,1633654143.88138,1633654143.8889,403.533573856354,8.19435501098633,411.736632575989,413.837416400909,0.3,415.604741325378,0.733607292175293,416.345406999588,1,left,0.718785047531128,416.338348617554,604.475175609589,607.235175609589,1633654550.17495,1633654550.17671,1633654558.37801,1633654558.38701,1633654560.47879,1633654562.24612,1633654562.24794,1633654562.98678,1633654562.97972,1633654751.11655,1
78,4,1,3,23,3,2,c2_WhyHand,1,helping?,38,H_077.jpg,1633654143.88138,1633654143.8889,403.533573856354,8.19435501098633,411.736632575989,413.837416400909,0.3,416.655133953094,0.700260877609253,417.361994018555,1,left,0.69064998626709,417.355394830704,604.475175609589,607.235175609589,1633654550.17495,1633654550.17671,1633654558.37801,1633654558.38701,1633654560.47879,1633654563.29651,1633654563.29937,1633654564.00337,1633654563.99677,1633654751.11655,1
78,4,1,3,23,4,2,c2_WhyHand,1,helping?,37,H_474.jpg,1633654143.88138,1633654143.8889,403.533573856354,8.19435501098633,411.736632575989,413.837416400909,0.3,417.672179927826,0.716933488845825,418.394941082001,1,left,0.710431098937988,418.389113416672,604.475175609589,607.235175609589,1633654550.17495,1633654550.17671,1633654558.37801,1633654558.38701,1633654560.47879,1633654564.31356,1633654564.31535,1633654565.03632,1633654565.03049,1633654751.11655,1
78,4,1,3,23,5,2,c2_WhyHand,2,helping?,33,H_091.jpg,1633654143.88138,1633654143.8889,403.533573856354,8.19435501098633,411.736632575989,413.837416400909,0.3,418.705897321701,0.883663415908813,419.594949951172,3,right,0.876943111419678,419.58956073761,604.475175609589,607.235175609589,1633654550.17495,1633654550.17671,1633654558.37801,1633654558.38701,1633654560.47879,1633654565.34727,1633654565.34874,1633654566.23633,1633654566.23094,1633654751.11655,0
78,4,1,3,23,6,2,c2_WhyHand,2,helping?,35,H_159.jpg,1633654143.88138,1633654143.8889,403.533573856354,8.19435501098633,411.736632575989,413.837416400909,0.3,419.906345834732,0.683588027954102,420.595489015579,1,left,0.675124883651733,420.589933862686,604.475175609589,607.235175609589,1633654550.17495,1633654550.17671,1633654558.37801,1633654558.38701,1633654560.47879,1633654566.54772,1633654566.54961,1633654567.23687,1633654567.23131,1633654751.11655,0
78,4,1,3,23,7,2,c2_WhyHand,1,helping?,34,H_111.jpg,1633654143.88138,1633654143.8889,403.533573856354,8.19435501098633,411.736632575989,413.837416400909,0.3,420.906718959808,1.15042853355408,422.061673870087,1,left,1.13344407081604,422.057147493362,604.475175609589,607.235175609589,1633654550.17495,1633654550.17671,1633654558.37801,1633654558.38701,1633654560.47879,1633654567.54809,1633654567.54943,1633654568.70305,1633654568.69852,1633654751.11655,1
78,4,1,3,23,8,2,c2_WhyHand,2,helping?,40,H_012.jpg,1633654143.88138,1633654143.8889,403.533573856354,8.19435501098633,411.736632575989,413.837416400909,0.3,422.373932590485,1.11708307266235,423.495030870438,3,right,1.09999299049377,423.491015663147,604.475175609589,607.235175609589,1633654550.17495,1633654550.17671,1633654558.37801,1633654558.38701,1633654560.47879,1633654569.01531,1633654569.01685,1633654570.13641,1633654570.13239,1633654751.11655,0
78,4,1,3,24,1,4,c4_HowHand,1,both hands?,122,H_111.jpg,1633654143.88138,1633654143.8889,423.574380626678,6.22351932525635,429.810038795471,431.91082285881,2.10078406333923,432.060879220963,0.633568048477173,432.695474853516,1,left,0.617063999176025,432.69444726944,604.475175609589,607.235175609589,1633654570.21576,1633654570.22028,1633654576.45141,1633654576.45388,1633654578.5522,1633654578.70226,1633654578.70407,1633654579.33685,1633654579.33582,1633654751.11655,1
78,4,1,3,24,2,4,c4_HowHand,1,both hands?,128,H_027.jpg,1633654143.88138,1633654143.8889,423.574380626678,6.22351932525635,429.810038795471,431.91082285881,0.3,433.011232843399,0.566877603530884,433.579763879776,1,left,0.548038005828857,433.57811044693,604.475175609589,607.235175609589,1633654570.21576,1633654570.22028,1633654576.45141,1633654576.45388,1633654578.5522,1633654579.65261,1633654579.65435,1633654580.22114,1633654580.21949,1633654751.11655,1
78,4,1,3,24,3,4,c4_HowHand,2,both hands?,121,H_091.jpg,1633654143.88138,1633654143.8889,423.574380626678,6.22351932525635,429.810038795471,431.91082285881,0.3,433.894895305634,0.600224018096924,434.496054878235,3,right,0.592388868331909,434.49511932373,604.475175609589,607.235175609589,1633654570.21576,1633654570.22028,1633654576.45141,1633654576.45388,1633654578.5522,1633654580.53627,1633654580.53771,1633654581.13743,1633654581.1365,1633654751.11655,0
78,4,1,3,24,4,4,c4_HowHand,1,both hands?,123,H_167.jpg,1633654143.88138,1633654143.8889,423.574380626678,6.22351932525635,429.810038795471,431.91082285881,0.3,434.81190489769,0.633569240570068,435.44708990097,1,left,0.613132953643799,435.44547413826,604.475175609589,607.235175609589,1633654570.21576,1633654570.22028,1633654576.45141,1633654576.45388,1633654578.5522,1633654581.45328,1633654581.45486,1633654582.08847,1633654582.08685,1633654751.11655,1
78,4,1,3,24,5,4,c4_HowHand,1,both hands?,124,H_581.jpg,1633654143.88138,1633654143.8889,423.574380626678,6.22351932525635,429.810038795471,431.91082285881,0.3,435.762258520126,0.716933965682983,436.480599870682,1,left,0.694017171859741,436.479192485809,604.475175609589,607.235175609589,1633654570.21576,1633654570.22028,1633654576.45141,1633654576.45388,1633654578.5522,1633654582.40363,1633654582.40509,1633654583.12198,1633654583.12057,1633654751.11655,1
78,4,1,3,24,6,4,c4_HowHand,2,both hands?,126,H_159.jpg,1633654143.88138,1633654143.8889,423.574380626678,6.22351932525635,429.810038795471,431.91082285881,0.3,436.79597782135,0.650241613388062,437.44775103569,3,right,0.638361930847168,437.446219434738,604.475175609589,607.235175609589,1633654570.21576,1633654570.22028,1633654576.45141,1633654576.45388,1633654578.5522,1633654583.43735,1633654583.43866,1633654584.08913,1633654584.0876,1633654751.11655,0
78,4,1,3,24,7,4,c4_HowHand,1,both hands?,127,H_349.jpg,1633654143.88138,1633654143.8889,423.574380626678,6.22351932525635,429.810038795471,431.91082285881,0.3,437.763004770279,0.616897106170654,438.381028881073,1,left,0.598461866378784,438.37990187645,604.475175609589,607.235175609589,1633654570.21576,1633654570.22028,1633654576.45141,1633654576.45388,1633654578.5522,1633654584.40438,1633654584.40647,1633654585.0224,1633654585.02128,1633654751.11655,1
78,4,1,3,24,8,4,c4_HowHand,2,both hands?,125,H_627.jpg,1633654143.88138,1633654143.8889,423.574380626678,6.22351932525635,429.810038795471,431.91082285881,0.3,438.696686973572,0.917007684707642,439.615408887863,3,right,0.89871883392334,439.613694658279,604.475175609589,607.235175609589,1633654570.21576,1633654570.22028,1633654576.45141,1633654576.45388,1633654578.5522,1633654585.33806,1633654585.33965,1633654586.25678,1633654586.25507,1633654751.11655,0
78,4,1,3,25,1,2,c2_WhyHand,1,healthy?,18,H_438.jpg,1633654143.88138,1633654143.8889,439.697059383392,7.61783957481384,447.333240499496,449.417351474762,2.0841109752655,449.584079971313,0.750279664993286,450.335535993576,1,left,0.729559898376465,450.334359636307,604.475175609589,607.235175609589,1633654586.33844,1633654586.34006,1633654593.97462,1633654593.97645,1633654596.05873,1633654596.22546,1633654596.22732,1633654596.97691,1633654596.97574,1633654751.11655,1
78,4,1,3,25,2,2,c2_WhyHand,1,healthy?,23,H_364.jpg,1633654143.88138,1633654143.8889,439.697059383392,7.61783957481384,447.333240499496,449.417351474762,0.3,450.651144971848,0.716933965682983,451.378825893402,1,left,0.708317995071411,451.368078937531,604.475175609589,607.235175609589,1633654586.33844,1633654586.34006,1633654593.97462,1633654593.97645,1633654596.05873,1633654597.29252,1633654597.29433,1633654598.0202,1633654598.00945,1633654751.11655,1
78,4,1,3,25,3,2,c2_WhyHand,1,healthy?,17,H_362.jpg,1633654143.88138,1633654143.8889,439.697059383392,7.61783957481384,447.333240499496,449.417351474762,0.3,451.684863319397,0.633569478988647,452.319519033432,1,left,0.612490177154541,452.318432798386,604.475175609589,607.235175609589,1633654586.33844,1633654586.34006,1633654593.97462,1633654593.97645,1633654596.05873,1633654598.32624,1633654598.32755,1633654598.9609,1633654598.95981,1633654751.11655,1
78,4,1,3,25,4,2,c2_WhyHand,2,healthy?,24,H_019.jpg,1633654143.88138,1633654143.8889,439.697059383392,7.61783957481384,447.333240499496,449.417351474762,0.3,452.635217657089,0.600223302841187,453.236501922607,3,right,0.577924013137817,453.23544095993,604.475175609589,607.235175609589,1633654586.33844,1633654586.34006,1633654593.97462,1633654593.97645,1633654596.05873,1633654599.27659,1633654599.27858,1633654599.87788,1633654599.87682,1633654751.11655,0
78,4,1,3,25,5,2,c2_WhyHand,1,healthy?,19,H_167.jpg,1633654143.88138,1633654143.8889,439.697059383392,7.61783957481384,447.333240499496,449.417351474762,0.3,453.55222653389,0.616896390914917,454.170145025253,1,left,0.601346969604492,454.169122924805,604.475175609589,607.235175609589,1633654586.33844,1633654586.34006,1633654593.97462,1633654593.97645,1633654596.05873,1633654600.1936,1633654600.19534,1633654600.81152,1633654600.8105,1633654751.11655,1
78,4,1,3,25,6,2,c2_WhyHand,2,healthy?,20,H_007.jpg,1633654143.88138,1633654143.8889,439.697059383392,7.61783957481384,447.333240499496,449.417351474762,0.3,454.48590754509,0.900335788726807,455.387907018662,3,right,0.880769014358521,455.386243333817,604.475175609589,607.235175609589,1633654586.33844,1633654586.34006,1633654593.97462,1633654593.97645,1633654596.05873,1633654601.12728,1633654601.12901,1633654602.02928,1633654602.02762,1633654751.11655,0
78,4,1,3,25,7,2,c2_WhyHand,1,healthy?,21,H_627.jpg,1633654143.88138,1633654143.8889,439.697059383392,7.61783957481384,447.333240499496,449.417351474762,0.3,455.703028430939,0.983699798583984,456.695713033676,1,left,0.968873977661133,456.686728229523,604.475175609589,607.235175609589,1633654586.33844,1633654586.34006,1633654593.97462,1633654593.97645,1633654596.05873,1633654602.3444,1633654602.34612,1633654603.33709,1633654603.3281,1633654751.11655,1
78,4,1,3,25,8,2,c2_WhyHand,2,healthy?,22,H_130.jpg,1633654143.88138,1633654143.8889,439.697059383392,7.61783957481384,447.333240499496,449.417351474762,0.3,457.003513803482,0.783625364303589,457.788187971115,3,right,0.765768051147461,457.787139167786,604.475175609589,607.235175609589,1633654586.33844,1633654586.34006,1633654593.97462,1633654593.97645,1633654596.05873,1633654603.64489,1633654603.64651,1633654604.42956,1633654604.42852,1633654751.11655,0
78,4,1,3,26,1,4,c4_HowHand,1,pressing button?,82,H_126.jpg,1633654143.88138,1633654143.8889,457.853829374313,8.51512169837952,466.373674621582,468.474457492828,2.10078287124634,468.624513616562,0.566877841949463,469.195503940582,1,left,0.547973871231079,469.191391458511,604.475175609589,607.235175609589,1633654604.49521,1633654604.50305,1633654613.01505,1633654613.02009,1633654615.11583,1633654615.26589,1633654615.27074,1633654615.83688,1633654615.83277,1633654751.11655,1
78,4,1,3,26,2,4,c4_HowHand,2,pressing button?,85,H_130.jpg,1633654143.88138,1633654143.8889,457.853829374313,8.51512169837952,466.373674621582,468.474457492828,0.3,469.508177032471,0.666914939880371,470.178925981522,3,right,0.656497001647949,470.175091972351,604.475175609589,607.235175609589,1633654604.49521,1633654604.50305,1633654613.01505,1633654613.02009,1633654615.11583,1633654616.14955,1633654616.15342,1633654616.8203,1633654616.81647,1633654751.11655,0
78,4,1,3,26,3,4,c4_HowHand,1,pressing button?,84,H_483.jpg,1633654143.88138,1633654143.8889,457.853829374313,8.51512169837952,466.373674621582,468.474457492828,0.3,470.491876592636,0.600224018096924,471.095352878571,1,left,0.590115070343018,471.092100610733,604.475175609589,607.235175609589,1633654604.49521,1633654604.50305,1633654613.01505,1633654613.02009,1633654615.11583,1633654617.13325,1633654617.13685,1633654617.73673,1633654617.73348,1633654751.11655,1
78,4,1,3,26,4,4,c4_HowHand,2,pressing button?,87,H_024.jpg,1633654143.88138,1633654143.8889,457.853829374313,8.51512169837952,466.373674621582,468.474457492828,0.3,471.408885469437,1.5172324180603,472.928976049423,3,right,1.50015211105347,472.926117887497,604.475175609589,607.235175609589,1633654604.49521,1633654604.50305,1633654613.01505,1633654613.02009,1633654615.11583,1633654618.05026,1633654618.05386,1633654619.57035,1633654619.56749,1633654751.11655,0
78,4,1,3,26,5,4,c4_HowHand,1,pressing button?,86,H_332.jpg,1633654143.88138,1633654143.8889,457.853829374313,8.51512169837952,466.373674621582,468.474457492828,0.3,473.242902269363,0.633570909500122,473.87898396492,1,left,0.611536026000977,473.876473178864,604.475175609589,607.235175609589,1633654604.49521,1633654604.50305,1633654613.01505,1633654613.02009,1633654615.11583,1633654619.88428,1633654619.88695,1633654620.52036,1633654620.51785,1633654751.11655,1
78,4,1,3,26,6,4,c4_HowHand,1,pressing button?,88,H_019.jpg,1633654143.88138,1633654143.8889,457.853829374313,8.51512169837952,466.373674621582,468.474457492828,0.3,474.19325756073,0.550203800201416,474.745508899689,1,left,0.531972885131836,474.743461360931,604.475175609589,607.235175609589,1633654604.49521,1633654604.50305,1633654613.01505,1633654613.02009,1633654615.11583,1633654620.83463,1633654620.83698,1633654621.38688,1633654621.38484,1633654751.11655,1
78,4,1,3,26,7,4,c4_HowHand,2,pressing button?,81,H_261.jpg,1633654143.88138,1633654143.8889,457.853829374313,8.51512169837952,466.373674621582,468.474457492828,0.3,475.060247411728,0.766952753067017,475.828439941406,3,right,0.747720003128052,475.827200164795,604.475175609589,607.235175609589,1633654604.49521,1633654604.50305,1633654613.01505,1633654613.02009,1633654615.11583,1633654621.70162,1633654621.70363,1633654622.46982,1633654622.46858,1633654751.11655,0
78,4,1,3,26,8,4,c4_HowHand,1,pressing button?,83,H_502.jpg,1633654143.88138,1633654143.8889,457.853829374313,8.51512169837952,466.373674621582,468.474457492828,0.3,476.143983831406,0.683588743209839,476.829308977127,1,left,0.661962985992432,476.827572574615,604.475175609589,607.235175609589,1633654604.49521,1633654604.50305,1633654613.01505,1633654613.02009,1633654615.11583,1633654622.78536,1633654622.7872,1633654623.47069,1633654623.46895,1633654751.11655,1
78,4,1,3,27,1,3,c3_HowFace,1,looking at camera?,60,F_618.jpg,1633654143.88138,1633654143.8889,476.91093706131,6.98795485496521,483.913548460007,486.01433180809,2.1007833480835,486.164389123917,0.433493614196777,486.599248876572,1,left,0.419245004653931,486.597882738113,604.475175609589,607.235175609589,1633654623.55231,1633654623.55329,1633654630.55492,1633654630.55665,1633654632.65571,1633654632.80577,1633654632.8076,1633654633.24062,1633654633.23926,1633654751.11655,1
78,4,1,3,27,2,3,c3_HowFace,2,looking at camera?,58,F_754.jpg,1633654143.88138,1633654143.8889,476.91093706131,6.98795485496521,483.913548460007,486.01433180809,0.3,486.914667596817,0.616896390914917,487.533303966522,3,right,0.602159023284912,487.531563987732,604.475175609589,607.235175609589,1633654623.55231,1633654623.55329,1633654630.55492,1633654630.55665,1633654632.65571,1633654633.55604,1633654633.55788,1633654634.17468,1633654634.17294,1633654751.11655,0
78,4,1,3,27,3,3,c3_HowFace,1,looking at camera?,59,F_129.jpg,1633654143.88138,1633654143.8889,476.91093706131,6.98795485496521,483.913548460007,486.01433180809,0.3,487.848349323273,0.533533096313477,488.383401861191,1,left,0.516402959823608,488.381882419586,604.475175609589,607.235175609589,1633654623.55231,1633654623.55329,1633654630.55492,1633654630.55665,1633654632.65571,1633654634.48973,1633654634.49153,1633654635.02478,1633654635.02326,1633654751.11655,1
78,4,1,3,27,4,3,c3_HowFace,1,looking at camera?,62,F_598.jpg,1633654143.88138,1633654143.8889,476.91093706131,6.98795485496521,483.913548460007,486.01433180809,0.3,488.698666801453,0.566877841949463,489.266609897614,1,left,0.546535015106201,489.265544643402,604.475175609589,607.235175609589,1633654623.55231,1633654623.55329,1633654630.55492,1633654630.55665,1633654632.65571,1633654635.34004,1633654635.34169,1633654635.90799,1633654635.90692,1633654751.11655,1
78,4,1,3,27,5,3,c3_HowFace,1,looking at camera?,64,F_128.jpg,1633654143.88138,1633654143.8889,476.91093706131,6.98795485496521,483.913548460007,486.01433180809,0.3,489.582330217361,0.583550930023193,490.167440881729,1,left,0.561590194702148,490.165881147385,604.475175609589,607.235175609589,1633654623.55231,1633654623.55329,1633654630.55492,1633654630.55665,1633654632.65571,1633654636.22371,1633654636.22535,1633654636.80882,1633654636.80726,1633654751.11655,1
78,4,1,3,27,6,3,c3_HowFace,2,looking at camera?,57,F_582.jpg,1633654143.88138,1633654143.8889,476.91093706131,6.98795485496521,483.913548460007,486.01433180809,0.3,490.482666006088,0.566876888275146,491.062356939316,3,right,0.558956146240234,491.049542894363,604.475175609589,607.235175609589,1633654623.55231,1633654623.55329,1633654630.55492,1633654630.55665,1633654632.65571,1633654637.12404,1633654637.12586,1633654637.70373,1633654637.69092,1633654751.11655,0
78,4,1,3,27,7,3,c3_HowFace,1,looking at camera?,61,F_774.jpg,1633654143.88138,1633654143.8889,476.91093706131,6.98795485496521,483.913548460007,486.01433180809,0.3,491.366327991486,0.533532381057739,491.912371864319,1,left,0.524245977401733,491.899860372543,604.475175609589,607.235175609589,1633654623.55231,1633654623.55329,1633654630.55492,1633654630.55665,1633654632.65571,1633654638.0077,1633654638.00957,1633654638.55375,1633654638.54124,1633654751.11655,1
78,4,1,3,27,8,3,c3_HowFace,2,looking at camera?,63,F_743.jpg,1633654143.88138,1633654143.8889,476.91093706131,6.98795485496521,483.913548460007,486.01433180809,0.3,492.216644992828,0.650242328643799,492.86803196907,3,right,0.634725093841553,492.866887321472,604.475175609589,607.235175609589,1633654623.55231,1633654623.55329,1633654630.55492,1633654630.55665,1633654632.65571,1633654638.85802,1633654638.85959,1633654639.50941,1633654639.50826,1633654751.11655,0
