onset	duration	trial_type	pmod_accuracy	image_fname
8.114230155944824	1.0337200164794922	dummy		obj185moon.png
10.181660175323486	1.01705002784729	dummy		obj187motorcycle.png
12.232430219650269	1.033719778060913	dummy		obj208paper.png
14.28319001197815	1.0337200164794922	study		obj311train.png
16.33396005630493	1.0337200164794922	study		obj205pan.png
18.401400089263916	1.0170400142669678	study		obj033bottle.png
20.452160120010376	1.01705002784729	study		obj306toilet.png
22.502930164337158	1.0170400142669678	study		obj190mousetrap.png
24.537020206451416	1.0170400142669678	study		obj222pipe.png
26.571110010147095	1.01705002784729	study		obj203paintbrush.png
28.605200052261353	1.01705002784729	study		obj050cannon.png
30.63929009437561	1.01705002784729	study		obj121globe.png
32.67339015007019	1.0170400142669678	study		obj217piano.png
34.70748019218445	1.0170400142669678	study		obj304tire.png
36.74156999588013	1.01705002784729	study		obj154key.png
38.775660037994385	1.01705002784729	study		obj135heart.png
40.80975008010864	1.01705002784729	study		obj189mouse.png
42.84385013580322	1.0170400142669678	study		obj126gun.png
44.87794017791748	1.0170400142669678	study		obj235rabbit.png
46.91203022003174	1.0170397758483887	study		obj150jar.png
48.94612002372742	1.01705002784729	study		obj097eye.png
50.980210065841675	1.01705002784729	study		obj069corn.png
53.01430010795593	1.0337200164794922	study		obj008ashtray.png
55.065070152282715	1.0337200164794922	dummy		obj265shoe.png
57.115830183029175	1.0337200164794922	dummy		obj277snake.png
59.16660022735596	1.0170397758483887	dummy		obj289submarine.png
308.90973019599915	1.01705002784729	dummy		obj007arrow.png
310.94383001327515	1.0170400142669678	dummy		obj036bread.png
312.9779200553894	1.0170400142669678	dummy		obj151puzzle.png
315.01201009750366	1.01705002784729	study		obj070cow.png
317.0461001396179	1.01705002784729	study		obj030bone.png
319.0801901817322	1.01705002784729	study		obj249rooster.png
321.1142899990082	1.0170400142669678	study		obj331watermelon.png
323.14838004112244	1.0337200164794922	study		obj202package.png
325.1991400718689	1.0337200164794922	study		obj267shower.png
327.2499101161957	1.0337200164794922	study		obj210peacock.png
329.30067014694214	1.01705002784729	study		obj136heel.png
331.3514401912689	1.0170400142669678	study		obj243robot.png
333.4022002220154	1.017049789428711	study		obj098fan.png
335.43629002571106	1.01705002784729	study		obj340windmill.png
337.4703800678253	1.01705002784729	study		obj118giraffe.png
339.5044801235199	1.0170400142669678	study		obj323vacuum.png
341.53857016563416	1.0170400142669678	study		obj207pants.png
343.5726602077484	1.017049789428711	study		obj011backpack.png
345.6067500114441	1.01705002784729	study		obj173lock.png
347.64084005355835	1.01705002784729	study		obj002acorn.png
349.67494010925293	1.0170400142669678	study		obj137helicopter.png
351.7090301513672	1.0170400142669678	study		obj176man.png
353.74312019348145	1.01705002784729	study		obj132hanger.png
355.7772099971771	1.01705002784729	dummy		obj264shark.png
357.8113000392914	1.01705002784729	dummy		obj303tiger.png
359.84539008140564	1.01705002784729	dummy		obj348zipper.png
189.61525011062622	2.0	test	1	obj241ring.png
192.34960007667542	1.9160399436950684	test	1	obj157knife.png
195.40074014663696	1.0382499694824219	test	1	obj039bus.png
198.1851100921631	0.7293300628662109	test	0	obj306toilet.png
201.03617000579834	0.7026901245117188	test	1	obj103fire.png
203.72051000595093	0.5974900722503662	test	1	obj135heart.png
206.6549301147461	0.45590996742248535	test	1	obj222pipe.png
209.47265005111694	0.49201011657714844	test	1	obj126gun.png
212.20700001716614	1.120419979095459	test	1	obj033bottle.png
214.99138021469116	0.8035500049591064	test	0	obj121globe.png
217.84244012832642	0.8188600540161133	test	1	obj060chimney.png
220.44341015815735	0.6684398651123047	test	1	obj203paintbrush.png
223.4611999988556	0.9361400604248047	test	1	obj171lizard.png
226.26225018501282	0.713979959487915	test	0	obj285squirrel.png
229.26337003707886	1.0534000396728516	test	1	obj194nest.png
232.1144301891327	1.0061299800872803	test	1	obj316turkey.png
234.74874019622803	0.8589799404144287	test	1	obj329walrus.png
237.73319005966187	1.0928499698638916	test	0	obj097eye.png
240.61760020256042	1.0725598335266113	test	0	obj069corn.png
243.16855001449585	0.9871699810028076	test	1	obj042cactus.png
246.2030200958252	0.6443300247192383	test	1	obj154key.png
248.90402007102966	1.2283999919891357	test	0	obj217piano.png
251.63837003707886	0.5977301597595215	test	1	obj235rabbit.png
254.38940000534058	1.2615201473236084	test	1	obj190mousetrap.png
257.1737701892853	0.8096399307250977	test	0	obj050cannon.png
259.84143018722534	0.8540799617767334	test	0	obj258saxophone.png
262.4924201965332	0.6980500221252441	test	0	obj150jar.png
265.27680015563965	0.7044098377227783	test	1	obj188mountain.png
268.1278600692749	0.6367700099945068	test	1	obj197nurse.png
271.0789601802826	0.6394100189208984	test	1	obj233pyramid.png
273.71327018737793	0.6506400108337402	test	1	obj160ladder.png
276.69772005081177	1.0364799499511719	test	1	obj170lipstick.png
279.4987699985504	0.8867402076721191	test	1	obj031book.png
282.18310022354126	1.3888599872589111	test	1	obj259scarf.png
284.83408999443054	0.6654601097106934	test	0	obj304tire.png
287.4350600242615	0.5004801750183105	test	1	obj189mouse.png
290.36949014663696	0.7459099292755127	test	0	obj008ashtray.png
293.0204701423645	0.7109599113464355	test	1	obj124grapes.png
295.85486006736755	1.1319899559020996	test	0	obj205pan.png
298.4058201313019	0.7594799995422363	test	0	obj311train.png
489.79386019706726	0.7184998989105225	test	0	obj176man.png
492.5949001312256	0.7688300609588623	test	0	obj136heel.png
495.6126902103424	1.3990898132324219	test	0	obj011backpack.png
498.5471200942993	0.7862601280212402	test	1	obj215pencilsharpener.png
501.36484003067017	0.6720399856567383	test	1	obj331watermelon.png
504.3659601211548	0.7240400314331055	test	1	obj012ball.png
506.9502501487732	0.6947500705718994	test	1	obj101fence.png
509.651260137558	1.0917398929595947	test	0	obj137helicopter.png
512.3022501468658	1.2152700424194336	test	0	obj132hanger.png
515.2867000102997	0.7491199970245361	test	1	obj053cat.png
517.9376900196075	0.7211999893188477	test	1	obj074cross.png
520.6220200061798	0.7084300518035889	test	1	obj079desk.png
523.5897901058197	0.8726301193237305	test	1	obj015bandaid.png
526.4241800308228	1.0811400413513184	test	0	obj340windmill.png
529.0251500606537	0.716210126876831	test	1	obj202package.png
531.7428300380707	1.0344600677490234	test	0	obj249rooster.png
534.5939002037048	0.674109935760498	test	1	obj207pants.png
537.1948699951172	0.8604600429534912	test	1	obj183mirror.png
540.1459701061249	0.7604200839996338	test	1	obj323vacuum.png
542.9803600311279	1.0230000019073486	test	1	obj267shower.png
545.9314601421356	0.7723300457000732	test	1	obj307tomato.png
548.4824101924896	0.7653298377990723	test	1	obj250rope.png
551.283450126648	0.81781005859375	test	1	obj237radio.png
553.9177701473236	1.2386300563812256	test	0	obj118giraffe.png
556.5187401771545	0.6545000076293945	test	1	obj224pitchfork.png
559.2530901432037	0.9328298568725586	test	1	obj003alligator.png
561.9707701206207	0.9513599872589111	test	0	obj070cow.png
564.7551400661469	0.9135899543762207	test	1	obj046camera.png
567.7562601566315	0.8757100105285645	test	1	obj243robot.png
570.3405601978302	0.9404599666595459	test	1	obj098fan.png
573.0248901844025	1.0051100254058838	test	1	obj173lock.png
575.9593200683594	0.9706599712371826	test	1	obj262screw.png
578.6770000457764	1.7156100273132324	test	1	obj210peacock.png
581.6114301681519	0.9822099208831787	test	1	obj052carrot.png
584.5792000293732	0.9825401306152344	test	0	obj270skeleton.png
587.2968800067902	0.6748301982879639	test	1	obj030bone.png
589.8811800479889	1.3896701335906982	test	1	obj090drum.png
592.8322801589966	0.7950899600982666	test	0	obj002acorn.png
595.4832701683044	0.7614099979400635	test	1	obj343witch.png
598.1009101867676	0.7573099136352539	test	1	obj330watch.png
71.55455017089844	25.0	math		
99.66504001617432	25.0	math		
127.90890002250671	25.0	math		
155.98604011535645	25.0	math		
372.04995012283325	25.0	math		
400.11041021347046	25.0	math		
428.1708700656891	25.0	math		
456.2313401699066	25.0	math		
